{"resourceType":"Bundle","type":"searchset","entry":[{"resource":{"billablePeriod":{"end":"2011-01-19T14:47:45-05:00","extension":[{"url":"https://bluebutton.cms.gov/assets/ig/StructureDefinition-bluebutton-inpatient-claim-query-cd-extension","valueCoding":{"code":"3","display":"Final Bill","system":"https://bluebutton.cms.gov/assets/ig/ValueSet-claim-query-cd"}}],"start":"2010-01-19T14:47:45-05:00"},"careTeam":[{"provider":{"identifier":{"system":"http://hl7.org/fhir/sid/us-npi","value":"99999999"}},"role":{"coding":[{"code":"primary","display":"Primary Care Practitioner","system":"http://hl7.org/fhir/claimcareteamrole"}]},"sequence":1}],"contained":[{"id":"coverage","resourceType":"Coverage","type":{"text":"private"}}],"extension":[{"url":"https://bluebutton.cms.gov/assets/ig/StructureDefinition-bluebutton-inpatient-ime-op-clm-val-amt-extension","valueMoney":{"code":"USD","system":"urn:iso:std:iso:4217","value":400}},{"url":"https://bluebutton.cms.gov/assets/ig/StructureDefinition-bluebutton-inpatient-dsh-op-clm-val-amt-extension","valueMoney":{"code":"USD","system":"urn:iso:std:iso:4217","value":0}},{"url":"https://bluebutton.cms.gov/assets/ig/StructureDefinition-bluebutton-inpatient-clm-pass-thru-per-diem-amt-extension","valueMoney":{"code":"USD","system":"urn:iso:std:iso:4217","value":0}},{"url":"https://bluebutton.cms.gov/assets/ig/StructureDefinition-bluebutton-inpatient-nch-profnl-cmpnt-chrg-amt-extension","valueMoney":{"code":"USD","system":"urn:iso:std:iso:4217","value":0}},{"url":"https://bluebutton.cms.gov/assets/ig/StructureDefinition-bluebutton-inpatient-clm-tot-pps-cptl-amt-extension","valueMoney":{"code":"USD","system":"urn:iso:std:iso:4217","value":0}},{"url":"https://bluebutton.cms.gov/assets/ig/StructureDefinition-bluebutton-inpatient-nch-bene-ip-ddctbl-amt-extension","valueMoney":{"code":"USD","system":"urn:iso:std:iso:4217","value":0}},{"url":"https://bluebutton.cms.gov/assets/ig/StructureDefinition-bluebutton-inpatient-nch-bene-pta-coinsrnc-lblty-amt-extension","valueMoney":{"code":"USD","system":"urn:iso:std:iso:4217","value":0}},{"url":"https://bluebutton.cms.gov/assets/ig/StructureDefinition-bluebutton-inpatient-nch-ip-ncvrd-chrg-amt-extension","valueMoney":{"code":"USD","system":"urn:iso:std:iso:4217","value":0}},{"url":"https://bluebutton.cms.gov/assets/ig/StructureDefinition-bluebutton-inpatient-nch-ip-tot-ddctn-amt-extension","valueMoney":{"code":"USD","system":"urn:iso:std:iso:4217","value":0}},{"url":"https://bluebutton.cms.gov/assets/ig/StructureDefinition-bluebutton-inpatient-clm-pps-cptl-dsprprtnt-shr-amt-extension","valueMoney":{"code":"USD","system":"urn:iso:std:iso:4217","value":0}},{"url":"https://bluebutton.cms.gov/assets/ig/StructureDefinition-bluebutton-inpatient-clm-pps-cptl-excptn-amt-extension","valueMoney":{"code":"USD","system":"urn:iso:std:iso:4217","value":0}},{"url":"https://bluebutton.cms.gov/assets/ig/StructureDefinition-bluebutton-inpatient-clm-pps-cptl-fsp-amt-extension","valueMoney":{"code":"USD","system":"urn:iso:std:iso:4217","value":0}},{"url":"https://bluebutton.cms.gov/assets/ig/StructureDefinition-bluebutton-inpatient-clm-pps-cptl-ime-amt-extension","valueMoney":{"code":"USD","system":"urn:iso:std:iso:4217","value":400}},{"url":"https://bluebutton.cms.gov/assets/ig/StructureDefinition-bluebutton-inpatient-clm-pps-cptl-outlier-amt-extension","valueMoney":{"code":"USD","system":"urn:iso:std:iso:4217","value":0}},{"url":"https://bluebutton.cms.gov/assets/ig/StructureDefinition-bluebutton-inpatient-clm-pps-old-cptl-hld-hrmls-amt-extension","valueMoney":{"code":"USD","system":"urn:iso:std:iso:4217","value":0}},{"url":"https://bluebutton.cms.gov/assets/ig/StructureDefinition-bluebutton-inpatient-nch-drg-outlier-aprvd-pmt-amt-extension","valueMoney":{"code":"USD","system":"urn:iso:std:iso:4217","value":0}},{"url":"https://bluebutton.cms.gov/assets/ig/StructureDefinition-bluebutton-inpatient-nch-bene-blood-ddctbl-lblty-am-extension","valueMoney":{"code":"USD","system":"urn:iso:std:iso:4217","value":0}},{"url":"https://bluebutton.cms.gov/assets/ig/StructureDefinition-bluebutton-inpatient-clm-mdcr-non-pmt-rsn-cd-extension","valueCoding":{"code":"N","display":"All other reasons for non-payment","system":"https://bluebutton.cms.gov/assets/ig/CodeSystem-clm-mdcr-non-pmt-rsn-cd"}},{"url":"https://bluebutton.cms.gov/assets/ig/StructureDefinition-bluebutton-inpatient-prpayamt-extension","valueMoney":{"code":"USD","system":"urn:iso:std:iso:4217","value":0}},{"url":"https://bluebutton.cms.gov/assets/ig/StructureDefinition-bluebutton-inpatient-fi-num-extension","valueIdentifier":{"system":"https://bluebutton.cms.gov/assets/ig/CodeSystem-fi-num","value":"002000"}}],"id":"88665799-d769-4967-b4dd-2cb2e5e56665","identifier":[{"system":"https://bluebutton.cms.gov/resources/variables/clm_id","value":"39bc429c-b43d-461a-abf9-842a9adf5df6"},{"system":"https://bluebutton.cms.gov/resources/identifier/claim-group","value":"99999999999"}],"insurance":{"coverage":{"reference":"#coverage"}},"item":[{"extension":[{"url":"https://bluebutton.cms.gov/assets/ig/StructureDefinition-bluebutton-inpatient-rev-cntr-ndc-qty-extension","valueQuantity":{"value":0}}],"locationCodeableConcept":{"coding":[{"code":"21","display":"Inpatient Hospital","system":"https://bluebutton.cms.gov/resources/variables/line_place_of_srvc_cd"}]},"sequence":1},{"adjudication":[{"amount":{"code":"USD","system":"urn:iso:std:iso:4217","value":2047.784},"category":{"coding":[{"code":"https://bluebutton.cms.gov/resources/variables/line_coinsrnc_amt","display":"Line Beneficiary Coinsurance Amount","system":"https://bluebutton.cms.gov/resources/codesystem/adjudication"}]}},{"amount":{"code":"USD","system":"urn:iso:std:iso:4217","value":8191.136},"category":{"coding":[{"code":"https://bluebutton.cms.gov/resources/variables/line_prvdr_pmt_amt","display":"Line Provider Payment Amount","system":"https://bluebutton.cms.gov/resources/codesystem/adjudication"}]}},{"amount":{"code":"USD","system":"urn:iso:std:iso:4217","value":10238.92},"category":{"coding":[{"code":"https://bluebutton.cms.gov/resources/variables/line_sbmtd_chrg_amt","display":"Line Submitted Charge Amount","system":"https://bluebutton.cms.gov/resources/codesystem/adjudication"}]}},{"amount":{"code":"USD","system":"urn:iso:std:iso:4217","value":10238.92},"category":{"coding":[{"code":"https://bluebutton.cms.gov/resources/variables/line_alowd_chrg_amt","display":"Line Allowed Charge Amount","system":"https://bluebutton.cms.gov/resources/codesystem/adjudication"}]}},{"amount":{"code":"USD","system":"urn:iso:std:iso:4217","value":0},"category":{"coding":[{"code":"https://bluebutton.cms.gov/resources/variables/line_bene_ptb_ddctbl_amt","display":"Line Beneficiary Part B Deductible Amount","system":"https://bluebutton.cms.gov/resources/codesystem/adjudication"}]}},{"category":{"coding":[{"code":"https://bluebutton.cms.gov/resources/variables/line_prcsg_ind_cd","display":"Line Processing Indicator Code","system":"https://bluebutton.cms.gov/resources/codesystem/adjudication"}]}}],"extension":[{"url":"https://bluebutton.cms.gov/assets/ig/StructureDefinition-bluebutton-inpatient-rev-cntr-ndc-qty-extension","valueQuantity":{"value":0}}],"locationCodeableConcept":{"coding":[{"code":"21","display":"Inpatient Hospital","system":"https://bluebutton.cms.gov/resources/variables/line_place_of_srvc_cd"}]},"sequence":2,"service":{"coding":[{"code":"65546002","system":"http://snomed.info/sct","version":"v1"}]}}],"meta":{"lastUpdated":"2019-04-09T10:20:45.762889+00:00","profile":["https://bluebutton.cms.gov/assets/ig/StructureDefinition-bluebutton-inpatient-claim"],"versionId":"MTU1NDgwNTI0NTc2Mjg4OTAwMA"},"organization":{"identifier":{"value":"36a03348-cac3-4284-b8c1-ffff7032af72"}},"patient":{"reference":"Patient/00a04f0e-43ec-4c22-b0e3-541e1dabd3af"},"payment":{"amount":{"code":"USD","system":"urn:iso:std:iso:4217","value":8191.136}},"provider":{"identifier":{"value":"80e8e6bd-5973-4681-bb2a-74927c72d003"}},"resourceType":"ExplanationOfBenefit","status":"active","totalCost":{"code":"USD","system":"urn:iso:std:iso:4217","value":10313.92},"type":{"coding":[{"code":"71","display":"Local carrier non-durable medical equipment, prosthetics, orthotics, and supplies (DMEPOS) claim","system":"https://bluebutton.cms.gov/resources/variables/nch_clm_type_cd"},{"code":"CARRIER","display":"EOB Type","system":"https://bluebutton.cms.gov/resources/codesystem/eob-type"},{"code":"professional","display":"Claim Type","system":"http://hl7.org/fhir/ex-claimtype"},{"code":"O","display":"Part B physician/supplier claim record (processed by local carriers; can include DMEPOS services)","system":"https://bluebutton.cms.gov/resources/variables/nch_near_line_rec_ident_cd"}]}}},{"resource":{"billablePeriod":{"end":"2019-12-14T14:32:45-05:00","extension":[{"url":"https://bluebutton.cms.gov/assets/ig/StructureDefinition-bluebutton-inpatient-claim-query-cd-extension","valueCoding":{"code":"3","display":"Final Bill","system":"https://bluebutton.cms.gov/assets/ig/ValueSet-claim-query-cd"}}],"start":"2018-12-14T14:32:45-05:00"},"careTeam":[{"provider":{"identifier":{"system":"http://hl7.org/fhir/sid/us-npi","value":"99999999"}},"role":{"coding":[{"code":"primary","display":"Primary Care Practitioner","system":"http://hl7.org/fhir/claimcareteamrole"}]},"sequence":1}],"contained":[{"id":"coverage","resourceType":"Coverage","type":{"text":"private"}}],"extension":[{"url":"https://bluebutton.cms.gov/assets/ig/StructureDefinition-bluebutton-inpatient-ime-op-clm-val-amt-extension","valueMoney":{"code":"USD","system":"urn:iso:std:iso:4217","value":400}},{"url":"https://bluebutton.cms.gov/assets/ig/StructureDefinition-bluebutton-inpatient-dsh-op-clm-val-amt-extension","valueMoney":{"code":"USD","system":"urn:iso:std:iso:4217","value":0}},{"url":"https://bluebutton.cms.gov/assets/ig/StructureDefinition-bluebutton-inpatient-clm-pass-thru-per-diem-amt-extension","valueMoney":{"code":"USD","system":"urn:iso:std:iso:4217","value":0}},{"url":"https://bluebutton.cms.gov/assets/ig/StructureDefinition-bluebutton-inpatient-nch-profnl-cmpnt-chrg-amt-extension","valueMoney":{"code":"USD","system":"urn:iso:std:iso:4217","value":0}},{"url":"https://bluebutton.cms.gov/assets/ig/StructureDefinition-bluebutton-inpatient-clm-tot-pps-cptl-amt-extension","valueMoney":{"code":"USD","system":"urn:iso:std:iso:4217","value":0}},{"url":"https://bluebutton.cms.gov/assets/ig/StructureDefinition-bluebutton-inpatient-nch-bene-ip-ddctbl-amt-extension","valueMoney":{"code":"USD","system":"urn:iso:std:iso:4217","value":0}},{"url":"https://bluebutton.cms.gov/assets/ig/StructureDefinition-bluebutton-inpatient-nch-bene-pta-coinsrnc-lblty-amt-extension","valueMoney":{"code":"USD","system":"urn:iso:std:iso:4217","value":0}},{"url":"https://bluebutton.cms.gov/assets/ig/StructureDefinition-bluebutton-inpatient-nch-ip-ncvrd-chrg-amt-extension","valueMoney":{"code":"USD","system":"urn:iso:std:iso:4217","value":0}},{"url":"https://bluebutton.cms.gov/assets/ig/StructureDefinition-bluebutton-inpatient-nch-ip-tot-ddctn-amt-extension","valueMoney":{"code":"USD","system":"urn:iso:std:iso:4217","value":0}},{"url":"https://bluebutton.cms.gov/assets/ig/StructureDefinition-bluebutton-inpatient-clm-pps-cptl-dsprprtnt-shr-amt-extension","valueMoney":{"code":"USD","system":"urn:iso:std:iso:4217","value":0}},{"url":"https://bluebutton.cms.gov/assets/ig/StructureDefinition-bluebutton-inpatient-clm-pps-cptl-excptn-amt-extension","valueMoney":{"code":"USD","system":"urn:iso:std:iso:4217","value":0}},{"url":"https://bluebutton.cms.gov/assets/ig/StructureDefinition-bluebutton-inpatient-clm-pps-cptl-fsp-amt-extension","valueMoney":{"code":"USD","system":"urn:iso:std:iso:4217","value":0}},{"url":"https://bluebutton.cms.gov/assets/ig/StructureDefinition-bluebutton-inpatient-clm-pps-cptl-ime-amt-extension","valueMoney":{"code":"USD","system":"urn:iso:std:iso:4217","value":400}},{"url":"https://bluebutton.cms.gov/assets/ig/StructureDefinition-bluebutton-inpatient-clm-pps-cptl-outlier-amt-extension","valueMoney":{"code":"USD","system":"urn:iso:std:iso:4217","value":0}},{"url":"https://bluebutton.cms.gov/assets/ig/StructureDefinition-bluebutton-inpatient-clm-pps-old-cptl-hld-hrmls-amt-extension","valueMoney":{"code":"USD","system":"urn:iso:std:iso:4217","value":0}},{"url":"https://bluebutton.cms.gov/assets/ig/StructureDefinition-bluebutton-inpatient-nch-drg-outlier-aprvd-pmt-amt-extension","valueMoney":{"code":"USD","system":"urn:iso:std:iso:4217","value":0}},{"url":"https://bluebutton.cms.gov/assets/ig/StructureDefinition-bluebutton-inpatient-nch-bene-blood-ddctbl-lblty-am-extension","valueMoney":{"code":"USD","system":"urn:iso:std:iso:4217","value":0}},{"url":"https://bluebutton.cms.gov/assets/ig/StructureDefinition-bluebutton-inpatient-clm-mdcr-non-pmt-rsn-cd-extension","valueCoding":{"code":"N","display":"All other reasons for non-payment","system":"https://bluebutton.cms.gov/assets/ig/CodeSystem-clm-mdcr-non-pmt-rsn-cd"}},{"url":"https://bluebutton.cms.gov/assets/ig/StructureDefinition-bluebutton-inpatient-prpayamt-extension","valueMoney":{"code":"USD","system":"urn:iso:std:iso:4217","value":0}},{"url":"https://bluebutton.cms.gov/assets/ig/StructureDefinition-bluebutton-inpatient-fi-num-extension","valueIdentifier":{"system":"https://bluebutton.cms.gov/assets/ig/CodeSystem-fi-num","value":"002000"}}],"id":"8a84cc54-e006-42d4-8e2e-3d9957520a4d","identifier":[{"system":"https://bluebutton.cms.gov/resources/variables/clm_id","value":"393e4f7a-bf65-4654-a4a5-b3ceac01a875"},{"system":"https://bluebutton.cms.gov/resources/identifier/claim-group","value":"99999999999"}],"insurance":{"coverage":{"reference":"#coverage"}},"item":[{"extension":[{"url":"https://bluebutton.cms.gov/assets/ig/StructureDefinition-bluebutton-inpatient-rev-cntr-ndc-qty-extension","valueQuantity":{"value":0}}],"locationCodeableConcept":{"coding":[{"code":"21","display":"Inpatient Hospital","system":"https://bluebutton.cms.gov/resources/variables/line_place_of_srvc_cd"}]},"sequence":1}],"meta":{"lastUpdated":"2019-04-09T10:20:52.925402+00:00","profile":["https://bluebutton.cms.gov/assets/ig/StructureDefinition-bluebutton-inpatient-claim"],"versionId":"MTU1NDgwNTI1MjkyNTQwMjAwMA"},"organization":{"identifier":{"value":"36a03348-cac3-4284-b8c1-ffff7032af72"}},"patient":{"reference":"Patient/00a04f0e-43ec-4c22-b0e3-541e1dabd3af"},"payment":{"amount":{"code":"USD","system":"urn:iso:std:iso:4217","value":0}},"provider":{"identifier":{"value":"80e8e6bd-5973-4681-bb2a-74927c72d003"}},"resourceType":"ExplanationOfBenefit","status":"active","totalCost":{"code":"USD","system":"urn:iso:std:iso:4217","value":75},"type":{"coding":[{"code":"71","display":"Local carrier non-durable medical equipment, prosthetics, orthotics, and supplies (DMEPOS) claim","system":"https://bluebutton.cms.gov/resources/variables/nch_clm_type_cd"},{"code":"CARRIER","display":"EOB Type","system":"https://bluebutton.cms.gov/resources/codesystem/eob-type"},{"code":"professional","display":"Claim Type","system":"http://hl7.org/fhir/ex-claimtype"},{"code":"O","display":"Part B physician/supplier claim record (processed by local carriers; can include DMEPOS services)","system":"https://bluebutton.cms.gov/resources/variables/nch_near_line_rec_ident_cd"}]}}},{"resource":{"billablePeriod":{"end":"2017-08-25T15:47:45-04:00","extension":[{"url":"https://bluebutton.cms.gov/assets/ig/StructureDefinition-bluebutton-outpatient-claim-query-cd-extension","valueCoding":{"code":"3","display":"Final Bill","system":"https://bluebutton.cms.gov/assets/ig/ValueSet-claim-query-cd"}}],"start":"2016-08-25T15:47:45-04:00"},"careTeam":[{"provider":{"identifier":{"system":"http://hl7.org/fhir/sid/us-npi","value":"99999999"}},"role":{"coding":[{"code":"primary","display":"Primary Care Practitioner","system":"http://hl7.org/fhir/claimcareteamrole"}]},"sequence":1}],"contained":[{"id":"coverage","resourceType":"Coverage","type":{"text":"private"}}],"extension":[{"url":"https://bluebutton.cms.gov/assets/ig/StructureDefinition-bluebutton-outpatient-nch-profnl-cmpnt-chrg-amt-extension","valueMoney":{"code":"USD","system":"urn:iso:std:iso:4217","value":0}},{"url":"https://bluebutton.cms.gov/assets/ig/StructureDefinition-bluebutton-outpatient-nch-bene-ptb-ddctbl-amt-extension","valueMoney":{"code":"USD","system":"urn:iso:std:iso:4217","value":0}},{"url":"https://bluebutton.cms.gov/assets/ig/StructureDefinition-bluebutton-outpatient-nch-bene-ptb-coinsrnc-amt-extension","valueMoney":{"code":"USD","system":"urn:iso:std:iso:4217","value":0}},{"url":"https://bluebutton.cms.gov/assets/ig/StructureDefinition-bluebutton-outpatient-clm-op-prvdr-pmt-amt-extension","valueMoney":{"code":"USD","system":"urn:iso:std:iso:4217","value":0}},{"url":"https://bluebutton.cms.gov/assets/ig/StructureDefinition-bluebutton-outpatient-clm-op-bene-pmt-amt-extension","valueMoney":{"code":"USD","system":"urn:iso:std:iso:4217","value":0}},{"url":"https://bluebutton.cms.gov/assets/ig/StructureDefinition-bluebutton-outpatient-nch-bene-blood-ddctbl-lblty-am-extension","valueMoney":{"code":"USD","system":"urn:iso:std:iso:4217","value":0}},{"url":"https://bluebutton.cms.gov/assets/ig/StructureDefinition-bluebutton-outpatient-clm-mdcr-non-pmt-rsn-cd-extension","valueCoding":{"code":"N","display":"All other reasons for non-payment","system":"https://bluebutton.cms.gov/assets/ig/CodeSystem-clm-mdcr-non-pmt-rsn-cd"}},{"url":"https://bluebutton.cms.gov/assets/ig/StructureDefinition-bluebutton-outpatient-prpayamt-extension","valueMoney":{"code":"USD","system":"urn:iso:std:iso:4217","value":0}},{"url":"https://bluebutton.cms.gov/assets/ig/StructureDefinition-bluebutton-outpatient-fi-num-extension","valueIdentifier":{"system":"https://bluebutton.cms.gov/assets/ig/CodeSystem-fi-num","value":"002000"}}],"id":"8b66ad25-3fec-4b39-8b97-41a436cebab1","identifier":[{"system":"https://bluebutton.cms.gov/resources/variables/clm_id","value":"f16f35aa-7ecd-46ec-ae86-1fd35f4b9d45"},{"system":"https://bluebutton.cms.gov/resources/identifier/claim-group","value":"99999999999"}],"insurance":{"coverage":{"reference":"#coverage"}},"item":[{"extension":[{"url":"https://bluebutton.cms.gov/assets/ig/StructureDefinition-bluebutton-outpatient-rev-cntr-ndc-qty-extension","valueQuantity":{"value":0}}],"locationCodeableConcept":{"coding":[{"code":"21","display":"Inpatient Hospital","system":"https://bluebutton.cms.gov/resources/variables/line_place_of_srvc_cd"}]},"sequence":1}],"meta":{"lastUpdated":"2019-04-09T10:20:51.859795+00:00","profile":["https://bluebutton.cms.gov/assets/ig/StructureDefinition-bluebutton-outpatient-claim"],"versionId":"MTU1NDgwNTI1MTg1OTc5NTAwMA"},"organization":{"identifier":{"value":"36a03348-cac3-4284-b8c1-ffff7032af72"}},"patient":{"reference":"Patient/00a04f0e-43ec-4c22-b0e3-541e1dabd3af"},"payment":{"amount":{"code":"USD","system":"urn:iso:std:iso:4217","value":0}},"provider":{"identifier":{"value":"80e8e6bd-5973-4681-bb2a-74927c72d003"}},"resourceType":"ExplanationOfBenefit","status":"active","totalCost":{"code":"USD","system":"urn:iso:std:iso:4217","value":125},"type":{"coding":[{"code":"71","display":"Local carrier non-durable medical equipment, prosthetics, orthotics, and supplies (DMEPOS) claim","system":"https://bluebutton.cms.gov/resources/variables/nch_clm_type_cd"},{"code":"CARRIER","display":"EOB Type","system":"https://bluebutton.cms.gov/resources/codesystem/eob-type"},{"code":"professional","display":"Claim Type","system":"http://hl7.org/fhir/ex-claimtype"},{"code":"O","display":"Part B physician/supplier claim record (processed by local carriers; can include DMEPOS services)","system":"https://bluebutton.cms.gov/resources/variables/nch_near_line_rec_ident_cd"}]}}},{"resource":{"billablePeriod":{"end":"2013-03-21T15:32:45-04:00","extension":[{"url":"https://bluebutton.cms.gov/assets/ig/StructureDefinition-bluebutton-inpatient-claim-query-cd-extension","valueCoding":{"code":"3","display":"Final Bill","system":"https://bluebutton.cms.gov/assets/ig/ValueSet-claim-query-cd"}}],"start":"2012-03-21T15:32:45-04:00"},"careTeam":[{"provider":{"identifier":{"system":"http://hl7.org/fhir/sid/us-npi","value":"99999999"}},"role":{"coding":[{"code":"primary","display":"Primary Care Practitioner","system":"http://hl7.org/fhir/claimcareteamrole"}]},"sequence":1}],"contained":[{"id":"coverage","resourceType":"Coverage","type":{"text":"private"}}],"extension":[{"url":"https://bluebutton.cms.gov/assets/ig/StructureDefinition-bluebutton-inpatient-ime-op-clm-val-amt-extension","valueMoney":{"code":"USD","system":"urn:iso:std:iso:4217","value":400}},{"url":"https://bluebutton.cms.gov/assets/ig/StructureDefinition-bluebutton-inpatient-dsh-op-clm-val-amt-extension","valueMoney":{"code":"USD","system":"urn:iso:std:iso:4217","value":0}},{"url":"https://bluebutton.cms.gov/assets/ig/StructureDefinition-bluebutton-inpatient-clm-pass-thru-per-diem-amt-extension","valueMoney":{"code":"USD","system":"urn:iso:std:iso:4217","value":0}},{"url":"https://bluebutton.cms.gov/assets/ig/StructureDefinition-bluebutton-inpatient-nch-profnl-cmpnt-chrg-amt-extension","valueMoney":{"code":"USD","system":"urn:iso:std:iso:4217","value":0}},{"url":"https://bluebutton.cms.gov/assets/ig/StructureDefinition-bluebutton-inpatient-clm-tot-pps-cptl-amt-extension","valueMoney":{"code":"USD","system":"urn:iso:std:iso:4217","value":0}},{"url":"https://bluebutton.cms.gov/assets/ig/StructureDefinition-bluebutton-inpatient-nch-bene-ip-ddctbl-amt-extension","valueMoney":{"code":"USD","system":"urn:iso:std:iso:4217","value":0}},{"url":"https://bluebutton.cms.gov/assets/ig/StructureDefinition-bluebutton-inpatient-nch-bene-pta-coinsrnc-lblty-amt-extension","valueMoney":{"code":"USD","system":"urn:iso:std:iso:4217","value":0}},{"url":"https://bluebutton.cms.gov/assets/ig/StructureDefinition-bluebutton-inpatient-nch-ip-ncvrd-chrg-amt-extension","valueMoney":{"code":"USD","system":"urn:iso:std:iso:4217","value":0}},{"url":"https://bluebutton.cms.gov/assets/ig/StructureDefinition-bluebutton-inpatient-nch-ip-tot-ddctn-amt-extension","valueMoney":{"code":"USD","system":"urn:iso:std:iso:4217","value":0}},{"url":"https://bluebutton.cms.gov/assets/ig/StructureDefinition-bluebutton-inpatient-clm-pps-cptl-dsprprtnt-shr-amt-extension","valueMoney":{"code":"USD","system":"urn:iso:std:iso:4217","value":0}},{"url":"https://bluebutton.cms.gov/assets/ig/StructureDefinition-bluebutton-inpatient-clm-pps-cptl-excptn-amt-extension","valueMoney":{"code":"USD","system":"urn:iso:std:iso:4217","value":0}},{"url":"https://bluebutton.cms.gov/assets/ig/StructureDefinition-bluebutton-inpatient-clm-pps-cptl-fsp-amt-extension","valueMoney":{"code":"USD","system":"urn:iso:std:iso:4217","value":0}},{"url":"https://bluebutton.cms.gov/assets/ig/StructureDefinition-bluebutton-inpatient-clm-pps-cptl-ime-amt-extension","valueMoney":{"code":"USD","system":"urn:iso:std:iso:4217","value":400}},{"url":"https://bluebutton.cms.gov/assets/ig/StructureDefinition-bluebutton-inpatient-clm-pps-cptl-outlier-amt-extension","valueMoney":{"code":"USD","system":"urn:iso:std:iso:4217","value":0}},{"url":"https://bluebutton.cms.gov/assets/ig/StructureDefinition-bluebutton-inpatient-clm-pps-old-cptl-hld-hrmls-amt-extension","valueMoney":{"code":"USD","system":"urn:iso:std:iso:4217","value":0}},{"url":"https://bluebutton.cms.gov/assets/ig/StructureDefinition-bluebutton-inpatient-nch-drg-outlier-aprvd-pmt-amt-extension","valueMoney":{"code":"USD","system":"urn:iso:std:iso:4217","value":0}},{"url":"https://bluebutton.cms.gov/assets/ig/StructureDefinition-bluebutton-inpatient-nch-bene-blood-ddctbl-lblty-am-extension","valueMoney":{"code":"USD","system":"urn:iso:std:iso:4217","value":0}},{"url":"https://bluebutton.cms.gov/assets/ig/StructureDefinition-bluebutton-inpatient-clm-mdcr-non-pmt-rsn-cd-extension","valueCoding":{"code":"N","display":"All other reasons for non-payment","system":"https://bluebutton.cms.gov/assets/ig/CodeSystem-clm-mdcr-non-pmt-rsn-cd"}},{"url":"https://bluebutton.cms.gov/assets/ig/StructureDefinition-bluebutton-inpatient-prpayamt-extension","valueMoney":{"code":"USD","system":"urn:iso:std:iso:4217","value":0}},{"url":"https://bluebutton.cms.gov/assets/ig/StructureDefinition-bluebutton-inpatient-fi-num-extension","valueIdentifier":{"system":"https://bluebutton.cms.gov/assets/ig/CodeSystem-fi-num","value":"002000"}}],"id":"90f9e1ae-eb59-4f25-ab6c-4de8569156cd","identifier":[{"system":"https://bluebutton.cms.gov/resources/variables/clm_id","value":"bbfe7f0b-8532-4c95-83a6-868f70cd38ab"},{"system":"https://bluebutton.cms.gov/resources/identifier/claim-group","value":"99999999999"}],"insurance":{"coverage":{"reference":"#coverage"}},"item":[{"extension":[{"url":"https://bluebutton.cms.gov/assets/ig/StructureDefinition-bluebutton-inpatient-rev-cntr-ndc-qty-extension","valueQuantity":{"value":0}}],"locationCodeableConcept":{"coding":[{"code":"21","display":"Inpatient Hospital","system":"https://bluebutton.cms.gov/resources/variables/line_place_of_srvc_cd"}]},"sequence":1}],"meta":{"lastUpdated":"2019-04-09T10:20:47.790526+00:00","profile":["https://bluebutton.cms.gov/assets/ig/StructureDefinition-bluebutton-inpatient-claim"],"versionId":"MTU1NDgwNTI0Nzc5MDUyNjAwMA"},"organization":{"identifier":{"value":"36a03348-cac3-4284-b8c1-ffff7032af72"}},"patient":{"reference":"Patient/00a04f0e-43ec-4c22-b0e3-541e1dabd3af"},"payment":{"amount":{"code":"USD","system":"urn:iso:std:iso:4217","value":0}},"provider":{"identifier":{"value":"80e8e6bd-5973-4681-bb2a-74927c72d003"}},"resourceType":"ExplanationOfBenefit","status":"active","totalCost":{"code":"USD","system":"urn:iso:std:iso:4217","value":75},"type":{"coding":[{"code":"71","display":"Local carrier non-durable medical equipment, prosthetics, orthotics, and supplies (DMEPOS) claim","system":"https://bluebutton.cms.gov/resources/variables/nch_clm_type_cd"},{"code":"CARRIER","display":"EOB Type","system":"https://bluebutton.cms.gov/resources/codesystem/eob-type"},{"code":"professional","display":"Claim Type","system":"http://hl7.org/fhir/ex-claimtype"},{"code":"O","display":"Part B physician/supplier claim record (processed by local carriers; can include DMEPOS services)","system":"https://bluebutton.cms.gov/resources/variables/nch_near_line_rec_ident_cd"}]}}},{"resource":{"billablePeriod":{"end":"2014-10-02T15:47:45-04:00","extension":[{"url":"https://bluebutton.cms.gov/assets/ig/StructureDefinition-bluebutton-outpatient-claim-query-cd-extension","valueCoding":{"code":"3","display":"Final Bill","system":"https://bluebutton.cms.gov/assets/ig/ValueSet-claim-query-cd"}}],"start":"2013-10-02T15:47:45-04:00"},"careTeam":[{"provider":{"identifier":{"system":"http://hl7.org/fhir/sid/us-npi","value":"99999999"}},"role":{"coding":[{"code":"primary","display":"Primary Care Practitioner","system":"http://hl7.org/fhir/claimcareteamrole"}]},"sequence":1}],"contained":[{"id":"coverage","resourceType":"Coverage","type":{"text":"medicaid"}}],"extension":[{"url":"https://bluebutton.cms.gov/assets/ig/StructureDefinition-bluebutton-outpatient-nch-profnl-cmpnt-chrg-amt-extension","valueMoney":{"code":"USD","system":"urn:iso:std:iso:4217","value":0}},{"url":"https://bluebutton.cms.gov/assets/ig/StructureDefinition-bluebutton-outpatient-nch-bene-ptb-ddctbl-amt-extension","valueMoney":{"code":"USD","system":"urn:iso:std:iso:4217","value":0}},{"url":"https://bluebutton.cms.gov/assets/ig/StructureDefinition-bluebutton-outpatient-nch-bene-ptb-coinsrnc-amt-extension","valueMoney":{"code":"USD","system":"urn:iso:std:iso:4217","value":0}},{"url":"https://bluebutton.cms.gov/assets/ig/StructureDefinition-bluebutton-outpatient-clm-op-prvdr-pmt-amt-extension","valueMoney":{"code":"USD","system":"urn:iso:std:iso:4217","value":0}},{"url":"https://bluebutton.cms.gov/assets/ig/StructureDefinition-bluebutton-outpatient-clm-op-bene-pmt-amt-extension","valueMoney":{"code":"USD","system":"urn:iso:std:iso:4217","value":0}},{"url":"https://bluebutton.cms.gov/assets/ig/StructureDefinition-bluebutton-outpatient-nch-bene-blood-ddctbl-lblty-am-extension","valueMoney":{"code":"USD","system":"urn:iso:std:iso:4217","value":0}},{"url":"https://bluebutton.cms.gov/assets/ig/StructureDefinition-bluebutton-outpatient-clm-mdcr-non-pmt-rsn-cd-extension","valueCoding":{"code":"N","display":"All other reasons for non-payment","system":"https://bluebutton.cms.gov/assets/ig/CodeSystem-clm-mdcr-non-pmt-rsn-cd"}},{"url":"https://bluebutton.cms.gov/assets/ig/StructureDefinition-bluebutton-outpatient-prpayamt-extension","valueMoney":{"code":"USD","system":"urn:iso:std:iso:4217","value":0}},{"url":"https://bluebutton.cms.gov/assets/ig/StructureDefinition-bluebutton-outpatient-fi-num-extension","valueIdentifier":{"system":"https://bluebutton.cms.gov/assets/ig/CodeSystem-fi-num","value":"002000"}}],"id":"942151bd-3dbd-477d-8fb1-6912909209b8","identifier":[{"system":"https://bluebutton.cms.gov/resources/variables/clm_id","value":"99a790ef-0d6f-40e3-aaa3-530d32745f65"},{"system":"https://bluebutton.cms.gov/resources/identifier/claim-group","value":"99999999999"}],"insurance":{"coverage":{"reference":"#coverage"}},"item":[{"extension":[{"url":"https://bluebutton.cms.gov/assets/ig/StructureDefinition-bluebutton-outpatient-rev-cntr-ndc-qty-extension","valueQuantity":{"value":0}}],"locationCodeableConcept":{"coding":[{"code":"21","display":"Inpatient Hospital","system":"https://bluebutton.cms.gov/resources/variables/line_place_of_srvc_cd"}]},"sequence":1}],"meta":{"lastUpdated":"2019-04-09T10:20:50.826824+00:00","profile":["https://bluebutton.cms.gov/assets/ig/StructureDefinition-bluebutton-outpatient-claim"],"versionId":"MTU1NDgwNTI1MDgyNjgyNDAwMA"},"organization":{"identifier":{"value":"36a03348-cac3-4284-b8c1-ffff7032af72"}},"patient":{"reference":"Patient/00a04f0e-43ec-4c22-b0e3-541e1dabd3af"},"payment":{"amount":{"code":"USD","system":"urn:iso:std:iso:4217","value":0}},"provider":{"identifier":{"value":"80e8e6bd-5973-4681-bb2a-74927c72d003"}},"resourceType":"ExplanationOfBenefit","status":"active","totalCost":{"code":"USD","system":"urn:iso:std:iso:4217","value":125},"type":{"coding":[{"code":"71","display":"Local carrier non-durable medical equipment, prosthetics, orthotics, and supplies (DMEPOS) claim","system":"https://bluebutton.cms.gov/resources/variables/nch_clm_type_cd"},{"code":"CARRIER","display":"EOB Type","system":"https://bluebutton.cms.gov/resources/codesystem/eob-type"},{"code":"professional","display":"Claim Type","system":"http://hl7.org/fhir/ex-claimtype"},{"code":"O","display":"Part B physician/supplier claim record (processed by local carriers; can include DMEPOS services)","system":"https://bluebutton.cms.gov/resources/variables/nch_near_line_rec_ident_cd"}]}}},{"resource":{"billablePeriod":{"end":"2017-07-26T15:47:45-04:00","extension":[{"url":"https://bluebutton.cms.gov/assets/ig/StructureDefinition-bluebutton-outpatient-claim-query-cd-extension","valueCoding":{"code":"3","display":"Final Bill","system":"https://bluebutton.cms.gov/assets/ig/ValueSet-claim-query-cd"}}],"start":"2016-07-26T15:47:45-04:00"},"careTeam":[{"provider":{"identifier":{"system":"http://hl7.org/fhir/sid/us-npi","value":"99999999"}},"role":{"coding":[{"code":"primary","display":"Primary Care Practitioner","system":"http://hl7.org/fhir/claimcareteamrole"}]},"sequence":1}],"contained":[{"id":"coverage","resourceType":"Coverage","type":{"text":"private"}}],"extension":[{"url":"https://bluebutton.cms.gov/assets/ig/StructureDefinition-bluebutton-outpatient-nch-profnl-cmpnt-chrg-amt-extension","valueMoney":{"code":"USD","system":"urn:iso:std:iso:4217","value":0}},{"url":"https://bluebutton.cms.gov/assets/ig/StructureDefinition-bluebutton-outpatient-nch-bene-ptb-ddctbl-amt-extension","valueMoney":{"code":"USD","system":"urn:iso:std:iso:4217","value":0}},{"url":"https://bluebutton.cms.gov/assets/ig/StructureDefinition-bluebutton-outpatient-nch-bene-ptb-coinsrnc-amt-extension","valueMoney":{"code":"USD","system":"urn:iso:std:iso:4217","value":0}},{"url":"https://bluebutton.cms.gov/assets/ig/StructureDefinition-bluebutton-outpatient-clm-op-prvdr-pmt-amt-extension","valueMoney":{"code":"USD","system":"urn:iso:std:iso:4217","value":0}},{"url":"https://bluebutton.cms.gov/assets/ig/StructureDefinition-bluebutton-outpatient-clm-op-bene-pmt-amt-extension","valueMoney":{"code":"USD","system":"urn:iso:std:iso:4217","value":0}},{"url":"https://bluebutton.cms.gov/assets/ig/StructureDefinition-bluebutton-outpatient-nch-bene-blood-ddctbl-lblty-am-extension","valueMoney":{"code":"USD","system":"urn:iso:std:iso:4217","value":0}},{"url":"https://bluebutton.cms.gov/assets/ig/StructureDefinition-bluebutton-outpatient-clm-mdcr-non-pmt-rsn-cd-extension","valueCoding":{"code":"N","display":"All other reasons for non-payment","system":"https://bluebutton.cms.gov/assets/ig/CodeSystem-clm-mdcr-non-pmt-rsn-cd"}},{"url":"https://bluebutton.cms.gov/assets/ig/StructureDefinition-bluebutton-outpatient-prpayamt-extension","valueMoney":{"code":"USD","system":"urn:iso:std:iso:4217","value":0}},{"url":"https://bluebutton.cms.gov/assets/ig/StructureDefinition-bluebutton-outpatient-fi-num-extension","valueIdentifier":{"system":"https://bluebutton.cms.gov/assets/ig/CodeSystem-fi-num","value":"002000"}}],"id":"976c2808-81b1-477f-a7f3-0a41247d8993","identifier":[{"system":"https://bluebutton.cms.gov/resources/variables/clm_id","value":"322c955f-f078-47b5-ab34-af8a45dfea7c"},{"system":"https://bluebutton.cms.gov/resources/identifier/claim-group","value":"99999999999"}],"insurance":{"coverage":{"reference":"#coverage"}},"item":[{"extension":[{"url":"https://bluebutton.cms.gov/assets/ig/StructureDefinition-bluebutton-outpatient-rev-cntr-ndc-qty-extension","valueQuantity":{"value":0}}],"locationCodeableConcept":{"coding":[{"code":"21","display":"Inpatient Hospital","system":"https://bluebutton.cms.gov/resources/variables/line_place_of_srvc_cd"}]},"sequence":1}],"meta":{"lastUpdated":"2019-04-09T10:20:51.859773+00:00","profile":["https://bluebutton.cms.gov/assets/ig/StructureDefinition-bluebutton-outpatient-claim"],"versionId":"MTU1NDgwNTI1MTg1OTc3MzAwMA"},"organization":{"identifier":{"value":"36a03348-cac3-4284-b8c1-ffff7032af72"}},"patient":{"reference":"Patient/00a04f0e-43ec-4c22-b0e3-541e1dabd3af"},"payment":{"amount":{"code":"USD","system":"urn:iso:std:iso:4217","value":0}},"provider":{"identifier":{"value":"80e8e6bd-5973-4681-bb2a-74927c72d003"}},"resourceType":"ExplanationOfBenefit","status":"active","totalCost":{"code":"USD","system":"urn:iso:std:iso:4217","value":125},"type":{"coding":[{"code":"71","display":"Local carrier non-durable medical equipment, prosthetics, orthotics, and supplies (DMEPOS) claim","system":"https://bluebutton.cms.gov/resources/variables/nch_clm_type_cd"},{"code":"CARRIER","display":"EOB Type","system":"https://bluebutton.cms.gov/resources/codesystem/eob-type"},{"code":"professional","display":"Claim Type","system":"http://hl7.org/fhir/ex-claimtype"},{"code":"O","display":"Part B physician/supplier claim record (processed by local carriers; can include DMEPOS services)","system":"https://bluebutton.cms.gov/resources/variables/nch_near_line_rec_ident_cd"}]}}},{"resource":{"billablePeriod":{"end":"2013-01-16T14:32:45-05:00","extension":[{"url":"https://bluebutton.cms.gov/assets/ig/StructureDefinition-bluebutton-inpatient-claim-query-cd-extension","valueCoding":{"code":"3","display":"Final Bill","system":"https://bluebutton.cms.gov/assets/ig/ValueSet-claim-query-cd"}}],"start":"2012-01-16T14:32:45-05:00"},"careTeam":[{"provider":{"identifier":{"system":"http://hl7.org/fhir/sid/us-npi","value":"99999999"}},"role":{"coding":[{"code":"primary","display":"Primary Care Practitioner","system":"http://hl7.org/fhir/claimcareteamrole"}]},"sequence":1}],"contained":[{"id":"coverage","resourceType":"Coverage","type":{"text":"private"}}],"extension":[{"url":"https://bluebutton.cms.gov/assets/ig/StructureDefinition-bluebutton-inpatient-ime-op-clm-val-amt-extension","valueMoney":{"code":"USD","system":"urn:iso:std:iso:4217","value":400}},{"url":"https://bluebutton.cms.gov/assets/ig/StructureDefinition-bluebutton-inpatient-dsh-op-clm-val-amt-extension","valueMoney":{"code":"USD","system":"urn:iso:std:iso:4217","value":0}},{"url":"https://bluebutton.cms.gov/assets/ig/StructureDefinition-bluebutton-inpatient-clm-pass-thru-per-diem-amt-extension","valueMoney":{"code":"USD","system":"urn:iso:std:iso:4217","value":0}},{"url":"https://bluebutton.cms.gov/assets/ig/StructureDefinition-bluebutton-inpatient-nch-profnl-cmpnt-chrg-amt-extension","valueMoney":{"code":"USD","system":"urn:iso:std:iso:4217","value":0}},{"url":"https://bluebutton.cms.gov/assets/ig/StructureDefinition-bluebutton-inpatient-clm-tot-pps-cptl-amt-extension","valueMoney":{"code":"USD","system":"urn:iso:std:iso:4217","value":0}},{"url":"https://bluebutton.cms.gov/assets/ig/StructureDefinition-bluebutton-inpatient-nch-bene-ip-ddctbl-amt-extension","valueMoney":{"code":"USD","system":"urn:iso:std:iso:4217","value":0}},{"url":"https://bluebutton.cms.gov/assets/ig/StructureDefinition-bluebutton-inpatient-nch-bene-pta-coinsrnc-lblty-amt-extension","valueMoney":{"code":"USD","system":"urn:iso:std:iso:4217","value":0}},{"url":"https://bluebutton.cms.gov/assets/ig/StructureDefinition-bluebutton-inpatient-nch-ip-ncvrd-chrg-amt-extension","valueMoney":{"code":"USD","system":"urn:iso:std:iso:4217","value":0}},{"url":"https://bluebutton.cms.gov/assets/ig/StructureDefinition-bluebutton-inpatient-nch-ip-tot-ddctn-amt-extension","valueMoney":{"code":"USD","system":"urn:iso:std:iso:4217","value":0}},{"url":"https://bluebutton.cms.gov/assets/ig/StructureDefinition-bluebutton-inpatient-clm-pps-cptl-dsprprtnt-shr-amt-extension","valueMoney":{"code":"USD","system":"urn:iso:std:iso:4217","value":0}},{"url":"https://bluebutton.cms.gov/assets/ig/StructureDefinition-bluebutton-inpatient-clm-pps-cptl-excptn-amt-extension","valueMoney":{"code":"USD","system":"urn:iso:std:iso:4217","value":0}},{"url":"https://bluebutton.cms.gov/assets/ig/StructureDefinition-bluebutton-inpatient-clm-pps-cptl-fsp-amt-extension","valueMoney":{"code":"USD","system":"urn:iso:std:iso:4217","value":0}},{"url":"https://bluebutton.cms.gov/assets/ig/StructureDefinition-bluebutton-inpatient-clm-pps-cptl-ime-amt-extension","valueMoney":{"code":"USD","system":"urn:iso:std:iso:4217","value":400}},{"url":"https://bluebutton.cms.gov/assets/ig/StructureDefinition-bluebutton-inpatient-clm-pps-cptl-outlier-amt-extension","valueMoney":{"code":"USD","system":"urn:iso:std:iso:4217","value":0}},{"url":"https://bluebutton.cms.gov/assets/ig/StructureDefinition-bluebutton-inpatient-clm-pps-old-cptl-hld-hrmls-amt-extension","valueMoney":{"code":"USD","system":"urn:iso:std:iso:4217","value":0}},{"url":"https://bluebutton.cms.gov/assets/ig/StructureDefinition-bluebutton-inpatient-nch-drg-outlier-aprvd-pmt-amt-extension","valueMoney":{"code":"USD","system":"urn:iso:std:iso:4217","value":0}},{"url":"https://bluebutton.cms.gov/assets/ig/StructureDefinition-bluebutton-inpatient-nch-bene-blood-ddctbl-lblty-am-extension","valueMoney":{"code":"USD","system":"urn:iso:std:iso:4217","value":0}},{"url":"https://bluebutton.cms.gov/assets/ig/StructureDefinition-bluebutton-inpatient-clm-mdcr-non-pmt-rsn-cd-extension","valueCoding":{"code":"N","display":"All other reasons for non-payment","system":"https://bluebutton.cms.gov/assets/ig/CodeSystem-clm-mdcr-non-pmt-rsn-cd"}},{"url":"https://bluebutton.cms.gov/assets/ig/StructureDefinition-bluebutton-inpatient-prpayamt-extension","valueMoney":{"code":"USD","system":"urn:iso:std:iso:4217","value":0}},{"url":"https://bluebutton.cms.gov/assets/ig/StructureDefinition-bluebutton-inpatient-fi-num-extension","valueIdentifier":{"system":"https://bluebutton.cms.gov/assets/ig/CodeSystem-fi-num","value":"002000"}}],"id":"9e915f88-2e70-403f-b3dc-48be6a12ccbc","identifier":[{"system":"https://bluebutton.cms.gov/resources/variables/clm_id","value":"0bcf83f8-ed02-42e7-9347-4ec29fe813ef"},{"system":"https://bluebutton.cms.gov/resources/identifier/claim-group","value":"99999999999"}],"insurance":{"coverage":{"reference":"#coverage"}},"item":[{"extension":[{"url":"https://bluebutton.cms.gov/assets/ig/StructureDefinition-bluebutton-inpatient-rev-cntr-ndc-qty-extension","valueQuantity":{"value":0}}],"locationCodeableConcept":{"coding":[{"code":"21","display":"Inpatient Hospital","system":"https://bluebutton.cms.gov/resources/variables/line_place_of_srvc_cd"}]},"sequence":1}],"meta":{"lastUpdated":"2019-04-09T10:20:47.783915+00:00","profile":["https://bluebutton.cms.gov/assets/ig/StructureDefinition-bluebutton-inpatient-claim"],"versionId":"MTU1NDgwNTI0Nzc4MzkxNTAwMA"},"organization":{"identifier":{"value":"36a03348-cac3-4284-b8c1-ffff7032af72"}},"patient":{"reference":"Patient/00a04f0e-43ec-4c22-b0e3-541e1dabd3af"},"payment":{"amount":{"code":"USD","system":"urn:iso:std:iso:4217","value":0}},"provider":{"identifier":{"value":"80e8e6bd-5973-4681-bb2a-74927c72d003"}},"resourceType":"ExplanationOfBenefit","status":"active","totalCost":{"code":"USD","system":"urn:iso:std:iso:4217","value":75},"type":{"coding":[{"code":"71","display":"Local carrier non-durable medical equipment, prosthetics, orthotics, and supplies (DMEPOS) claim","system":"https://bluebutton.cms.gov/resources/variables/nch_clm_type_cd"},{"code":"CARRIER","display":"EOB Type","system":"https://bluebutton.cms.gov/resources/codesystem/eob-type"},{"code":"professional","display":"Claim Type","system":"http://hl7.org/fhir/ex-claimtype"},{"code":"O","display":"Part B physician/supplier claim record (processed by local carriers; can include DMEPOS services)","system":"https://bluebutton.cms.gov/resources/variables/nch_near_line_rec_ident_cd"}]}}},{"resource":{"billablePeriod":{"end":"2018-04-01T15:47:45-04:00","start":"2017-04-01T15:47:45-04:00"},"careTeam":[{"provider":{"identifier":{"system":"http://hl7.org/fhir/sid/us-npi","value":"99999999"}},"role":{"coding":[{"code":"primary","display":"Primary Care Practitioner","system":"http://hl7.org/fhir/claimcareteamrole"}]},"sequence":1}],"claim":{"reference":"Claim/dc65d2df-0fcc-4e56-8264-a9efaaa5e619"},"contained":[{"id":"1","intent":"order","recipient":[{"identifier":{"system":"http://hl7.org/fhir/sid/us-npi","value":"99999999"}}],"requester":{"agent":{"identifier":{"system":"http://hl7.org/fhir/sid/us-npi","value":"99999999"}}},"resourceType":"ReferralRequest","status":"completed","subject":{"reference":"Patient/00a04f0e-43ec-4c22-b0e3-541e1dabd3af"}},{"id":"coverage","resourceType":"Coverage","type":{"text":"private"}}],"created":"2017-04-01T15:47:45-04:00","id":"a0c5bd2e-8366-4e14-8538-26c2d1df0ea3","identifier":[{"system":"https://bluebutton.cms.gov/resources/variables/clm_id","value":"dc65d2df-0fcc-4e56-8264-a9efaaa5e619"},{"system":"https://bluebutton.cms.gov/resources/identifier/claim-group","value":"99999999999"}],"insurance":{"coverage":{"reference":"#coverage"}},"item":[{"category":{"coding":[{"code":"1","display":"Medical care","system":"https://bluebutton.cms.gov/resources/variables/line_cms_type_srvc_cd"}]},"encounter":[{"reference":"Encounter/d9cd13df-a464-44e9-8fc8-e151ad466b5d"}],"locationCodeableConcept":{"coding":[{"code":"21","display":"Inpatient Hospital","system":"https://bluebutton.cms.gov/resources/variables/line_place_of_srvc_cd"}]},"sequence":1,"servicedPeriod":{"end":"2017-04-01T15:47:45-04:00","start":"2017-04-01T15:32:45-04:00"}},{"adjudication":[{"amount":{"code":"USD","system":"urn:iso:std:iso:4217","value":28.104000000000003},"category":{"coding":[{"code":"https://bluebutton.cms.gov/resources/variables/line_coinsrnc_amt","display":"Line Beneficiary Coinsurance Amount","system":"https://bluebutton.cms.gov/resources/codesystem/adjudication"}]}},{"amount":{"code":"USD","system":"urn:iso:std:iso:4217","value":112.41600000000001},"category":{"coding":[{"code":"https://bluebutton.cms.gov/resources/variables/line_prvdr_pmt_amt","display":"Line Provider Payment Amount","system":"https://bluebutton.cms.gov/resources/codesystem/adjudication"}]}},{"amount":{"code":"USD","system":"urn:iso:std:iso:4217","value":140.52},"category":{"coding":[{"code":"https://bluebutton.cms.gov/resources/variables/line_sbmtd_chrg_amt","display":"Line Submitted Charge Amount","system":"https://bluebutton.cms.gov/resources/codesystem/adjudication"}]}},{"amount":{"code":"USD","system":"urn:iso:std:iso:4217","value":140.52},"category":{"coding":[{"code":"https://bluebutton.cms.gov/resources/variables/line_alowd_chrg_amt","display":"Line Allowed Charge Amount","system":"https://bluebutton.cms.gov/resources/codesystem/adjudication"}]}},{"amount":{"code":"USD","system":"urn:iso:std:iso:4217","value":0},"category":{"coding":[{"code":"https://bluebutton.cms.gov/resources/variables/line_bene_ptb_ddctbl_amt","display":"Line Beneficiary Part B Deductible Amount","system":"https://bluebutton.cms.gov/resources/codesystem/adjudication"}]}},{"category":{"coding":[{"code":"https://bluebutton.cms.gov/resources/variables/line_prcsg_ind_cd","display":"Line Processing Indicator Code","system":"https://bluebutton.cms.gov/resources/codesystem/adjudication"}]},"reason":{"coding":[{"code":"A","display":"Allowed","system":"https://bluebutton.cms.gov/resources/variables/line_prcsg_ind_cd"}]}}],"category":{"coding":[{"code":"1","display":"Medical care","system":"https://bluebutton.cms.gov/resources/variables/line_cms_type_srvc_cd"}]},"informationLinkId":[1],"locationCodeableConcept":{"coding":[{"code":"21","display":"Inpatient Hospital","system":"https://bluebutton.cms.gov/resources/variables/line_place_of_srvc_cd"}]},"net":{"code":"USD","system":"urn:iso:std:iso:4217","value":140.52},"sequence":2,"servicedPeriod":{"end":"2017-04-01T15:47:45-04:00","start":"2017-04-01T15:32:45-04:00"}},{"adjudication":[{"amount":{"code":"USD","system":"urn:iso:std:iso:4217","value":28.104000000000003},"category":{"coding":[{"code":"https://bluebutton.cms.gov/resources/variables/line_coinsrnc_amt","display":"Line Beneficiary Coinsurance Amount","system":"https://bluebutton.cms.gov/resources/codesystem/adjudication"}]}},{"amount":{"code":"USD","system":"urn:iso:std:iso:4217","value":112.41600000000001},"category":{"coding":[{"code":"https://bluebutton.cms.gov/resources/variables/line_prvdr_pmt_amt","display":"Line Provider Payment Amount","system":"https://bluebutton.cms.gov/resources/codesystem/adjudication"}]}},{"amount":{"code":"USD","system":"urn:iso:std:iso:4217","value":140.52},"category":{"coding":[{"code":"https://bluebutton.cms.gov/resources/variables/line_sbmtd_chrg_amt","display":"Line Submitted Charge Amount","system":"https://bluebutton.cms.gov/resources/codesystem/adjudication"}]}},{"amount":{"code":"USD","system":"urn:iso:std:iso:4217","value":140.52},"category":{"coding":[{"code":"https://bluebutton.cms.gov/resources/variables/line_alowd_chrg_amt","display":"Line Allowed Charge Amount","system":"https://bluebutton.cms.gov/resources/codesystem/adjudication"}]}},{"amount":{"code":"USD","system":"urn:iso:std:iso:4217","value":0},"category":{"coding":[{"code":"https://bluebutton.cms.gov/resources/variables/line_bene_ptb_ddctbl_amt","display":"Line Beneficiary Part B Deductible Amount","system":"https://bluebutton.cms.gov/resources/codesystem/adjudication"}]}},{"category":{"coding":[{"code":"https://bluebutton.cms.gov/resources/variables/line_prcsg_ind_cd","display":"Line Processing Indicator Code","system":"https://bluebutton.cms.gov/resources/codesystem/adjudication"}]},"reason":{"coding":[{"code":"A","display":"Allowed","system":"https://bluebutton.cms.gov/resources/variables/line_prcsg_ind_cd"}]}}],"category":{"coding":[{"code":"1","display":"Medical care","system":"https://bluebutton.cms.gov/resources/variables/line_cms_type_srvc_cd"}]},"informationLinkId":[2],"locationCodeableConcept":{"coding":[{"code":"21","display":"Inpatient Hospital","system":"https://bluebutton.cms.gov/resources/variables/line_place_of_srvc_cd"}]},"net":{"code":"USD","system":"urn:iso:std:iso:4217","value":140.52},"sequence":3,"servicedPeriod":{"end":"2017-04-01T15:47:45-04:00","start":"2017-04-01T15:32:45-04:00"}},{"adjudication":[{"amount":{"code":"USD","system":"urn:iso:std:iso:4217","value":28.104000000000003},"category":{"coding":[{"code":"https://bluebutton.cms.gov/resources/variables/line_coinsrnc_amt","display":"Line Beneficiary Coinsurance Amount","system":"https://bluebutton.cms.gov/resources/codesystem/adjudication"}]}},{"amount":{"code":"USD","system":"urn:iso:std:iso:4217","value":112.41600000000001},"category":{"coding":[{"code":"https://bluebutton.cms.gov/resources/variables/line_prvdr_pmt_amt","display":"Line Provider Payment Amount","system":"https://bluebutton.cms.gov/resources/codesystem/adjudication"}]}},{"amount":{"code":"USD","system":"urn:iso:std:iso:4217","value":140.52},"category":{"coding":[{"code":"https://bluebutton.cms.gov/resources/variables/line_sbmtd_chrg_amt","display":"Line Submitted Charge Amount","system":"https://bluebutton.cms.gov/resources/codesystem/adjudication"}]}},{"amount":{"code":"USD","system":"urn:iso:std:iso:4217","value":140.52},"category":{"coding":[{"code":"https://bluebutton.cms.gov/resources/variables/line_alowd_chrg_amt","display":"Line Allowed Charge Amount","system":"https://bluebutton.cms.gov/resources/codesystem/adjudication"}]}},{"amount":{"code":"USD","system":"urn:iso:std:iso:4217","value":0},"category":{"coding":[{"code":"https://bluebutton.cms.gov/resources/variables/line_bene_ptb_ddctbl_amt","display":"Line Beneficiary Part B Deductible Amount","system":"https://bluebutton.cms.gov/resources/codesystem/adjudication"}]}},{"category":{"coding":[{"code":"https://bluebutton.cms.gov/resources/variables/line_prcsg_ind_cd","display":"Line Processing Indicator Code","system":"https://bluebutton.cms.gov/resources/codesystem/adjudication"}]},"reason":{"coding":[{"code":"A","display":"Allowed","system":"https://bluebutton.cms.gov/resources/variables/line_prcsg_ind_cd"}]}}],"category":{"coding":[{"code":"1","display":"Medical care","system":"https://bluebutton.cms.gov/resources/variables/line_cms_type_srvc_cd"}]},"informationLinkId":[3],"locationCodeableConcept":{"coding":[{"code":"21","display":"Inpatient Hospital","system":"https://bluebutton.cms.gov/resources/variables/line_place_of_srvc_cd"}]},"net":{"code":"USD","system":"urn:iso:std:iso:4217","value":140.52},"sequence":4,"servicedPeriod":{"end":"2017-04-01T15:47:45-04:00","start":"2017-04-01T15:32:45-04:00"}},{"adjudication":[{"amount":{"code":"USD","system":"urn:iso:std:iso:4217","value":28.104000000000003},"category":{"coding":[{"code":"https://bluebutton.cms.gov/resources/variables/line_coinsrnc_amt","display":"Line Beneficiary Coinsurance Amount","system":"https://bluebutton.cms.gov/resources/codesystem/adjudication"}]}},{"amount":{"code":"USD","system":"urn:iso:std:iso:4217","value":112.41600000000001},"category":{"coding":[{"code":"https://bluebutton.cms.gov/resources/variables/line_prvdr_pmt_amt","display":"Line Provider Payment Amount","system":"https://bluebutton.cms.gov/resources/codesystem/adjudication"}]}},{"amount":{"code":"USD","system":"urn:iso:std:iso:4217","value":140.52},"category":{"coding":[{"code":"https://bluebutton.cms.gov/resources/variables/line_sbmtd_chrg_amt","display":"Line Submitted Charge Amount","system":"https://bluebutton.cms.gov/resources/codesystem/adjudication"}]}},{"amount":{"code":"USD","system":"urn:iso:std:iso:4217","value":140.52},"category":{"coding":[{"code":"https://bluebutton.cms.gov/resources/variables/line_alowd_chrg_amt","display":"Line Allowed Charge Amount","system":"https://bluebutton.cms.gov/resources/codesystem/adjudication"}]}},{"amount":{"code":"USD","system":"urn:iso:std:iso:4217","value":0},"category":{"coding":[{"code":"https://bluebutton.cms.gov/resources/variables/line_bene_ptb_ddctbl_amt","display":"Line Beneficiary Part B Deductible Amount","system":"https://bluebutton.cms.gov/resources/codesystem/adjudication"}]}},{"category":{"coding":[{"code":"https://bluebutton.cms.gov/resources/variables/line_prcsg_ind_cd","display":"Line Processing Indicator Code","system":"https://bluebutton.cms.gov/resources/codesystem/adjudication"}]},"reason":{"coding":[{"code":"A","display":"Allowed","system":"https://bluebutton.cms.gov/resources/variables/line_prcsg_ind_cd"}]}}],"category":{"coding":[{"code":"1","display":"Medical care","system":"https://bluebutton.cms.gov/resources/variables/line_cms_type_srvc_cd"}]},"informationLinkId":[4],"locationCodeableConcept":{"coding":[{"code":"21","display":"Inpatient Hospital","system":"https://bluebutton.cms.gov/resources/variables/line_place_of_srvc_cd"}]},"net":{"code":"USD","system":"urn:iso:std:iso:4217","value":140.52},"sequence":5,"servicedPeriod":{"end":"2017-04-01T15:47:45-04:00","start":"2017-04-01T15:32:45-04:00"}}],"meta":{"lastUpdated":"2019-04-09T10:20:52.926797+00:00","versionId":"MTU1NDgwNTI1MjkyNjc5NzAwMA"},"organization":{"identifier":{"value":"36a03348-cac3-4284-b8c1-ffff7032af72"}},"patient":{"reference":"Patient/00a04f0e-43ec-4c22-b0e3-541e1dabd3af"},"payment":{"amount":{"code":"USD","system":"urn:iso:std:iso:4217","value":449.66400000000004}},"provider":{"identifier":{"value":"80e8e6bd-5973-4681-bb2a-74927c72d003"}},"referral":{"reference":"#1"},"resourceType":"ExplanationOfBenefit","status":"active","totalCost":{"code":"USD","system":"urn:iso:std:iso:4217","value":687.08},"type":{"coding":[{"code":"71","display":"Local carrier non-durable medical equipment, prosthetics, orthotics, and supplies (DMEPOS) claim","system":"https://bluebutton.cms.gov/resources/variables/nch_clm_type_cd"},{"code":"CARRIER","display":"EOB Type","system":"https://bluebutton.cms.gov/resources/codesystem/eob-type"},{"code":"professional","display":"Claim Type","system":"http://hl7.org/fhir/ex-claimtype"},{"code":"O","display":"Part B physician/supplier claim record (processed by local carriers; can include DMEPOS services)","system":"https://bluebutton.cms.gov/resources/variables/nch_near_line_rec_ident_cd"}]}}},{"resource":{"billablePeriod":{"end":"2010-03-12T15:47:45-05:00","extension":[{"url":"https://bluebutton.cms.gov/assets/ig/StructureDefinition-bluebutton-inpatient-claim-query-cd-extension","valueCoding":{"code":"3","display":"Final Bill","system":"https://bluebutton.cms.gov/assets/ig/ValueSet-claim-query-cd"}}],"start":"2009-03-12T15:47:45-04:00"},"careTeam":[{"provider":{"identifier":{"system":"http://hl7.org/fhir/sid/us-npi","value":"99999999"}},"role":{"coding":[{"code":"primary","display":"Primary Care Practitioner","system":"http://hl7.org/fhir/claimcareteamrole"}]},"sequence":1}],"contained":[{"id":"coverage","resourceType":"Coverage","type":{"text":"private"}}],"extension":[{"url":"https://bluebutton.cms.gov/assets/ig/StructureDefinition-bluebutton-inpatient-ime-op-clm-val-amt-extension","valueMoney":{"code":"USD","system":"urn:iso:std:iso:4217","value":400}},{"url":"https://bluebutton.cms.gov/assets/ig/StructureDefinition-bluebutton-inpatient-dsh-op-clm-val-amt-extension","valueMoney":{"code":"USD","system":"urn:iso:std:iso:4217","value":0}},{"url":"https://bluebutton.cms.gov/assets/ig/StructureDefinition-bluebutton-inpatient-clm-pass-thru-per-diem-amt-extension","valueMoney":{"code":"USD","system":"urn:iso:std:iso:4217","value":0}},{"url":"https://bluebutton.cms.gov/assets/ig/StructureDefinition-bluebutton-inpatient-nch-profnl-cmpnt-chrg-amt-extension","valueMoney":{"code":"USD","system":"urn:iso:std:iso:4217","value":0}},{"url":"https://bluebutton.cms.gov/assets/ig/StructureDefinition-bluebutton-inpatient-clm-tot-pps-cptl-amt-extension","valueMoney":{"code":"USD","system":"urn:iso:std:iso:4217","value":0}},{"url":"https://bluebutton.cms.gov/assets/ig/StructureDefinition-bluebutton-inpatient-nch-bene-ip-ddctbl-amt-extension","valueMoney":{"code":"USD","system":"urn:iso:std:iso:4217","value":0}},{"url":"https://bluebutton.cms.gov/assets/ig/StructureDefinition-bluebutton-inpatient-nch-bene-pta-coinsrnc-lblty-amt-extension","valueMoney":{"code":"USD","system":"urn:iso:std:iso:4217","value":0}},{"url":"https://bluebutton.cms.gov/assets/ig/StructureDefinition-bluebutton-inpatient-nch-ip-ncvrd-chrg-amt-extension","valueMoney":{"code":"USD","system":"urn:iso:std:iso:4217","value":0}},{"url":"https://bluebutton.cms.gov/assets/ig/StructureDefinition-bluebutton-inpatient-nch-ip-tot-ddctn-amt-extension","valueMoney":{"code":"USD","system":"urn:iso:std:iso:4217","value":0}},{"url":"https://bluebutton.cms.gov/assets/ig/StructureDefinition-bluebutton-inpatient-clm-pps-cptl-dsprprtnt-shr-amt-extension","valueMoney":{"code":"USD","system":"urn:iso:std:iso:4217","value":0}},{"url":"https://bluebutton.cms.gov/assets/ig/StructureDefinition-bluebutton-inpatient-clm-pps-cptl-excptn-amt-extension","valueMoney":{"code":"USD","system":"urn:iso:std:iso:4217","value":0}},{"url":"https://bluebutton.cms.gov/assets/ig/StructureDefinition-bluebutton-inpatient-clm-pps-cptl-fsp-amt-extension","valueMoney":{"code":"USD","system":"urn:iso:std:iso:4217","value":0}},{"url":"https://bluebutton.cms.gov/assets/ig/StructureDefinition-bluebutton-inpatient-clm-pps-cptl-ime-amt-extension","valueMoney":{"code":"USD","system":"urn:iso:std:iso:4217","value":400}},{"url":"https://bluebutton.cms.gov/assets/ig/StructureDefinition-bluebutton-inpatient-clm-pps-cptl-outlier-amt-extension","valueMoney":{"code":"USD","system":"urn:iso:std:iso:4217","value":0}},{"url":"https://bluebutton.cms.gov/assets/ig/StructureDefinition-bluebutton-inpatient-clm-pps-old-cptl-hld-hrmls-amt-extension","valueMoney":{"code":"USD","system":"urn:iso:std:iso:4217","value":0}},{"url":"https://bluebutton.cms.gov/assets/ig/StructureDefinition-bluebutton-inpatient-nch-drg-outlier-aprvd-pmt-amt-extension","valueMoney":{"code":"USD","system":"urn:iso:std:iso:4217","value":0}},{"url":"https://bluebutton.cms.gov/assets/ig/StructureDefinition-bluebutton-inpatient-nch-bene-blood-ddctbl-lblty-am-extension","valueMoney":{"code":"USD","system":"urn:iso:std:iso:4217","value":0}},{"url":"https://bluebutton.cms.gov/assets/ig/StructureDefinition-bluebutton-inpatient-clm-mdcr-non-pmt-rsn-cd-extension","valueCoding":{"code":"N","display":"All other reasons for non-payment","system":"https://bluebutton.cms.gov/assets/ig/CodeSystem-clm-mdcr-non-pmt-rsn-cd"}},{"url":"https://bluebutton.cms.gov/assets/ig/StructureDefinition-bluebutton-inpatient-prpayamt-extension","valueMoney":{"code":"USD","system":"urn:iso:std:iso:4217","value":0}},{"url":"https://bluebutton.cms.gov/assets/ig/StructureDefinition-bluebutton-inpatient-fi-num-extension","valueIdentifier":{"system":"https://bluebutton.cms.gov/assets/ig/CodeSystem-fi-num","value":"002000"}}],"id":"a2c201db-c6d4-4379-b870-0032d896db33","identifier":[{"system":"https://bluebutton.cms.gov/resources/variables/clm_id","value":"9546f30d-6bbf-48e0-aaea-0ad942770f2c"},{"system":"https://bluebutton.cms.gov/resources/identifier/claim-group","value":"99999999999"}],"insurance":{"coverage":{"reference":"#coverage"}},"item":[{"extension":[{"url":"https://bluebutton.cms.gov/assets/ig/StructureDefinition-bluebutton-inpatient-rev-cntr-ndc-qty-extension","valueQuantity":{"value":0}}],"locationCodeableConcept":{"coding":[{"code":"21","display":"Inpatient Hospital","system":"https://bluebutton.cms.gov/resources/variables/line_place_of_srvc_cd"}]},"sequence":1},{"adjudication":[{"amount":{"code":"USD","system":"urn:iso:std:iso:4217","value":3672.146},"category":{"coding":[{"code":"https://bluebutton.cms.gov/resources/variables/line_coinsrnc_amt","display":"Line Beneficiary Coinsurance Amount","system":"https://bluebutton.cms.gov/resources/codesystem/adjudication"}]}},{"amount":{"code":"USD","system":"urn:iso:std:iso:4217","value":14688.584},"category":{"coding":[{"code":"https://bluebutton.cms.gov/resources/variables/line_prvdr_pmt_amt","display":"Line Provider Payment Amount","system":"https://bluebutton.cms.gov/resources/codesystem/adjudication"}]}},{"amount":{"code":"USD","system":"urn:iso:std:iso:4217","value":18360.73},"category":{"coding":[{"code":"https://bluebutton.cms.gov/resources/variables/line_sbmtd_chrg_amt","display":"Line Submitted Charge Amount","system":"https://bluebutton.cms.gov/resources/codesystem/adjudication"}]}},{"amount":{"code":"USD","system":"urn:iso:std:iso:4217","value":18360.73},"category":{"coding":[{"code":"https://bluebutton.cms.gov/resources/variables/line_alowd_chrg_amt","display":"Line Allowed Charge Amount","system":"https://bluebutton.cms.gov/resources/codesystem/adjudication"}]}},{"amount":{"code":"USD","system":"urn:iso:std:iso:4217","value":0},"category":{"coding":[{"code":"https://bluebutton.cms.gov/resources/variables/line_bene_ptb_ddctbl_amt","display":"Line Beneficiary Part B Deductible Amount","system":"https://bluebutton.cms.gov/resources/codesystem/adjudication"}]}},{"category":{"coding":[{"code":"https://bluebutton.cms.gov/resources/variables/line_prcsg_ind_cd","display":"Line Processing Indicator Code","system":"https://bluebutton.cms.gov/resources/codesystem/adjudication"}]}}],"extension":[{"url":"https://bluebutton.cms.gov/assets/ig/StructureDefinition-bluebutton-inpatient-rev-cntr-ndc-qty-extension","valueQuantity":{"value":0}}],"locationCodeableConcept":{"coding":[{"code":"21","display":"Inpatient Hospital","system":"https://bluebutton.cms.gov/resources/variables/line_place_of_srvc_cd"}]},"sequence":2,"service":{"coding":[{"code":"65546002","system":"http://snomed.info/sct","version":"v1"}]}}],"meta":{"lastUpdated":"2019-04-09T10:20:44.675703+00:00","profile":["https://bluebutton.cms.gov/assets/ig/StructureDefinition-bluebutton-inpatient-claim"],"versionId":"MTU1NDgwNTI0NDY3NTcwMzAwMA"},"organization":{"identifier":{"value":"36a03348-cac3-4284-b8c1-ffff7032af72"}},"patient":{"reference":"Patient/00a04f0e-43ec-4c22-b0e3-541e1dabd3af"},"payment":{"amount":{"code":"USD","system":"urn:iso:std:iso:4217","value":14688.584}},"provider":{"identifier":{"value":"80e8e6bd-5973-4681-bb2a-74927c72d003"}},"resourceType":"ExplanationOfBenefit","status":"active","totalCost":{"code":"USD","system":"urn:iso:std:iso:4217","value":18435.73},"type":{"coding":[{"code":"71","display":"Local carrier non-durable medical equipment, prosthetics, orthotics, and supplies (DMEPOS) claim","system":"https://bluebutton.cms.gov/resources/variables/nch_clm_type_cd"},{"code":"CARRIER","display":"EOB Type","system":"https://bluebutton.cms.gov/resources/codesystem/eob-type"},{"code":"professional","display":"Claim Type","system":"http://hl7.org/fhir/ex-claimtype"},{"code":"O","display":"Part B physician/supplier claim record (processed by local carriers; can include DMEPOS services)","system":"https://bluebutton.cms.gov/resources/variables/nch_near_line_rec_ident_cd"}]}}},{"resource":{"billablePeriod":{"end":"2011-04-24T15:47:45-04:00","start":"2010-04-24T15:47:45-04:00"},"careTeam":[{"provider":{"identifier":{"system":"http://hl7.org/fhir/sid/us-npi","value":"99999999"}},"role":{"coding":[{"code":"primary","display":"Primary Care Practitioner","system":"http://hl7.org/fhir/claimcareteamrole"}]},"sequence":1}],"claim":{"reference":"Claim/82ea4b0b-5fac-404b-a3e3-8d9a655c7761"},"contained":[{"id":"1","intent":"order","recipient":[{"identifier":{"system":"http://hl7.org/fhir/sid/us-npi","value":"99999999"}}],"requester":{"agent":{"identifier":{"system":"http://hl7.org/fhir/sid/us-npi","value":"99999999"}}},"resourceType":"ReferralRequest","status":"completed","subject":{"reference":"Patient/00a04f0e-43ec-4c22-b0e3-541e1dabd3af"}},{"id":"coverage","resourceType":"Coverage","type":{"text":"private"}}],"created":"2010-04-24T15:47:45-04:00","id":"a68313ac-7074-45dc-b240-90da076627f9","identifier":[{"system":"https://bluebutton.cms.gov/resources/variables/clm_id","value":"82ea4b0b-5fac-404b-a3e3-8d9a655c7761"},{"system":"https://bluebutton.cms.gov/resources/identifier/claim-group","value":"99999999999"}],"insurance":{"coverage":{"reference":"#coverage"}},"item":[{"category":{"coding":[{"code":"1","display":"Medical care","system":"https://bluebutton.cms.gov/resources/variables/line_cms_type_srvc_cd"}]},"encounter":[{"reference":"Encounter/f7c23241-f81d-4c57-bb48-ebd7251aafbb"}],"locationCodeableConcept":{"coding":[{"code":"21","display":"Inpatient Hospital","system":"https://bluebutton.cms.gov/resources/variables/line_place_of_srvc_cd"}]},"sequence":1,"servicedPeriod":{"end":"2010-04-24T15:47:45-04:00","start":"2010-04-24T15:32:45-04:00"}},{"adjudication":[{"amount":{"code":"USD","system":"urn:iso:std:iso:4217","value":28.104000000000003},"category":{"coding":[{"code":"https://bluebutton.cms.gov/resources/variables/line_coinsrnc_amt","display":"Line Beneficiary Coinsurance Amount","system":"https://bluebutton.cms.gov/resources/codesystem/adjudication"}]}},{"amount":{"code":"USD","system":"urn:iso:std:iso:4217","value":112.41600000000001},"category":{"coding":[{"code":"https://bluebutton.cms.gov/resources/variables/line_prvdr_pmt_amt","display":"Line Provider Payment Amount","system":"https://bluebutton.cms.gov/resources/codesystem/adjudication"}]}},{"amount":{"code":"USD","system":"urn:iso:std:iso:4217","value":140.52},"category":{"coding":[{"code":"https://bluebutton.cms.gov/resources/variables/line_sbmtd_chrg_amt","display":"Line Submitted Charge Amount","system":"https://bluebutton.cms.gov/resources/codesystem/adjudication"}]}},{"amount":{"code":"USD","system":"urn:iso:std:iso:4217","value":140.52},"category":{"coding":[{"code":"https://bluebutton.cms.gov/resources/variables/line_alowd_chrg_amt","display":"Line Allowed Charge Amount","system":"https://bluebutton.cms.gov/resources/codesystem/adjudication"}]}},{"amount":{"code":"USD","system":"urn:iso:std:iso:4217","value":0},"category":{"coding":[{"code":"https://bluebutton.cms.gov/resources/variables/line_bene_ptb_ddctbl_amt","display":"Line Beneficiary Part B Deductible Amount","system":"https://bluebutton.cms.gov/resources/codesystem/adjudication"}]}},{"category":{"coding":[{"code":"https://bluebutton.cms.gov/resources/variables/line_prcsg_ind_cd","display":"Line Processing Indicator Code","system":"https://bluebutton.cms.gov/resources/codesystem/adjudication"}]},"reason":{"coding":[{"code":"A","display":"Allowed","system":"https://bluebutton.cms.gov/resources/variables/line_prcsg_ind_cd"}]}}],"category":{"coding":[{"code":"1","display":"Medical care","system":"https://bluebutton.cms.gov/resources/variables/line_cms_type_srvc_cd"}]},"informationLinkId":[1],"locationCodeableConcept":{"coding":[{"code":"21","display":"Inpatient Hospital","system":"https://bluebutton.cms.gov/resources/variables/line_place_of_srvc_cd"}]},"net":{"code":"USD","system":"urn:iso:std:iso:4217","value":140.52},"sequence":2,"servicedPeriod":{"end":"2010-04-24T15:47:45-04:00","start":"2010-04-24T15:32:45-04:00"}}],"meta":{"lastUpdated":"2019-04-09T10:20:45.770442+00:00","versionId":"MTU1NDgwNTI0NTc3MDQ0MjAwMA"},"organization":{"identifier":{"value":"36a03348-cac3-4284-b8c1-ffff7032af72"}},"patient":{"reference":"Patient/00a04f0e-43ec-4c22-b0e3-541e1dabd3af"},"payment":{"amount":{"code":"USD","system":"urn:iso:std:iso:4217","value":112.41600000000001}},"provider":{"identifier":{"value":"80e8e6bd-5973-4681-bb2a-74927c72d003"}},"referral":{"reference":"#1"},"resourceType":"ExplanationOfBenefit","status":"active","totalCost":{"code":"USD","system":"urn:iso:std:iso:4217","value":265.52},"type":{"coding":[{"code":"71","display":"Local carrier non-durable medical equipment, prosthetics, orthotics, and supplies (DMEPOS) claim","system":"https://bluebutton.cms.gov/resources/variables/nch_clm_type_cd"},{"code":"CARRIER","display":"EOB Type","system":"https://bluebutton.cms.gov/resources/codesystem/eob-type"},{"code":"professional","display":"Claim Type","system":"http://hl7.org/fhir/ex-claimtype"},{"code":"O","display":"Part B physician/supplier claim record (processed by local carriers; can include DMEPOS services)","system":"https://bluebutton.cms.gov/resources/variables/nch_near_line_rec_ident_cd"}]}}},{"resource":{"billablePeriod":{"end":"2016-11-23T14:47:45-05:00","extension":[{"url":"https://bluebutton.cms.gov/assets/ig/StructureDefinition-bluebutton-outpatient-claim-query-cd-extension","valueCoding":{"code":"3","display":"Final Bill","system":"https://bluebutton.cms.gov/assets/ig/ValueSet-claim-query-cd"}}],"start":"2015-11-23T14:47:45-05:00"},"careTeam":[{"provider":{"identifier":{"system":"http://hl7.org/fhir/sid/us-npi","value":"99999999"}},"role":{"coding":[{"code":"primary","display":"Primary Care Practitioner","system":"http://hl7.org/fhir/claimcareteamrole"}]},"sequence":1}],"contained":[{"id":"coverage","resourceType":"Coverage","type":{"text":"private"}}],"extension":[{"url":"https://bluebutton.cms.gov/assets/ig/StructureDefinition-bluebutton-outpatient-nch-profnl-cmpnt-chrg-amt-extension","valueMoney":{"code":"USD","system":"urn:iso:std:iso:4217","value":0}},{"url":"https://bluebutton.cms.gov/assets/ig/StructureDefinition-bluebutton-outpatient-nch-bene-ptb-ddctbl-amt-extension","valueMoney":{"code":"USD","system":"urn:iso:std:iso:4217","value":0}},{"url":"https://bluebutton.cms.gov/assets/ig/StructureDefinition-bluebutton-outpatient-nch-bene-ptb-coinsrnc-amt-extension","valueMoney":{"code":"USD","system":"urn:iso:std:iso:4217","value":0}},{"url":"https://bluebutton.cms.gov/assets/ig/StructureDefinition-bluebutton-outpatient-clm-op-prvdr-pmt-amt-extension","valueMoney":{"code":"USD","system":"urn:iso:std:iso:4217","value":0}},{"url":"https://bluebutton.cms.gov/assets/ig/StructureDefinition-bluebutton-outpatient-clm-op-bene-pmt-amt-extension","valueMoney":{"code":"USD","system":"urn:iso:std:iso:4217","value":0}},{"url":"https://bluebutton.cms.gov/assets/ig/StructureDefinition-bluebutton-outpatient-nch-bene-blood-ddctbl-lblty-am-extension","valueMoney":{"code":"USD","system":"urn:iso:std:iso:4217","value":0}},{"url":"https://bluebutton.cms.gov/assets/ig/StructureDefinition-bluebutton-outpatient-clm-mdcr-non-pmt-rsn-cd-extension","valueCoding":{"code":"N","display":"All other reasons for non-payment","system":"https://bluebutton.cms.gov/assets/ig/CodeSystem-clm-mdcr-non-pmt-rsn-cd"}},{"url":"https://bluebutton.cms.gov/assets/ig/StructureDefinition-bluebutton-outpatient-prpayamt-extension","valueMoney":{"code":"USD","system":"urn:iso:std:iso:4217","value":0}},{"url":"https://bluebutton.cms.gov/assets/ig/StructureDefinition-bluebutton-outpatient-fi-num-extension","valueIdentifier":{"system":"https://bluebutton.cms.gov/assets/ig/CodeSystem-fi-num","value":"002000"}}],"id":"a8c1504d-cd73-4080-9b2d-251ba3a79116","identifier":[{"system":"https://bluebutton.cms.gov/resources/variables/clm_id","value":"34663b67-2c6e-40ac-b58a-9e3776bd35c9"},{"system":"https://bluebutton.cms.gov/resources/identifier/claim-group","value":"99999999999"}],"insurance":{"coverage":{"reference":"#coverage"}},"item":[{"extension":[{"url":"https://bluebutton.cms.gov/assets/ig/StructureDefinition-bluebutton-outpatient-rev-cntr-ndc-qty-extension","valueQuantity":{"value":0}}],"locationCodeableConcept":{"coding":[{"code":"21","display":"Inpatient Hospital","system":"https://bluebutton.cms.gov/resources/variables/line_place_of_srvc_cd"}]},"sequence":1}],"meta":{"lastUpdated":"2019-04-09T10:20:51.859762+00:00","profile":["https://bluebutton.cms.gov/assets/ig/StructureDefinition-bluebutton-outpatient-claim"],"versionId":"MTU1NDgwNTI1MTg1OTc2MjAwMA"},"organization":{"identifier":{"value":"36a03348-cac3-4284-b8c1-ffff7032af72"}},"patient":{"reference":"Patient/00a04f0e-43ec-4c22-b0e3-541e1dabd3af"},"payment":{"amount":{"code":"USD","system":"urn:iso:std:iso:4217","value":0}},"provider":{"identifier":{"value":"80e8e6bd-5973-4681-bb2a-74927c72d003"}},"resourceType":"ExplanationOfBenefit","status":"active","totalCost":{"code":"USD","system":"urn:iso:std:iso:4217","value":125},"type":{"coding":[{"code":"71","display":"Local carrier non-durable medical equipment, prosthetics, orthotics, and supplies (DMEPOS) claim","system":"https://bluebutton.cms.gov/resources/variables/nch_clm_type_cd"},{"code":"CARRIER","display":"EOB Type","system":"https://bluebutton.cms.gov/resources/codesystem/eob-type"},{"code":"professional","display":"Claim Type","system":"http://hl7.org/fhir/ex-claimtype"},{"code":"O","display":"Part B physician/supplier claim record (processed by local carriers; can include DMEPOS services)","system":"https://bluebutton.cms.gov/resources/variables/nch_near_line_rec_ident_cd"}]}}},{"resource":{"billablePeriod":{"end":"2014-01-04T14:32:45-05:00","extension":[{"url":"https://bluebutton.cms.gov/assets/ig/StructureDefinition-bluebutton-inpatient-claim-query-cd-extension","valueCoding":{"code":"3","display":"Final Bill","system":"https://bluebutton.cms.gov/assets/ig/ValueSet-claim-query-cd"}}],"start":"2013-01-04T14:32:45-05:00"},"careTeam":[{"provider":{"identifier":{"system":"http://hl7.org/fhir/sid/us-npi","value":"99999999"}},"role":{"coding":[{"code":"primary","display":"Primary Care Practitioner","system":"http://hl7.org/fhir/claimcareteamrole"}]},"sequence":1}],"contained":[{"id":"coverage","resourceType":"Coverage","type":{"text":"medicaid"}}],"extension":[{"url":"https://bluebutton.cms.gov/assets/ig/StructureDefinition-bluebutton-inpatient-ime-op-clm-val-amt-extension","valueMoney":{"code":"USD","system":"urn:iso:std:iso:4217","value":400}},{"url":"https://bluebutton.cms.gov/assets/ig/StructureDefinition-bluebutton-inpatient-dsh-op-clm-val-amt-extension","valueMoney":{"code":"USD","system":"urn:iso:std:iso:4217","value":0}},{"url":"https://bluebutton.cms.gov/assets/ig/StructureDefinition-bluebutton-inpatient-clm-pass-thru-per-diem-amt-extension","valueMoney":{"code":"USD","system":"urn:iso:std:iso:4217","value":0}},{"url":"https://bluebutton.cms.gov/assets/ig/StructureDefinition-bluebutton-inpatient-nch-profnl-cmpnt-chrg-amt-extension","valueMoney":{"code":"USD","system":"urn:iso:std:iso:4217","value":0}},{"url":"https://bluebutton.cms.gov/assets/ig/StructureDefinition-bluebutton-inpatient-clm-tot-pps-cptl-amt-extension","valueMoney":{"code":"USD","system":"urn:iso:std:iso:4217","value":0}},{"url":"https://bluebutton.cms.gov/assets/ig/StructureDefinition-bluebutton-inpatient-nch-bene-ip-ddctbl-amt-extension","valueMoney":{"code":"USD","system":"urn:iso:std:iso:4217","value":0}},{"url":"https://bluebutton.cms.gov/assets/ig/StructureDefinition-bluebutton-inpatient-nch-bene-pta-coinsrnc-lblty-amt-extension","valueMoney":{"code":"USD","system":"urn:iso:std:iso:4217","value":0}},{"url":"https://bluebutton.cms.gov/assets/ig/StructureDefinition-bluebutton-inpatient-nch-ip-ncvrd-chrg-amt-extension","valueMoney":{"code":"USD","system":"urn:iso:std:iso:4217","value":0}},{"url":"https://bluebutton.cms.gov/assets/ig/StructureDefinition-bluebutton-inpatient-nch-ip-tot-ddctn-amt-extension","valueMoney":{"code":"USD","system":"urn:iso:std:iso:4217","value":0}},{"url":"https://bluebutton.cms.gov/assets/ig/StructureDefinition-bluebutton-inpatient-clm-pps-cptl-dsprprtnt-shr-amt-extension","valueMoney":{"code":"USD","system":"urn:iso:std:iso:4217","value":0}},{"url":"https://bluebutton.cms.gov/assets/ig/StructureDefinition-bluebutton-inpatient-clm-pps-cptl-excptn-amt-extension","valueMoney":{"code":"USD","system":"urn:iso:std:iso:4217","value":0}},{"url":"https://bluebutton.cms.gov/assets/ig/StructureDefinition-bluebutton-inpatient-clm-pps-cptl-fsp-amt-extension","valueMoney":{"code":"USD","system":"urn:iso:std:iso:4217","value":0}},{"url":"https://bluebutton.cms.gov/assets/ig/StructureDefinition-bluebutton-inpatient-clm-pps-cptl-ime-amt-extension","valueMoney":{"code":"USD","system":"urn:iso:std:iso:4217","value":400}},{"url":"https://bluebutton.cms.gov/assets/ig/StructureDefinition-bluebutton-inpatient-clm-pps-cptl-outlier-amt-extension","valueMoney":{"code":"USD","system":"urn:iso:std:iso:4217","value":0}},{"url":"https://bluebutton.cms.gov/assets/ig/StructureDefinition-bluebutton-inpatient-clm-pps-old-cptl-hld-hrmls-amt-extension","valueMoney":{"code":"USD","system":"urn:iso:std:iso:4217","value":0}},{"url":"https://bluebutton.cms.gov/assets/ig/StructureDefinition-bluebutton-inpatient-nch-drg-outlier-aprvd-pmt-amt-extension","valueMoney":{"code":"USD","system":"urn:iso:std:iso:4217","value":0}},{"url":"https://bluebutton.cms.gov/assets/ig/StructureDefinition-bluebutton-inpatient-nch-bene-blood-ddctbl-lblty-am-extension","valueMoney":{"code":"USD","system":"urn:iso:std:iso:4217","value":0}},{"url":"https://bluebutton.cms.gov/assets/ig/StructureDefinition-bluebutton-inpatient-clm-mdcr-non-pmt-rsn-cd-extension","valueCoding":{"code":"N","display":"All other reasons for non-payment","system":"https://bluebutton.cms.gov/assets/ig/CodeSystem-clm-mdcr-non-pmt-rsn-cd"}},{"url":"https://bluebutton.cms.gov/assets/ig/StructureDefinition-bluebutton-inpatient-prpayamt-extension","valueMoney":{"code":"USD","system":"urn:iso:std:iso:4217","value":0}},{"url":"https://bluebutton.cms.gov/assets/ig/StructureDefinition-bluebutton-inpatient-fi-num-extension","valueIdentifier":{"system":"https://bluebutton.cms.gov/assets/ig/CodeSystem-fi-num","value":"002000"}}],"id":"ad3ff3c0-49dd-43cc-806c-eb598b4cb4fd","identifier":[{"system":"https://bluebutton.cms.gov/resources/variables/clm_id","value":"33ecef8e-b2c8-4ad4-bba3-e29cf51f94f7"},{"system":"https://bluebutton.cms.gov/resources/identifier/claim-group","value":"99999999999"}],"insurance":{"coverage":{"reference":"#coverage"}},"item":[{"extension":[{"url":"https://bluebutton.cms.gov/assets/ig/StructureDefinition-bluebutton-inpatient-rev-cntr-ndc-qty-extension","valueQuantity":{"value":0}}],"locationCodeableConcept":{"coding":[{"code":"21","display":"Inpatient Hospital","system":"https://bluebutton.cms.gov/resources/variables/line_place_of_srvc_cd"}]},"sequence":1}],"meta":{"lastUpdated":"2019-04-09T10:20:49.819047+00:00","profile":["https://bluebutton.cms.gov/assets/ig/StructureDefinition-bluebutton-inpatient-claim"],"versionId":"MTU1NDgwNTI0OTgxOTA0NzAwMA"},"organization":{"identifier":{"value":"36a03348-cac3-4284-b8c1-ffff7032af72"}},"patient":{"reference":"Patient/00a04f0e-43ec-4c22-b0e3-541e1dabd3af"},"payment":{"amount":{"code":"USD","system":"urn:iso:std:iso:4217","value":0}},"provider":{"identifier":{"value":"80e8e6bd-5973-4681-bb2a-74927c72d003"}},"resourceType":"ExplanationOfBenefit","status":"active","totalCost":{"code":"USD","system":"urn:iso:std:iso:4217","value":75},"type":{"coding":[{"code":"71","display":"Local carrier non-durable medical equipment, prosthetics, orthotics, and supplies (DMEPOS) claim","system":"https://bluebutton.cms.gov/resources/variables/nch_clm_type_cd"},{"code":"CARRIER","display":"EOB Type","system":"https://bluebutton.cms.gov/resources/codesystem/eob-type"},{"code":"professional","display":"Claim Type","system":"http://hl7.org/fhir/ex-claimtype"},{"code":"O","display":"Part B physician/supplier claim record (processed by local carriers; can include DMEPOS services)","system":"https://bluebutton.cms.gov/resources/variables/nch_near_line_rec_ident_cd"}]}}},{"resource":{"billablePeriod":{"end":"2018-02-21T14:47:45-05:00","extension":[{"url":"https://bluebutton.cms.gov/assets/ig/StructureDefinition-bluebutton-outpatient-claim-query-cd-extension","valueCoding":{"code":"3","display":"Final Bill","system":"https://bluebutton.cms.gov/assets/ig/ValueSet-claim-query-cd"}}],"start":"2017-02-21T14:47:45-05:00"},"careTeam":[{"provider":{"identifier":{"system":"http://hl7.org/fhir/sid/us-npi","value":"99999999"}},"role":{"coding":[{"code":"primary","display":"Primary Care Practitioner","system":"http://hl7.org/fhir/claimcareteamrole"}]},"sequence":1}],"contained":[{"id":"coverage","resourceType":"Coverage","type":{"text":"private"}}],"extension":[{"url":"https://bluebutton.cms.gov/assets/ig/StructureDefinition-bluebutton-outpatient-nch-profnl-cmpnt-chrg-amt-extension","valueMoney":{"code":"USD","system":"urn:iso:std:iso:4217","value":0}},{"url":"https://bluebutton.cms.gov/assets/ig/StructureDefinition-bluebutton-outpatient-nch-bene-ptb-ddctbl-amt-extension","valueMoney":{"code":"USD","system":"urn:iso:std:iso:4217","value":0}},{"url":"https://bluebutton.cms.gov/assets/ig/StructureDefinition-bluebutton-outpatient-nch-bene-ptb-coinsrnc-amt-extension","valueMoney":{"code":"USD","system":"urn:iso:std:iso:4217","value":0}},{"url":"https://bluebutton.cms.gov/assets/ig/StructureDefinition-bluebutton-outpatient-clm-op-prvdr-pmt-amt-extension","valueMoney":{"code":"USD","system":"urn:iso:std:iso:4217","value":0}},{"url":"https://bluebutton.cms.gov/assets/ig/StructureDefinition-bluebutton-outpatient-clm-op-bene-pmt-amt-extension","valueMoney":{"code":"USD","system":"urn:iso:std:iso:4217","value":0}},{"url":"https://bluebutton.cms.gov/assets/ig/StructureDefinition-bluebutton-outpatient-nch-bene-blood-ddctbl-lblty-am-extension","valueMoney":{"code":"USD","system":"urn:iso:std:iso:4217","value":0}},{"url":"https://bluebutton.cms.gov/assets/ig/StructureDefinition-bluebutton-outpatient-clm-mdcr-non-pmt-rsn-cd-extension","valueCoding":{"code":"N","display":"All other reasons for non-payment","system":"https://bluebutton.cms.gov/assets/ig/CodeSystem-clm-mdcr-non-pmt-rsn-cd"}},{"url":"https://bluebutton.cms.gov/assets/ig/StructureDefinition-bluebutton-outpatient-prpayamt-extension","valueMoney":{"code":"USD","system":"urn:iso:std:iso:4217","value":0}},{"url":"https://bluebutton.cms.gov/assets/ig/StructureDefinition-bluebutton-outpatient-fi-num-extension","valueIdentifier":{"system":"https://bluebutton.cms.gov/assets/ig/CodeSystem-fi-num","value":"002000"}}],"id":"b607933c-5a6d-40b8-b459-8de516bc4c7a","identifier":[{"system":"https://bluebutton.cms.gov/resources/variables/clm_id","value":"cf054342-18f4-4171-96c3-9edfdaf7f75d"},{"system":"https://bluebutton.cms.gov/resources/identifier/claim-group","value":"99999999999"}],"insurance":{"coverage":{"reference":"#coverage"}},"item":[{"extension":[{"url":"https://bluebutton.cms.gov/assets/ig/StructureDefinition-bluebutton-outpatient-rev-cntr-ndc-qty-extension","valueQuantity":{"value":0}}],"locationCodeableConcept":{"coding":[{"code":"21","display":"Inpatient Hospital","system":"https://bluebutton.cms.gov/resources/variables/line_place_of_srvc_cd"}]},"sequence":1}],"meta":{"lastUpdated":"2019-04-09T10:20:51.871365+00:00","profile":["https://bluebutton.cms.gov/assets/ig/StructureDefinition-bluebutton-outpatient-claim"],"versionId":"MTU1NDgwNTI1MTg3MTM2NTAwMA"},"organization":{"identifier":{"value":"36a03348-cac3-4284-b8c1-ffff7032af72"}},"patient":{"reference":"Patient/00a04f0e-43ec-4c22-b0e3-541e1dabd3af"},"payment":{"amount":{"code":"USD","system":"urn:iso:std:iso:4217","value":0}},"provider":{"identifier":{"value":"80e8e6bd-5973-4681-bb2a-74927c72d003"}},"resourceType":"ExplanationOfBenefit","status":"active","totalCost":{"code":"USD","system":"urn:iso:std:iso:4217","value":125},"type":{"coding":[{"code":"71","display":"Local carrier non-durable medical equipment, prosthetics, orthotics, and supplies (DMEPOS) claim","system":"https://bluebutton.cms.gov/resources/variables/nch_clm_type_cd"},{"code":"CARRIER","display":"EOB Type","system":"https://bluebutton.cms.gov/resources/codesystem/eob-type"},{"code":"professional","display":"Claim Type","system":"http://hl7.org/fhir/ex-claimtype"},{"code":"O","display":"Part B physician/supplier claim record (processed by local carriers; can include DMEPOS services)","system":"https://bluebutton.cms.gov/resources/variables/nch_near_line_rec_ident_cd"}]}}},{"resource":{"billablePeriod":{"end":"2016-12-23T14:47:45-05:00","extension":[{"url":"https://bluebutton.cms.gov/assets/ig/StructureDefinition-bluebutton-outpatient-claim-query-cd-extension","valueCoding":{"code":"3","display":"Final Bill","system":"https://bluebutton.cms.gov/assets/ig/ValueSet-claim-query-cd"}}],"start":"2015-12-23T14:47:45-05:00"},"careTeam":[{"provider":{"identifier":{"system":"http://hl7.org/fhir/sid/us-npi","value":"99999999"}},"role":{"coding":[{"code":"primary","display":"Primary Care Practitioner","system":"http://hl7.org/fhir/claimcareteamrole"}]},"sequence":1}],"contained":[{"id":"coverage","resourceType":"Coverage","type":{"text":"private"}}],"extension":[{"url":"https://bluebutton.cms.gov/assets/ig/StructureDefinition-bluebutton-outpatient-nch-profnl-cmpnt-chrg-amt-extension","valueMoney":{"code":"USD","system":"urn:iso:std:iso:4217","value":0}},{"url":"https://bluebutton.cms.gov/assets/ig/StructureDefinition-bluebutton-outpatient-nch-bene-ptb-ddctbl-amt-extension","valueMoney":{"code":"USD","system":"urn:iso:std:iso:4217","value":0}},{"url":"https://bluebutton.cms.gov/assets/ig/StructureDefinition-bluebutton-outpatient-nch-bene-ptb-coinsrnc-amt-extension","valueMoney":{"code":"USD","system":"urn:iso:std:iso:4217","value":0}},{"url":"https://bluebutton.cms.gov/assets/ig/StructureDefinition-bluebutton-outpatient-clm-op-prvdr-pmt-amt-extension","valueMoney":{"code":"USD","system":"urn:iso:std:iso:4217","value":0}},{"url":"https://bluebutton.cms.gov/assets/ig/StructureDefinition-bluebutton-outpatient-clm-op-bene-pmt-amt-extension","valueMoney":{"code":"USD","system":"urn:iso:std:iso:4217","value":0}},{"url":"https://bluebutton.cms.gov/assets/ig/StructureDefinition-bluebutton-outpatient-nch-bene-blood-ddctbl-lblty-am-extension","valueMoney":{"code":"USD","system":"urn:iso:std:iso:4217","value":0}},{"url":"https://bluebutton.cms.gov/assets/ig/StructureDefinition-bluebutton-outpatient-clm-mdcr-non-pmt-rsn-cd-extension","valueCoding":{"code":"N","display":"All other reasons for non-payment","system":"https://bluebutton.cms.gov/assets/ig/CodeSystem-clm-mdcr-non-pmt-rsn-cd"}},{"url":"https://bluebutton.cms.gov/assets/ig/StructureDefinition-bluebutton-outpatient-prpayamt-extension","valueMoney":{"code":"USD","system":"urn:iso:std:iso:4217","value":0}},{"url":"https://bluebutton.cms.gov/assets/ig/StructureDefinition-bluebutton-outpatient-fi-num-extension","valueIdentifier":{"system":"https://bluebutton.cms.gov/assets/ig/CodeSystem-fi-num","value":"002000"}}],"id":"bcdfc808-a39d-4cf5-957f-771e5a95c582","identifier":[{"system":"https://bluebutton.cms.gov/resources/variables/clm_id","value":"ce200216-c970-4d67-b2a0-d8a98546af4e"},{"system":"https://bluebutton.cms.gov/resources/identifier/claim-group","value":"99999999999"}],"insurance":{"coverage":{"reference":"#coverage"}},"item":[{"extension":[{"url":"https://bluebutton.cms.gov/assets/ig/StructureDefinition-bluebutton-outpatient-rev-cntr-ndc-qty-extension","valueQuantity":{"value":0}}],"locationCodeableConcept":{"coding":[{"code":"21","display":"Inpatient Hospital","system":"https://bluebutton.cms.gov/resources/variables/line_place_of_srvc_cd"}]},"sequence":1}],"meta":{"lastUpdated":"2019-04-09T10:20:51.869331+00:00","profile":["https://bluebutton.cms.gov/assets/ig/StructureDefinition-bluebutton-outpatient-claim"],"versionId":"MTU1NDgwNTI1MTg2OTMzMTAwMA"},"organization":{"identifier":{"value":"36a03348-cac3-4284-b8c1-ffff7032af72"}},"patient":{"reference":"Patient/00a04f0e-43ec-4c22-b0e3-541e1dabd3af"},"payment":{"amount":{"code":"USD","system":"urn:iso:std:iso:4217","value":0}},"provider":{"identifier":{"value":"80e8e6bd-5973-4681-bb2a-74927c72d003"}},"resourceType":"ExplanationOfBenefit","status":"active","totalCost":{"code":"USD","system":"urn:iso:std:iso:4217","value":125},"type":{"coding":[{"code":"71","display":"Local carrier non-durable medical equipment, prosthetics, orthotics, and supplies (DMEPOS) claim","system":"https://bluebutton.cms.gov/resources/variables/nch_clm_type_cd"},{"code":"CARRIER","display":"EOB Type","system":"https://bluebutton.cms.gov/resources/codesystem/eob-type"},{"code":"professional","display":"Claim Type","system":"http://hl7.org/fhir/ex-claimtype"},{"code":"O","display":"Part B physician/supplier claim record (processed by local carriers; can include DMEPOS services)","system":"https://bluebutton.cms.gov/resources/variables/nch_near_line_rec_ident_cd"}]}}},{"resource":{"billablePeriod":{"end":"2019-12-20T14:47:45-05:00","extension":[{"url":"https://bluebutton.cms.gov/assets/ig/StructureDefinition-bluebutton-outpatient-claim-query-cd-extension","valueCoding":{"code":"3","display":"Final Bill","system":"https://bluebutton.cms.gov/assets/ig/ValueSet-claim-query-cd"}}],"start":"2018-12-20T14:47:45-05:00"},"careTeam":[{"provider":{"identifier":{"system":"http://hl7.org/fhir/sid/us-npi","value":"99999999"}},"role":{"coding":[{"code":"primary","display":"Primary Care Practitioner","system":"http://hl7.org/fhir/claimcareteamrole"}]},"sequence":1}],"contained":[{"id":"coverage","resourceType":"Coverage","type":{"text":"private"}}],"extension":[{"url":"https://bluebutton.cms.gov/assets/ig/StructureDefinition-bluebutton-outpatient-nch-profnl-cmpnt-chrg-amt-extension","valueMoney":{"code":"USD","system":"urn:iso:std:iso:4217","value":0}},{"url":"https://bluebutton.cms.gov/assets/ig/StructureDefinition-bluebutton-outpatient-nch-bene-ptb-ddctbl-amt-extension","valueMoney":{"code":"USD","system":"urn:iso:std:iso:4217","value":0}},{"url":"https://bluebutton.cms.gov/assets/ig/StructureDefinition-bluebutton-outpatient-nch-bene-ptb-coinsrnc-amt-extension","valueMoney":{"code":"USD","system":"urn:iso:std:iso:4217","value":0}},{"url":"https://bluebutton.cms.gov/assets/ig/StructureDefinition-bluebutton-outpatient-clm-op-prvdr-pmt-amt-extension","valueMoney":{"code":"USD","system":"urn:iso:std:iso:4217","value":0}},{"url":"https://bluebutton.cms.gov/assets/ig/StructureDefinition-bluebutton-outpatient-clm-op-bene-pmt-amt-extension","valueMoney":{"code":"USD","system":"urn:iso:std:iso:4217","value":0}},{"url":"https://bluebutton.cms.gov/assets/ig/StructureDefinition-bluebutton-outpatient-nch-bene-blood-ddctbl-lblty-am-extension","valueMoney":{"code":"USD","system":"urn:iso:std:iso:4217","value":0}},{"url":"https://bluebutton.cms.gov/assets/ig/StructureDefinition-bluebutton-outpatient-clm-mdcr-non-pmt-rsn-cd-extension","valueCoding":{"code":"N","display":"All other reasons for non-payment","system":"https://bluebutton.cms.gov/assets/ig/CodeSystem-clm-mdcr-non-pmt-rsn-cd"}},{"url":"https://bluebutton.cms.gov/assets/ig/StructureDefinition-bluebutton-outpatient-prpayamt-extension","valueMoney":{"code":"USD","system":"urn:iso:std:iso:4217","value":0}},{"url":"https://bluebutton.cms.gov/assets/ig/StructureDefinition-bluebutton-outpatient-fi-num-extension","valueIdentifier":{"system":"https://bluebutton.cms.gov/assets/ig/CodeSystem-fi-num","value":"002000"}}],"id":"c3e46881-b09a-475b-9e83-7875660d331d","identifier":[{"system":"https://bluebutton.cms.gov/resources/variables/clm_id","value":"e3af5e7d-3ac5-4bc5-8a96-44cd8b5f0de8"},{"system":"https://bluebutton.cms.gov/resources/identifier/claim-group","value":"99999999999"}],"insurance":{"coverage":{"reference":"#coverage"}},"item":[{"extension":[{"url":"https://bluebutton.cms.gov/assets/ig/StructureDefinition-bluebutton-outpatient-rev-cntr-ndc-qty-extension","valueQuantity":{"value":0}}],"locationCodeableConcept":{"coding":[{"code":"21","display":"Inpatient Hospital","system":"https://bluebutton.cms.gov/resources/variables/line_place_of_srvc_cd"}]},"sequence":1}],"meta":{"lastUpdated":"2019-04-09T10:20:52.932611+00:00","profile":["https://bluebutton.cms.gov/assets/ig/StructureDefinition-bluebutton-outpatient-claim"],"versionId":"MTU1NDgwNTI1MjkzMjYxMTAwMA"},"organization":{"identifier":{"value":"36a03348-cac3-4284-b8c1-ffff7032af72"}},"patient":{"reference":"Patient/00a04f0e-43ec-4c22-b0e3-541e1dabd3af"},"payment":{"amount":{"code":"USD","system":"urn:iso:std:iso:4217","value":0}},"provider":{"identifier":{"value":"80e8e6bd-5973-4681-bb2a-74927c72d003"}},"resourceType":"ExplanationOfBenefit","status":"active","totalCost":{"code":"USD","system":"urn:iso:std:iso:4217","value":125},"type":{"coding":[{"code":"71","display":"Local carrier non-durable medical equipment, prosthetics, orthotics, and supplies (DMEPOS) claim","system":"https://bluebutton.cms.gov/resources/variables/nch_clm_type_cd"},{"code":"CARRIER","display":"EOB Type","system":"https://bluebutton.cms.gov/resources/codesystem/eob-type"},{"code":"professional","display":"Claim Type","system":"http://hl7.org/fhir/ex-claimtype"},{"code":"O","display":"Part B physician/supplier claim record (processed by local carriers; can include DMEPOS services)","system":"https://bluebutton.cms.gov/resources/variables/nch_near_line_rec_ident_cd"}]}}},{"resource":{"billablePeriod":{"end":"2015-04-04T15:47:45-04:00","extension":[{"url":"https://bluebutton.cms.gov/assets/ig/StructureDefinition-bluebutton-outpatient-claim-query-cd-extension","valueCoding":{"code":"3","display":"Final Bill","system":"https://bluebutton.cms.gov/assets/ig/ValueSet-claim-query-cd"}}],"start":"2014-04-04T15:47:45-04:00"},"careTeam":[{"provider":{"identifier":{"system":"http://hl7.org/fhir/sid/us-npi","value":"99999999"}},"role":{"coding":[{"code":"primary","display":"Primary Care Practitioner","system":"http://hl7.org/fhir/claimcareteamrole"}]},"sequence":1}],"contained":[{"id":"coverage","resourceType":"Coverage","type":{"text":"private"}}],"extension":[{"url":"https://bluebutton.cms.gov/assets/ig/StructureDefinition-bluebutton-outpatient-nch-profnl-cmpnt-chrg-amt-extension","valueMoney":{"code":"USD","system":"urn:iso:std:iso:4217","value":0}},{"url":"https://bluebutton.cms.gov/assets/ig/StructureDefinition-bluebutton-outpatient-nch-bene-ptb-ddctbl-amt-extension","valueMoney":{"code":"USD","system":"urn:iso:std:iso:4217","value":0}},{"url":"https://bluebutton.cms.gov/assets/ig/StructureDefinition-bluebutton-outpatient-nch-bene-ptb-coinsrnc-amt-extension","valueMoney":{"code":"USD","system":"urn:iso:std:iso:4217","value":0}},{"url":"https://bluebutton.cms.gov/assets/ig/StructureDefinition-bluebutton-outpatient-clm-op-prvdr-pmt-amt-extension","valueMoney":{"code":"USD","system":"urn:iso:std:iso:4217","value":0}},{"url":"https://bluebutton.cms.gov/assets/ig/StructureDefinition-bluebutton-outpatient-clm-op-bene-pmt-amt-extension","valueMoney":{"code":"USD","system":"urn:iso:std:iso:4217","value":0}},{"url":"https://bluebutton.cms.gov/assets/ig/StructureDefinition-bluebutton-outpatient-nch-bene-blood-ddctbl-lblty-am-extension","valueMoney":{"code":"USD","system":"urn:iso:std:iso:4217","value":0}},{"url":"https://bluebutton.cms.gov/assets/ig/StructureDefinition-bluebutton-outpatient-clm-mdcr-non-pmt-rsn-cd-extension","valueCoding":{"code":"N","display":"All other reasons for non-payment","system":"https://bluebutton.cms.gov/assets/ig/CodeSystem-clm-mdcr-non-pmt-rsn-cd"}},{"url":"https://bluebutton.cms.gov/assets/ig/StructureDefinition-bluebutton-outpatient-prpayamt-extension","valueMoney":{"code":"USD","system":"urn:iso:std:iso:4217","value":0}},{"url":"https://bluebutton.cms.gov/assets/ig/StructureDefinition-bluebutton-outpatient-fi-num-extension","valueIdentifier":{"system":"https://bluebutton.cms.gov/assets/ig/CodeSystem-fi-num","value":"002000"}}],"id":"c8e36df2-2b5b-48eb-9061-d7fb8eef8126","identifier":[{"system":"https://bluebutton.cms.gov/resources/variables/clm_id","value":"f7f47d72-5076-4d16-8905-ca09f20bd9e9"},{"system":"https://bluebutton.cms.gov/resources/identifier/claim-group","value":"99999999999"}],"insurance":{"coverage":{"reference":"#coverage"}},"item":[{"extension":[{"url":"https://bluebutton.cms.gov/assets/ig/StructureDefinition-bluebutton-outpatient-rev-cntr-ndc-qty-extension","valueQuantity":{"value":0}}],"locationCodeableConcept":{"coding":[{"code":"21","display":"Inpatient Hospital","system":"https://bluebutton.cms.gov/resources/variables/line_place_of_srvc_cd"}]},"sequence":1}],"meta":{"lastUpdated":"2019-04-09T10:20:50.826831+00:00","profile":["https://bluebutton.cms.gov/assets/ig/StructureDefinition-bluebutton-outpatient-claim"],"versionId":"MTU1NDgwNTI1MDgyNjgzMTAwMA"},"organization":{"identifier":{"value":"36a03348-cac3-4284-b8c1-ffff7032af72"}},"patient":{"reference":"Patient/00a04f0e-43ec-4c22-b0e3-541e1dabd3af"},"payment":{"amount":{"code":"USD","system":"urn:iso:std:iso:4217","value":0}},"provider":{"identifier":{"value":"80e8e6bd-5973-4681-bb2a-74927c72d003"}},"resourceType":"ExplanationOfBenefit","status":"active","totalCost":{"code":"USD","system":"urn:iso:std:iso:4217","value":125},"type":{"coding":[{"code":"71","display":"Local carrier non-durable medical equipment, prosthetics, orthotics, and supplies (DMEPOS) claim","system":"https://bluebutton.cms.gov/resources/variables/nch_clm_type_cd"},{"code":"CARRIER","display":"EOB Type","system":"https://bluebutton.cms.gov/resources/codesystem/eob-type"},{"code":"professional","display":"Claim Type","system":"http://hl7.org/fhir/ex-claimtype"},{"code":"O","display":"Part B physician/supplier claim record (processed by local carriers; can include DMEPOS services)","system":"https://bluebutton.cms.gov/resources/variables/nch_near_line_rec_ident_cd"}]}}},{"resource":{"billablePeriod":{"end":"2015-06-03T15:47:45-04:00","extension":[{"url":"https://bluebutton.cms.gov/assets/ig/StructureDefinition-bluebutton-outpatient-claim-query-cd-extension","valueCoding":{"code":"3","display":"Final Bill","system":"https://bluebutton.cms.gov/assets/ig/ValueSet-claim-query-cd"}}],"start":"2014-06-03T15:47:45-04:00"},"careTeam":[{"provider":{"identifier":{"system":"http://hl7.org/fhir/sid/us-npi","value":"99999999"}},"role":{"coding":[{"code":"primary","display":"Primary Care Practitioner","system":"http://hl7.org/fhir/claimcareteamrole"}]},"sequence":1}],"contained":[{"id":"coverage","resourceType":"Coverage","type":{"text":"private"}}],"extension":[{"url":"https://bluebutton.cms.gov/assets/ig/StructureDefinition-bluebutton-outpatient-nch-profnl-cmpnt-chrg-amt-extension","valueMoney":{"code":"USD","system":"urn:iso:std:iso:4217","value":0}},{"url":"https://bluebutton.cms.gov/assets/ig/StructureDefinition-bluebutton-outpatient-nch-bene-ptb-ddctbl-amt-extension","valueMoney":{"code":"USD","system":"urn:iso:std:iso:4217","value":0}},{"url":"https://bluebutton.cms.gov/assets/ig/StructureDefinition-bluebutton-outpatient-nch-bene-ptb-coinsrnc-amt-extension","valueMoney":{"code":"USD","system":"urn:iso:std:iso:4217","value":0}},{"url":"https://bluebutton.cms.gov/assets/ig/StructureDefinition-bluebutton-outpatient-clm-op-prvdr-pmt-amt-extension","valueMoney":{"code":"USD","system":"urn:iso:std:iso:4217","value":0}},{"url":"https://bluebutton.cms.gov/assets/ig/StructureDefinition-bluebutton-outpatient-clm-op-bene-pmt-amt-extension","valueMoney":{"code":"USD","system":"urn:iso:std:iso:4217","value":0}},{"url":"https://bluebutton.cms.gov/assets/ig/StructureDefinition-bluebutton-outpatient-nch-bene-blood-ddctbl-lblty-am-extension","valueMoney":{"code":"USD","system":"urn:iso:std:iso:4217","value":0}},{"url":"https://bluebutton.cms.gov/assets/ig/StructureDefinition-bluebutton-outpatient-clm-mdcr-non-pmt-rsn-cd-extension","valueCoding":{"code":"N","display":"All other reasons for non-payment","system":"https://bluebutton.cms.gov/assets/ig/CodeSystem-clm-mdcr-non-pmt-rsn-cd"}},{"url":"https://bluebutton.cms.gov/assets/ig/StructureDefinition-bluebutton-outpatient-prpayamt-extension","valueMoney":{"code":"USD","system":"urn:iso:std:iso:4217","value":0}},{"url":"https://bluebutton.cms.gov/assets/ig/StructureDefinition-bluebutton-outpatient-fi-num-extension","valueIdentifier":{"system":"https://bluebutton.cms.gov/assets/ig/CodeSystem-fi-num","value":"002000"}}],"id":"cbf7de73-53b6-4f8c-b951-4f660e24f41b","identifier":[{"system":"https://bluebutton.cms.gov/resources/variables/clm_id","value":"99c42440-bba3-4bab-a788-4c0966d16e0b"},{"system":"https://bluebutton.cms.gov/resources/identifier/claim-group","value":"99999999999"}],"insurance":{"coverage":{"reference":"#coverage"}},"item":[{"extension":[{"url":"https://bluebutton.cms.gov/assets/ig/StructureDefinition-bluebutton-outpatient-rev-cntr-ndc-qty-extension","valueQuantity":{"value":0}}],"locationCodeableConcept":{"coding":[{"code":"21","display":"Inpatient Hospital","system":"https://bluebutton.cms.gov/resources/variables/line_place_of_srvc_cd"}]},"sequence":1}],"meta":{"lastUpdated":"2019-04-09T10:20:50.832090+00:00","profile":["https://bluebutton.cms.gov/assets/ig/StructureDefinition-bluebutton-outpatient-claim"],"versionId":"MTU1NDgwNTI1MDgzMjA5MDAwMA"},"organization":{"identifier":{"value":"36a03348-cac3-4284-b8c1-ffff7032af72"}},"patient":{"reference":"Patient/00a04f0e-43ec-4c22-b0e3-541e1dabd3af"},"payment":{"amount":{"code":"USD","system":"urn:iso:std:iso:4217","value":0}},"provider":{"identifier":{"value":"80e8e6bd-5973-4681-bb2a-74927c72d003"}},"resourceType":"ExplanationOfBenefit","status":"active","totalCost":{"code":"USD","system":"urn:iso:std:iso:4217","value":125},"type":{"coding":[{"code":"71","display":"Local carrier non-durable medical equipment, prosthetics, orthotics, and supplies (DMEPOS) claim","system":"https://bluebutton.cms.gov/resources/variables/nch_clm_type_cd"},{"code":"CARRIER","display":"EOB Type","system":"https://bluebutton.cms.gov/resources/codesystem/eob-type"},{"code":"professional","display":"Claim Type","system":"http://hl7.org/fhir/ex-claimtype"},{"code":"O","display":"Part B physician/supplier claim record (processed by local carriers; can include DMEPOS services)","system":"https://bluebutton.cms.gov/resources/variables/nch_near_line_rec_ident_cd"}]}}},{"resource":{"billablePeriod":{"end":"2011-05-26T15:32:45-04:00","extension":[{"url":"https://bluebutton.cms.gov/assets/ig/StructureDefinition-bluebutton-inpatient-claim-query-cd-extension","valueCoding":{"code":"3","display":"Final Bill","system":"https://bluebutton.cms.gov/assets/ig/ValueSet-claim-query-cd"}}],"start":"2010-05-26T15:32:45-04:00"},"careTeam":[{"provider":{"identifier":{"system":"http://hl7.org/fhir/sid/us-npi","value":"99999999"}},"role":{"coding":[{"code":"primary","display":"Primary Care Practitioner","system":"http://hl7.org/fhir/claimcareteamrole"}]},"sequence":1}],"contained":[{"id":"coverage","resourceType":"Coverage","type":{"text":"private"}}],"extension":[{"url":"https://bluebutton.cms.gov/assets/ig/StructureDefinition-bluebutton-inpatient-ime-op-clm-val-amt-extension","valueMoney":{"code":"USD","system":"urn:iso:std:iso:4217","value":400}},{"url":"https://bluebutton.cms.gov/assets/ig/StructureDefinition-bluebutton-inpatient-dsh-op-clm-val-amt-extension","valueMoney":{"code":"USD","system":"urn:iso:std:iso:4217","value":0}},{"url":"https://bluebutton.cms.gov/assets/ig/StructureDefinition-bluebutton-inpatient-clm-pass-thru-per-diem-amt-extension","valueMoney":{"code":"USD","system":"urn:iso:std:iso:4217","value":0}},{"url":"https://bluebutton.cms.gov/assets/ig/StructureDefinition-bluebutton-inpatient-nch-profnl-cmpnt-chrg-amt-extension","valueMoney":{"code":"USD","system":"urn:iso:std:iso:4217","value":0}},{"url":"https://bluebutton.cms.gov/assets/ig/StructureDefinition-bluebutton-inpatient-clm-tot-pps-cptl-amt-extension","valueMoney":{"code":"USD","system":"urn:iso:std:iso:4217","value":0}},{"url":"https://bluebutton.cms.gov/assets/ig/StructureDefinition-bluebutton-inpatient-nch-bene-ip-ddctbl-amt-extension","valueMoney":{"code":"USD","system":"urn:iso:std:iso:4217","value":0}},{"url":"https://bluebutton.cms.gov/assets/ig/StructureDefinition-bluebutton-inpatient-nch-bene-pta-coinsrnc-lblty-amt-extension","valueMoney":{"code":"USD","system":"urn:iso:std:iso:4217","value":0}},{"url":"https://bluebutton.cms.gov/assets/ig/StructureDefinition-bluebutton-inpatient-nch-ip-ncvrd-chrg-amt-extension","valueMoney":{"code":"USD","system":"urn:iso:std:iso:4217","value":0}},{"url":"https://bluebutton.cms.gov/assets/ig/StructureDefinition-bluebutton-inpatient-nch-ip-tot-ddctn-amt-extension","valueMoney":{"code":"USD","system":"urn:iso:std:iso:4217","value":0}},{"url":"https://bluebutton.cms.gov/assets/ig/StructureDefinition-bluebutton-inpatient-clm-pps-cptl-dsprprtnt-shr-amt-extension","valueMoney":{"code":"USD","system":"urn:iso:std:iso:4217","value":0}},{"url":"https://bluebutton.cms.gov/assets/ig/StructureDefinition-bluebutton-inpatient-clm-pps-cptl-excptn-amt-extension","valueMoney":{"code":"USD","system":"urn:iso:std:iso:4217","value":0}},{"url":"https://bluebutton.cms.gov/assets/ig/StructureDefinition-bluebutton-inpatient-clm-pps-cptl-fsp-amt-extension","valueMoney":{"code":"USD","system":"urn:iso:std:iso:4217","value":0}},{"url":"https://bluebutton.cms.gov/assets/ig/StructureDefinition-bluebutton-inpatient-clm-pps-cptl-ime-amt-extension","valueMoney":{"code":"USD","system":"urn:iso:std:iso:4217","value":400}},{"url":"https://bluebutton.cms.gov/assets/ig/StructureDefinition-bluebutton-inpatient-clm-pps-cptl-outlier-amt-extension","valueMoney":{"code":"USD","system":"urn:iso:std:iso:4217","value":0}},{"url":"https://bluebutton.cms.gov/assets/ig/StructureDefinition-bluebutton-inpatient-clm-pps-old-cptl-hld-hrmls-amt-extension","valueMoney":{"code":"USD","system":"urn:iso:std:iso:4217","value":0}},{"url":"https://bluebutton.cms.gov/assets/ig/StructureDefinition-bluebutton-inpatient-nch-drg-outlier-aprvd-pmt-amt-extension","valueMoney":{"code":"USD","system":"urn:iso:std:iso:4217","value":0}},{"url":"https://bluebutton.cms.gov/assets/ig/StructureDefinition-bluebutton-inpatient-nch-bene-blood-ddctbl-lblty-am-extension","valueMoney":{"code":"USD","system":"urn:iso:std:iso:4217","value":0}},{"url":"https://bluebutton.cms.gov/assets/ig/StructureDefinition-bluebutton-inpatient-clm-mdcr-non-pmt-rsn-cd-extension","valueCoding":{"code":"N","display":"All other reasons for non-payment","system":"https://bluebutton.cms.gov/assets/ig/CodeSystem-clm-mdcr-non-pmt-rsn-cd"}},{"url":"https://bluebutton.cms.gov/assets/ig/StructureDefinition-bluebutton-inpatient-prpayamt-extension","valueMoney":{"code":"USD","system":"urn:iso:std:iso:4217","value":0}},{"url":"https://bluebutton.cms.gov/assets/ig/StructureDefinition-bluebutton-inpatient-fi-num-extension","valueIdentifier":{"system":"https://bluebutton.cms.gov/assets/ig/CodeSystem-fi-num","value":"002000"}}],"id":"cd601f0a-ade5-4d5c-9151-cec72a9ea768","identifier":[{"system":"https://bluebutton.cms.gov/resources/variables/clm_id","value":"995ba856-57b8-46cb-9779-728afad5c59e"},{"system":"https://bluebutton.cms.gov/resources/identifier/claim-group","value":"99999999999"}],"insurance":{"coverage":{"reference":"#coverage"}},"item":[{"extension":[{"url":"https://bluebutton.cms.gov/assets/ig/StructureDefinition-bluebutton-inpatient-rev-cntr-ndc-qty-extension","valueQuantity":{"value":0}}],"locationCodeableConcept":{"coding":[{"code":"21","display":"Inpatient Hospital","system":"https://bluebutton.cms.gov/resources/variables/line_place_of_srvc_cd"}]},"sequence":1}],"meta":{"lastUpdated":"2019-04-09T10:20:45.766760+00:00","profile":["https://bluebutton.cms.gov/assets/ig/StructureDefinition-bluebutton-inpatient-claim"],"versionId":"MTU1NDgwNTI0NTc2Njc2MDAwMA"},"organization":{"identifier":{"value":"36a03348-cac3-4284-b8c1-ffff7032af72"}},"patient":{"reference":"Patient/00a04f0e-43ec-4c22-b0e3-541e1dabd3af"},"payment":{"amount":{"code":"USD","system":"urn:iso:std:iso:4217","value":0}},"provider":{"identifier":{"value":"80e8e6bd-5973-4681-bb2a-74927c72d003"}},"resourceType":"ExplanationOfBenefit","status":"active","totalCost":{"code":"USD","system":"urn:iso:std:iso:4217","value":75},"type":{"coding":[{"code":"71","display":"Local carrier non-durable medical equipment, prosthetics, orthotics, and supplies (DMEPOS) claim","system":"https://bluebutton.cms.gov/resources/variables/nch_clm_type_cd"},{"code":"CARRIER","display":"EOB Type","system":"https://bluebutton.cms.gov/resources/codesystem/eob-type"},{"code":"professional","display":"Claim Type","system":"http://hl7.org/fhir/ex-claimtype"},{"code":"O","display":"Part B physician/supplier claim record (processed by local carriers; can include DMEPOS services)","system":"https://bluebutton.cms.gov/resources/variables/nch_near_line_rec_ident_cd"}]}}},{"resource":{"billablePeriod":{"end":"2009-12-23T14:47:45-05:00","extension":[{"url":"https://bluebutton.cms.gov/assets/ig/StructureDefinition-bluebutton-inpatient-claim-query-cd-extension","valueCoding":{"code":"3","display":"Final Bill","system":"https://bluebutton.cms.gov/assets/ig/ValueSet-claim-query-cd"}}],"start":"2008-12-23T14:47:45-05:00"},"careTeam":[{"provider":{"identifier":{"system":"http://hl7.org/fhir/sid/us-npi","value":"99999999"}},"role":{"coding":[{"code":"primary","display":"Primary Care Practitioner","system":"http://hl7.org/fhir/claimcareteamrole"}]},"sequence":1}],"contained":[{"id":"coverage","resourceType":"Coverage","type":{"text":"private"}}],"diagnosis":[{"diagnosisReference":{"reference":"Condition/47db7845-2908-4917-a43a-67bfc3ab7e67"},"extension":[{"url":"https://bluebutton.cms.gov/assets/ig/StructureDefinition-bluebutton-inpatient-clm-poa-ind-sw1-extension","valueCoding":{"code":"Y","display":"Diagnosis present at time of admission","system":"https://bluebutton.cms.gov/assets/ig/CodeSystem-clm-poa-ind-sw1"}}],"sequence":1,"type":[{"coding":[{"code":"principal","system":"https://bluebutton.cms.gov/resources/codesystem/diagnosis-type"}]}]}],"extension":[{"url":"https://bluebutton.cms.gov/assets/ig/StructureDefinition-bluebutton-inpatient-ime-op-clm-val-amt-extension","valueMoney":{"code":"USD","system":"urn:iso:std:iso:4217","value":400}},{"url":"https://bluebutton.cms.gov/assets/ig/StructureDefinition-bluebutton-inpatient-dsh-op-clm-val-amt-extension","valueMoney":{"code":"USD","system":"urn:iso:std:iso:4217","value":0}},{"url":"https://bluebutton.cms.gov/assets/ig/StructureDefinition-bluebutton-inpatient-clm-pass-thru-per-diem-amt-extension","valueMoney":{"code":"USD","system":"urn:iso:std:iso:4217","value":0}},{"url":"https://bluebutton.cms.gov/assets/ig/StructureDefinition-bluebutton-inpatient-nch-profnl-cmpnt-chrg-amt-extension","valueMoney":{"code":"USD","system":"urn:iso:std:iso:4217","value":0}},{"url":"https://bluebutton.cms.gov/assets/ig/StructureDefinition-bluebutton-inpatient-clm-tot-pps-cptl-amt-extension","valueMoney":{"code":"USD","system":"urn:iso:std:iso:4217","value":0}},{"url":"https://bluebutton.cms.gov/assets/ig/StructureDefinition-bluebutton-inpatient-nch-bene-ip-ddctbl-amt-extension","valueMoney":{"code":"USD","system":"urn:iso:std:iso:4217","value":0}},{"url":"https://bluebutton.cms.gov/assets/ig/StructureDefinition-bluebutton-inpatient-nch-bene-pta-coinsrnc-lblty-amt-extension","valueMoney":{"code":"USD","system":"urn:iso:std:iso:4217","value":0}},{"url":"https://bluebutton.cms.gov/assets/ig/StructureDefinition-bluebutton-inpatient-nch-ip-ncvrd-chrg-amt-extension","valueMoney":{"code":"USD","system":"urn:iso:std:iso:4217","value":0}},{"url":"https://bluebutton.cms.gov/assets/ig/StructureDefinition-bluebutton-inpatient-nch-ip-tot-ddctn-amt-extension","valueMoney":{"code":"USD","system":"urn:iso:std:iso:4217","value":0}},{"url":"https://bluebutton.cms.gov/assets/ig/StructureDefinition-bluebutton-inpatient-clm-pps-cptl-dsprprtnt-shr-amt-extension","valueMoney":{"code":"USD","system":"urn:iso:std:iso:4217","value":0}},{"url":"https://bluebutton.cms.gov/assets/ig/StructureDefinition-bluebutton-inpatient-clm-pps-cptl-excptn-amt-extension","valueMoney":{"code":"USD","system":"urn:iso:std:iso:4217","value":0}},{"url":"https://bluebutton.cms.gov/assets/ig/StructureDefinition-bluebutton-inpatient-clm-pps-cptl-fsp-amt-extension","valueMoney":{"code":"USD","system":"urn:iso:std:iso:4217","value":0}},{"url":"https://bluebutton.cms.gov/assets/ig/StructureDefinition-bluebutton-inpatient-clm-pps-cptl-ime-amt-extension","valueMoney":{"code":"USD","system":"urn:iso:std:iso:4217","value":400}},{"url":"https://bluebutton.cms.gov/assets/ig/StructureDefinition-bluebutton-inpatient-clm-pps-cptl-outlier-amt-extension","valueMoney":{"code":"USD","system":"urn:iso:std:iso:4217","value":0}},{"url":"https://bluebutton.cms.gov/assets/ig/StructureDefinition-bluebutton-inpatient-clm-pps-old-cptl-hld-hrmls-amt-extension","valueMoney":{"code":"USD","system":"urn:iso:std:iso:4217","value":0}},{"url":"https://bluebutton.cms.gov/assets/ig/StructureDefinition-bluebutton-inpatient-nch-drg-outlier-aprvd-pmt-amt-extension","valueMoney":{"code":"USD","system":"urn:iso:std:iso:4217","value":0}},{"url":"https://bluebutton.cms.gov/assets/ig/StructureDefinition-bluebutton-inpatient-nch-bene-blood-ddctbl-lblty-am-extension","valueMoney":{"code":"USD","system":"urn:iso:std:iso:4217","value":0}},{"url":"https://bluebutton.cms.gov/assets/ig/StructureDefinition-bluebutton-inpatient-clm-mdcr-non-pmt-rsn-cd-extension","valueCoding":{"code":"N","display":"All other reasons for non-payment","system":"https://bluebutton.cms.gov/assets/ig/CodeSystem-clm-mdcr-non-pmt-rsn-cd"}},{"url":"https://bluebutton.cms.gov/assets/ig/StructureDefinition-bluebutton-inpatient-prpayamt-extension","valueMoney":{"code":"USD","system":"urn:iso:std:iso:4217","value":0}},{"url":"https://bluebutton.cms.gov/assets/ig/StructureDefinition-bluebutton-inpatient-fi-num-extension","valueIdentifier":{"system":"https://bluebutton.cms.gov/assets/ig/CodeSystem-fi-num","value":"002000"}}],"id":"ce724e9c-6b63-4d86-abbd-57562d3dbbc9","identifier":[{"system":"https://bluebutton.cms.gov/resources/variables/clm_id","value":"0298ce6d-d0ce-4950-9db6-bd87bfbe2245"},{"system":"https://bluebutton.cms.gov/resources/identifier/claim-group","value":"99999999999"}],"insurance":{"coverage":{"reference":"#coverage"}},"item":[{"extension":[{"url":"https://bluebutton.cms.gov/assets/ig/StructureDefinition-bluebutton-inpatient-rev-cntr-ndc-qty-extension","valueQuantity":{"value":0}}],"locationCodeableConcept":{"coding":[{"code":"21","display":"Inpatient Hospital","system":"https://bluebutton.cms.gov/resources/variables/line_place_of_srvc_cd"}]},"sequence":1},{"extension":[{"url":"https://bluebutton.cms.gov/assets/ig/StructureDefinition-bluebutton-inpatient-rev-cntr-ndc-qty-extension","valueQuantity":{"value":0}}],"locationCodeableConcept":{"coding":[{"code":"21","display":"Inpatient Hospital","system":"https://bluebutton.cms.gov/resources/variables/line_place_of_srvc_cd"}]},"sequence":2}],"meta":{"lastUpdated":"2019-04-09T10:20:44.673581+00:00","profile":["https://bluebutton.cms.gov/assets/ig/StructureDefinition-bluebutton-inpatient-claim"],"versionId":"MTU1NDgwNTI0NDY3MzU4MTAwMA"},"organization":{"identifier":{"value":"36a03348-cac3-4284-b8c1-ffff7032af72"}},"patient":{"reference":"Patient/00a04f0e-43ec-4c22-b0e3-541e1dabd3af"},"payment":{"amount":{"code":"USD","system":"urn:iso:std:iso:4217","value":0}},"provider":{"identifier":{"value":"80e8e6bd-5973-4681-bb2a-74927c72d003"}},"resourceType":"ExplanationOfBenefit","status":"active","totalCost":{"code":"USD","system":"urn:iso:std:iso:4217","value":75},"type":{"coding":[{"code":"71","display":"Local carrier non-durable medical equipment, prosthetics, orthotics, and supplies (DMEPOS) claim","system":"https://bluebutton.cms.gov/resources/variables/nch_clm_type_cd"},{"code":"CARRIER","display":"EOB Type","system":"https://bluebutton.cms.gov/resources/codesystem/eob-type"},{"code":"professional","display":"Claim Type","system":"http://hl7.org/fhir/ex-claimtype"},{"code":"O","display":"Part B physician/supplier claim record (processed by local carriers; can include DMEPOS services)","system":"https://bluebutton.cms.gov/resources/variables/nch_near_line_rec_ident_cd"}]}}},{"resource":{"billablePeriod":{"end":"2015-05-04T15:47:45-04:00","extension":[{"url":"https://bluebutton.cms.gov/assets/ig/StructureDefinition-bluebutton-outpatient-claim-query-cd-extension","valueCoding":{"code":"3","display":"Final Bill","system":"https://bluebutton.cms.gov/assets/ig/ValueSet-claim-query-cd"}}],"start":"2014-05-04T15:47:45-04:00"},"careTeam":[{"provider":{"identifier":{"system":"http://hl7.org/fhir/sid/us-npi","value":"99999999"}},"role":{"coding":[{"code":"primary","display":"Primary Care Practitioner","system":"http://hl7.org/fhir/claimcareteamrole"}]},"sequence":1}],"contained":[{"id":"coverage","resourceType":"Coverage","type":{"text":"private"}}],"extension":[{"url":"https://bluebutton.cms.gov/assets/ig/StructureDefinition-bluebutton-outpatient-nch-profnl-cmpnt-chrg-amt-extension","valueMoney":{"code":"USD","system":"urn:iso:std:iso:4217","value":0}},{"url":"https://bluebutton.cms.gov/assets/ig/StructureDefinition-bluebutton-outpatient-nch-bene-ptb-ddctbl-amt-extension","valueMoney":{"code":"USD","system":"urn:iso:std:iso:4217","value":0}},{"url":"https://bluebutton.cms.gov/assets/ig/StructureDefinition-bluebutton-outpatient-nch-bene-ptb-coinsrnc-amt-extension","valueMoney":{"code":"USD","system":"urn:iso:std:iso:4217","value":0}},{"url":"https://bluebutton.cms.gov/assets/ig/StructureDefinition-bluebutton-outpatient-clm-op-prvdr-pmt-amt-extension","valueMoney":{"code":"USD","system":"urn:iso:std:iso:4217","value":0}},{"url":"https://bluebutton.cms.gov/assets/ig/StructureDefinition-bluebutton-outpatient-clm-op-bene-pmt-amt-extension","valueMoney":{"code":"USD","system":"urn:iso:std:iso:4217","value":0}},{"url":"https://bluebutton.cms.gov/assets/ig/StructureDefinition-bluebutton-outpatient-nch-bene-blood-ddctbl-lblty-am-extension","valueMoney":{"code":"USD","system":"urn:iso:std:iso:4217","value":0}},{"url":"https://bluebutton.cms.gov/assets/ig/StructureDefinition-bluebutton-outpatient-clm-mdcr-non-pmt-rsn-cd-extension","valueCoding":{"code":"N","display":"All other reasons for non-payment","system":"https://bluebutton.cms.gov/assets/ig/CodeSystem-clm-mdcr-non-pmt-rsn-cd"}},{"url":"https://bluebutton.cms.gov/assets/ig/StructureDefinition-bluebutton-outpatient-prpayamt-extension","valueMoney":{"code":"USD","system":"urn:iso:std:iso:4217","value":0}},{"url":"https://bluebutton.cms.gov/assets/ig/StructureDefinition-bluebutton-outpatient-fi-num-extension","valueIdentifier":{"system":"https://bluebutton.cms.gov/assets/ig/CodeSystem-fi-num","value":"002000"}}],"id":"d0b1e60c-8865-4bd5-aa60-c2996bdf3d7f","identifier":[{"system":"https://bluebutton.cms.gov/resources/variables/clm_id","value":"803c68c5-5e33-4615-8aca-35e26853319b"},{"system":"https://bluebutton.cms.gov/resources/identifier/claim-group","value":"99999999999"}],"insurance":{"coverage":{"reference":"#coverage"}},"item":[{"extension":[{"url":"https://bluebutton.cms.gov/assets/ig/StructureDefinition-bluebutton-outpatient-rev-cntr-ndc-qty-extension","valueQuantity":{"value":0}}],"locationCodeableConcept":{"coding":[{"code":"21","display":"Inpatient Hospital","system":"https://bluebutton.cms.gov/resources/variables/line_place_of_srvc_cd"}]},"sequence":1}],"meta":{"lastUpdated":"2019-04-09T10:20:50.826830+00:00","profile":["https://bluebutton.cms.gov/assets/ig/StructureDefinition-bluebutton-outpatient-claim"],"versionId":"MTU1NDgwNTI1MDgyNjgzMDAwMA"},"organization":{"identifier":{"value":"36a03348-cac3-4284-b8c1-ffff7032af72"}},"patient":{"reference":"Patient/00a04f0e-43ec-4c22-b0e3-541e1dabd3af"},"payment":{"amount":{"code":"USD","system":"urn:iso:std:iso:4217","value":0}},"provider":{"identifier":{"value":"80e8e6bd-5973-4681-bb2a-74927c72d003"}},"resourceType":"ExplanationOfBenefit","status":"active","totalCost":{"code":"USD","system":"urn:iso:std:iso:4217","value":125},"type":{"coding":[{"code":"71","display":"Local carrier non-durable medical equipment, prosthetics, orthotics, and supplies (DMEPOS) claim","system":"https://bluebutton.cms.gov/resources/variables/nch_clm_type_cd"},{"code":"CARRIER","display":"EOB Type","system":"https://bluebutton.cms.gov/resources/codesystem/eob-type"},{"code":"professional","display":"Claim Type","system":"http://hl7.org/fhir/ex-claimtype"},{"code":"O","display":"Part B physician/supplier claim record (processed by local carriers; can include DMEPOS services)","system":"https://bluebutton.cms.gov/resources/variables/nch_near_line_rec_ident_cd"}]}}},{"resource":{"billablePeriod":{"end":"2017-11-24T14:47:45-05:00","extension":[{"url":"https://bluebutton.cms.gov/assets/ig/StructureDefinition-bluebutton-outpatient-claim-query-cd-extension","valueCoding":{"code":"3","display":"Final Bill","system":"https://bluebutton.cms.gov/assets/ig/ValueSet-claim-query-cd"}}],"start":"2016-11-24T14:47:45-05:00"},"careTeam":[{"provider":{"identifier":{"system":"http://hl7.org/fhir/sid/us-npi","value":"99999999"}},"role":{"coding":[{"code":"primary","display":"Primary Care Practitioner","system":"http://hl7.org/fhir/claimcareteamrole"}]},"sequence":1}],"contained":[{"id":"coverage","resourceType":"Coverage","type":{"text":"private"}}],"extension":[{"url":"https://bluebutton.cms.gov/assets/ig/StructureDefinition-bluebutton-outpatient-nch-profnl-cmpnt-chrg-amt-extension","valueMoney":{"code":"USD","system":"urn:iso:std:iso:4217","value":0}},{"url":"https://bluebutton.cms.gov/assets/ig/StructureDefinition-bluebutton-outpatient-nch-bene-ptb-ddctbl-amt-extension","valueMoney":{"code":"USD","system":"urn:iso:std:iso:4217","value":0}},{"url":"https://bluebutton.cms.gov/assets/ig/StructureDefinition-bluebutton-outpatient-nch-bene-ptb-coinsrnc-amt-extension","valueMoney":{"code":"USD","system":"urn:iso:std:iso:4217","value":0}},{"url":"https://bluebutton.cms.gov/assets/ig/StructureDefinition-bluebutton-outpatient-clm-op-prvdr-pmt-amt-extension","valueMoney":{"code":"USD","system":"urn:iso:std:iso:4217","value":0}},{"url":"https://bluebutton.cms.gov/assets/ig/StructureDefinition-bluebutton-outpatient-clm-op-bene-pmt-amt-extension","valueMoney":{"code":"USD","system":"urn:iso:std:iso:4217","value":0}},{"url":"https://bluebutton.cms.gov/assets/ig/StructureDefinition-bluebutton-outpatient-nch-bene-blood-ddctbl-lblty-am-extension","valueMoney":{"code":"USD","system":"urn:iso:std:iso:4217","value":0}},{"url":"https://bluebutton.cms.gov/assets/ig/StructureDefinition-bluebutton-outpatient-clm-mdcr-non-pmt-rsn-cd-extension","valueCoding":{"code":"N","display":"All other reasons for non-payment","system":"https://bluebutton.cms.gov/assets/ig/CodeSystem-clm-mdcr-non-pmt-rsn-cd"}},{"url":"https://bluebutton.cms.gov/assets/ig/StructureDefinition-bluebutton-outpatient-prpayamt-extension","valueMoney":{"code":"USD","system":"urn:iso:std:iso:4217","value":0}},{"url":"https://bluebutton.cms.gov/assets/ig/StructureDefinition-bluebutton-outpatient-fi-num-extension","valueIdentifier":{"system":"https://bluebutton.cms.gov/assets/ig/CodeSystem-fi-num","value":"002000"}}],"id":"d689de26-f10b-431a-8c9b-6c3808f5a2e2","identifier":[{"system":"https://bluebutton.cms.gov/resources/variables/clm_id","value":"4cf7c99f-2875-4308-8ce7-b64c7d8219eb"},{"system":"https://bluebutton.cms.gov/resources/identifier/claim-group","value":"99999999999"}],"insurance":{"coverage":{"reference":"#coverage"}},"item":[{"extension":[{"url":"https://bluebutton.cms.gov/assets/ig/StructureDefinition-bluebutton-outpatient-rev-cntr-ndc-qty-extension","valueQuantity":{"value":0}}],"locationCodeableConcept":{"coding":[{"code":"21","display":"Inpatient Hospital","system":"https://bluebutton.cms.gov/resources/variables/line_place_of_srvc_cd"}]},"sequence":1}],"meta":{"lastUpdated":"2019-04-09T10:20:51.870464+00:00","profile":["https://bluebutton.cms.gov/assets/ig/StructureDefinition-bluebutton-outpatient-claim"],"versionId":"MTU1NDgwNTI1MTg3MDQ2NDAwMA"},"organization":{"identifier":{"value":"36a03348-cac3-4284-b8c1-ffff7032af72"}},"patient":{"reference":"Patient/00a04f0e-43ec-4c22-b0e3-541e1dabd3af"},"payment":{"amount":{"code":"USD","system":"urn:iso:std:iso:4217","value":0}},"provider":{"identifier":{"value":"80e8e6bd-5973-4681-bb2a-74927c72d003"}},"resourceType":"ExplanationOfBenefit","status":"active","totalCost":{"code":"USD","system":"urn:iso:std:iso:4217","value":125},"type":{"coding":[{"code":"71","display":"Local carrier non-durable medical equipment, prosthetics, orthotics, and supplies (DMEPOS) claim","system":"https://bluebutton.cms.gov/resources/variables/nch_clm_type_cd"},{"code":"CARRIER","display":"EOB Type","system":"https://bluebutton.cms.gov/resources/codesystem/eob-type"},{"code":"professional","display":"Claim Type","system":"http://hl7.org/fhir/ex-claimtype"},{"code":"O","display":"Part B physician/supplier claim record (processed by local carriers; can include DMEPOS services)","system":"https://bluebutton.cms.gov/resources/variables/nch_near_line_rec_ident_cd"}]}}},{"resource":{"billablePeriod":{"end":"2013-10-08T15:32:45-04:00","extension":[{"url":"https://bluebutton.cms.gov/assets/ig/StructureDefinition-bluebutton-inpatient-claim-query-cd-extension","valueCoding":{"code":"3","display":"Final Bill","system":"https://bluebutton.cms.gov/assets/ig/ValueSet-claim-query-cd"}}],"start":"2012-10-08T15:32:45-04:00"},"careTeam":[{"provider":{"identifier":{"system":"http://hl7.org/fhir/sid/us-npi","value":"99999999"}},"role":{"coding":[{"code":"primary","display":"Primary Care Practitioner","system":"http://hl7.org/fhir/claimcareteamrole"}]},"sequence":1}],"contained":[{"id":"coverage","resourceType":"Coverage","type":{"text":"private"}}],"extension":[{"url":"https://bluebutton.cms.gov/assets/ig/StructureDefinition-bluebutton-inpatient-ime-op-clm-val-amt-extension","valueMoney":{"code":"USD","system":"urn:iso:std:iso:4217","value":400}},{"url":"https://bluebutton.cms.gov/assets/ig/StructureDefinition-bluebutton-inpatient-dsh-op-clm-val-amt-extension","valueMoney":{"code":"USD","system":"urn:iso:std:iso:4217","value":0}},{"url":"https://bluebutton.cms.gov/assets/ig/StructureDefinition-bluebutton-inpatient-clm-pass-thru-per-diem-amt-extension","valueMoney":{"code":"USD","system":"urn:iso:std:iso:4217","value":0}},{"url":"https://bluebutton.cms.gov/assets/ig/StructureDefinition-bluebutton-inpatient-nch-profnl-cmpnt-chrg-amt-extension","valueMoney":{"code":"USD","system":"urn:iso:std:iso:4217","value":0}},{"url":"https://bluebutton.cms.gov/assets/ig/StructureDefinition-bluebutton-inpatient-clm-tot-pps-cptl-amt-extension","valueMoney":{"code":"USD","system":"urn:iso:std:iso:4217","value":0}},{"url":"https://bluebutton.cms.gov/assets/ig/StructureDefinition-bluebutton-inpatient-nch-bene-ip-ddctbl-amt-extension","valueMoney":{"code":"USD","system":"urn:iso:std:iso:4217","value":0}},{"url":"https://bluebutton.cms.gov/assets/ig/StructureDefinition-bluebutton-inpatient-nch-bene-pta-coinsrnc-lblty-amt-extension","valueMoney":{"code":"USD","system":"urn:iso:std:iso:4217","value":0}},{"url":"https://bluebutton.cms.gov/assets/ig/StructureDefinition-bluebutton-inpatient-nch-ip-ncvrd-chrg-amt-extension","valueMoney":{"code":"USD","system":"urn:iso:std:iso:4217","value":0}},{"url":"https://bluebutton.cms.gov/assets/ig/StructureDefinition-bluebutton-inpatient-nch-ip-tot-ddctn-amt-extension","valueMoney":{"code":"USD","system":"urn:iso:std:iso:4217","value":0}},{"url":"https://bluebutton.cms.gov/assets/ig/StructureDefinition-bluebutton-inpatient-clm-pps-cptl-dsprprtnt-shr-amt-extension","valueMoney":{"code":"USD","system":"urn:iso:std:iso:4217","value":0}},{"url":"https://bluebutton.cms.gov/assets/ig/StructureDefinition-bluebutton-inpatient-clm-pps-cptl-excptn-amt-extension","valueMoney":{"code":"USD","system":"urn:iso:std:iso:4217","value":0}},{"url":"https://bluebutton.cms.gov/assets/ig/StructureDefinition-bluebutton-inpatient-clm-pps-cptl-fsp-amt-extension","valueMoney":{"code":"USD","system":"urn:iso:std:iso:4217","value":0}},{"url":"https://bluebutton.cms.gov/assets/ig/StructureDefinition-bluebutton-inpatient-clm-pps-cptl-ime-amt-extension","valueMoney":{"code":"USD","system":"urn:iso:std:iso:4217","value":400}},{"url":"https://bluebutton.cms.gov/assets/ig/StructureDefinition-bluebutton-inpatient-clm-pps-cptl-outlier-amt-extension","valueMoney":{"code":"USD","system":"urn:iso:std:iso:4217","value":0}},{"url":"https://bluebutton.cms.gov/assets/ig/StructureDefinition-bluebutton-inpatient-clm-pps-old-cptl-hld-hrmls-amt-extension","valueMoney":{"code":"USD","system":"urn:iso:std:iso:4217","value":0}},{"url":"https://bluebutton.cms.gov/assets/ig/StructureDefinition-bluebutton-inpatient-nch-drg-outlier-aprvd-pmt-amt-extension","valueMoney":{"code":"USD","system":"urn:iso:std:iso:4217","value":0}},{"url":"https://bluebutton.cms.gov/assets/ig/StructureDefinition-bluebutton-inpatient-nch-bene-blood-ddctbl-lblty-am-extension","valueMoney":{"code":"USD","system":"urn:iso:std:iso:4217","value":0}},{"url":"https://bluebutton.cms.gov/assets/ig/StructureDefinition-bluebutton-inpatient-clm-mdcr-non-pmt-rsn-cd-extension","valueCoding":{"code":"N","display":"All other reasons for non-payment","system":"https://bluebutton.cms.gov/assets/ig/CodeSystem-clm-mdcr-non-pmt-rsn-cd"}},{"url":"https://bluebutton.cms.gov/assets/ig/StructureDefinition-bluebutton-inpatient-prpayamt-extension","valueMoney":{"code":"USD","system":"urn:iso:std:iso:4217","value":0}},{"url":"https://bluebutton.cms.gov/assets/ig/StructureDefinition-bluebutton-inpatient-fi-num-extension","valueIdentifier":{"system":"https://bluebutton.cms.gov/assets/ig/CodeSystem-fi-num","value":"002000"}}],"id":"dea52a63-e228-454f-96c5-9f91bfb21f8a","identifier":[{"system":"https://bluebutton.cms.gov/resources/variables/clm_id","value":"20c1b2f3-7a77-49af-8168-486e1cdcf4a6"},{"system":"https://bluebutton.cms.gov/resources/identifier/claim-group","value":"99999999999"}],"insurance":{"coverage":{"reference":"#coverage"}},"item":[{"extension":[{"url":"https://bluebutton.cms.gov/assets/ig/StructureDefinition-bluebutton-inpatient-rev-cntr-ndc-qty-extension","valueQuantity":{"value":0}}],"locationCodeableConcept":{"coding":[{"code":"21","display":"Inpatient Hospital","system":"https://bluebutton.cms.gov/resources/variables/line_place_of_srvc_cd"}]},"sequence":1}],"meta":{"lastUpdated":"2019-04-09T10:20:49.823630+00:00","profile":["https://bluebutton.cms.gov/assets/ig/StructureDefinition-bluebutton-inpatient-claim"],"versionId":"MTU1NDgwNTI0OTgyMzYzMDAwMA"},"organization":{"identifier":{"value":"36a03348-cac3-4284-b8c1-ffff7032af72"}},"patient":{"reference":"Patient/00a04f0e-43ec-4c22-b0e3-541e1dabd3af"},"payment":{"amount":{"code":"USD","system":"urn:iso:std:iso:4217","value":0}},"provider":{"identifier":{"value":"80e8e6bd-5973-4681-bb2a-74927c72d003"}},"resourceType":"ExplanationOfBenefit","status":"active","totalCost":{"code":"USD","system":"urn:iso:std:iso:4217","value":75},"type":{"coding":[{"code":"71","display":"Local carrier non-durable medical equipment, prosthetics, orthotics, and supplies (DMEPOS) claim","system":"https://bluebutton.cms.gov/resources/variables/nch_clm_type_cd"},{"code":"CARRIER","display":"EOB Type","system":"https://bluebutton.cms.gov/resources/codesystem/eob-type"},{"code":"professional","display":"Claim Type","system":"http://hl7.org/fhir/ex-claimtype"},{"code":"O","display":"Part B physician/supplier claim record (processed by local carriers; can include DMEPOS services)","system":"https://bluebutton.cms.gov/resources/variables/nch_near_line_rec_ident_cd"}]}}},{"resource":{"billablePeriod":{"end":"2019-11-14T14:47:45-05:00","extension":[{"url":"https://bluebutton.cms.gov/assets/ig/StructureDefinition-bluebutton-outpatient-claim-query-cd-extension","valueCoding":{"code":"3","display":"Final Bill","system":"https://bluebutton.cms.gov/assets/ig/ValueSet-claim-query-cd"}}],"start":"2018-11-14T14:47:45-05:00"},"careTeam":[{"provider":{"identifier":{"system":"http://hl7.org/fhir/sid/us-npi","value":"99999999"}},"role":{"coding":[{"code":"primary","display":"Primary Care Practitioner","system":"http://hl7.org/fhir/claimcareteamrole"}]},"sequence":1}],"contained":[{"id":"coverage","resourceType":"Coverage","type":{"text":"private"}}],"extension":[{"url":"https://bluebutton.cms.gov/assets/ig/StructureDefinition-bluebutton-outpatient-nch-profnl-cmpnt-chrg-amt-extension","valueMoney":{"code":"USD","system":"urn:iso:std:iso:4217","value":0}},{"url":"https://bluebutton.cms.gov/assets/ig/StructureDefinition-bluebutton-outpatient-nch-bene-ptb-ddctbl-amt-extension","valueMoney":{"code":"USD","system":"urn:iso:std:iso:4217","value":0}},{"url":"https://bluebutton.cms.gov/assets/ig/StructureDefinition-bluebutton-outpatient-nch-bene-ptb-coinsrnc-amt-extension","valueMoney":{"code":"USD","system":"urn:iso:std:iso:4217","value":0}},{"url":"https://bluebutton.cms.gov/assets/ig/StructureDefinition-bluebutton-outpatient-clm-op-prvdr-pmt-amt-extension","valueMoney":{"code":"USD","system":"urn:iso:std:iso:4217","value":0}},{"url":"https://bluebutton.cms.gov/assets/ig/StructureDefinition-bluebutton-outpatient-clm-op-bene-pmt-amt-extension","valueMoney":{"code":"USD","system":"urn:iso:std:iso:4217","value":0}},{"url":"https://bluebutton.cms.gov/assets/ig/StructureDefinition-bluebutton-outpatient-nch-bene-blood-ddctbl-lblty-am-extension","valueMoney":{"code":"USD","system":"urn:iso:std:iso:4217","value":0}},{"url":"https://bluebutton.cms.gov/assets/ig/StructureDefinition-bluebutton-outpatient-clm-mdcr-non-pmt-rsn-cd-extension","valueCoding":{"code":"N","display":"All other reasons for non-payment","system":"https://bluebutton.cms.gov/assets/ig/CodeSystem-clm-mdcr-non-pmt-rsn-cd"}},{"url":"https://bluebutton.cms.gov/assets/ig/StructureDefinition-bluebutton-outpatient-prpayamt-extension","valueMoney":{"code":"USD","system":"urn:iso:std:iso:4217","value":0}},{"url":"https://bluebutton.cms.gov/assets/ig/StructureDefinition-bluebutton-outpatient-fi-num-extension","valueIdentifier":{"system":"https://bluebutton.cms.gov/assets/ig/CodeSystem-fi-num","value":"002000"}}],"id":"e08b6faa-372b-4f24-bbb1-9a42b0284f49","identifier":[{"system":"https://bluebutton.cms.gov/resources/variables/clm_id","value":"92d82f7b-8800-485e-9686-54531191160a"},{"system":"https://bluebutton.cms.gov/resources/identifier/claim-group","value":"99999999999"}],"insurance":{"coverage":{"reference":"#coverage"}},"item":[{"extension":[{"url":"https://bluebutton.cms.gov/assets/ig/StructureDefinition-bluebutton-outpatient-rev-cntr-ndc-qty-extension","valueQuantity":{"value":0}}],"locationCodeableConcept":{"coding":[{"code":"21","display":"Inpatient Hospital","system":"https://bluebutton.cms.gov/resources/variables/line_place_of_srvc_cd"}]},"sequence":1}],"meta":{"lastUpdated":"2019-04-09T10:20:52.938618+00:00","profile":["https://bluebutton.cms.gov/assets/ig/StructureDefinition-bluebutton-outpatient-claim"],"versionId":"MTU1NDgwNTI1MjkzODYxODAwMA"},"organization":{"identifier":{"value":"36a03348-cac3-4284-b8c1-ffff7032af72"}},"patient":{"reference":"Patient/00a04f0e-43ec-4c22-b0e3-541e1dabd3af"},"payment":{"amount":{"code":"USD","system":"urn:iso:std:iso:4217","value":0}},"provider":{"identifier":{"value":"80e8e6bd-5973-4681-bb2a-74927c72d003"}},"resourceType":"ExplanationOfBenefit","status":"active","totalCost":{"code":"USD","system":"urn:iso:std:iso:4217","value":125},"type":{"coding":[{"code":"71","display":"Local carrier non-durable medical equipment, prosthetics, orthotics, and supplies (DMEPOS) claim","system":"https://bluebutton.cms.gov/resources/variables/nch_clm_type_cd"},{"code":"CARRIER","display":"EOB Type","system":"https://bluebutton.cms.gov/resources/codesystem/eob-type"},{"code":"professional","display":"Claim Type","system":"http://hl7.org/fhir/ex-claimtype"},{"code":"O","display":"Part B physician/supplier claim record (processed by local carriers; can include DMEPOS services)","system":"https://bluebutton.cms.gov/resources/variables/nch_near_line_rec_ident_cd"}]}}},{"resource":{"billablePeriod":{"end":"2018-01-22T14:47:45-05:00","extension":[{"url":"https://bluebutton.cms.gov/assets/ig/StructureDefinition-bluebutton-outpatient-claim-query-cd-extension","valueCoding":{"code":"3","display":"Final Bill","system":"https://bluebutton.cms.gov/assets/ig/ValueSet-claim-query-cd"}}],"start":"2017-01-22T14:47:45-05:00"},"careTeam":[{"provider":{"identifier":{"system":"http://hl7.org/fhir/sid/us-npi","value":"99999999"}},"role":{"coding":[{"code":"primary","display":"Primary Care Practitioner","system":"http://hl7.org/fhir/claimcareteamrole"}]},"sequence":1}],"contained":[{"id":"coverage","resourceType":"Coverage","type":{"text":"private"}}],"extension":[{"url":"https://bluebutton.cms.gov/assets/ig/StructureDefinition-bluebutton-outpatient-nch-profnl-cmpnt-chrg-amt-extension","valueMoney":{"code":"USD","system":"urn:iso:std:iso:4217","value":0}},{"url":"https://bluebutton.cms.gov/assets/ig/StructureDefinition-bluebutton-outpatient-nch-bene-ptb-ddctbl-amt-extension","valueMoney":{"code":"USD","system":"urn:iso:std:iso:4217","value":0}},{"url":"https://bluebutton.cms.gov/assets/ig/StructureDefinition-bluebutton-outpatient-nch-bene-ptb-coinsrnc-amt-extension","valueMoney":{"code":"USD","system":"urn:iso:std:iso:4217","value":0}},{"url":"https://bluebutton.cms.gov/assets/ig/StructureDefinition-bluebutton-outpatient-clm-op-prvdr-pmt-amt-extension","valueMoney":{"code":"USD","system":"urn:iso:std:iso:4217","value":0}},{"url":"https://bluebutton.cms.gov/assets/ig/StructureDefinition-bluebutton-outpatient-clm-op-bene-pmt-amt-extension","valueMoney":{"code":"USD","system":"urn:iso:std:iso:4217","value":0}},{"url":"https://bluebutton.cms.gov/assets/ig/StructureDefinition-bluebutton-outpatient-nch-bene-blood-ddctbl-lblty-am-extension","valueMoney":{"code":"USD","system":"urn:iso:std:iso:4217","value":0}},{"url":"https://bluebutton.cms.gov/assets/ig/StructureDefinition-bluebutton-outpatient-clm-mdcr-non-pmt-rsn-cd-extension","valueCoding":{"code":"N","display":"All other reasons for non-payment","system":"https://bluebutton.cms.gov/assets/ig/CodeSystem-clm-mdcr-non-pmt-rsn-cd"}},{"url":"https://bluebutton.cms.gov/assets/ig/StructureDefinition-bluebutton-outpatient-prpayamt-extension","valueMoney":{"code":"USD","system":"urn:iso:std:iso:4217","value":0}},{"url":"https://bluebutton.cms.gov/assets/ig/StructureDefinition-bluebutton-outpatient-fi-num-extension","valueIdentifier":{"system":"https://bluebutton.cms.gov/assets/ig/CodeSystem-fi-num","value":"002000"}}],"id":"e25e18cf-b2e2-4e35-a34e-14b4a8613599","identifier":[{"system":"https://bluebutton.cms.gov/resources/variables/clm_id","value":"bb9027d1-65cc-4c26-a5d6-52b5cb9b23c7"},{"system":"https://bluebutton.cms.gov/resources/identifier/claim-group","value":"99999999999"}],"insurance":{"coverage":{"reference":"#coverage"}},"item":[{"extension":[{"url":"https://bluebutton.cms.gov/assets/ig/StructureDefinition-bluebutton-outpatient-rev-cntr-ndc-qty-extension","valueQuantity":{"value":0}}],"locationCodeableConcept":{"coding":[{"code":"21","display":"Inpatient Hospital","system":"https://bluebutton.cms.gov/resources/variables/line_place_of_srvc_cd"}]},"sequence":1}],"meta":{"lastUpdated":"2019-04-09T10:20:51.859807+00:00","profile":["https://bluebutton.cms.gov/assets/ig/StructureDefinition-bluebutton-outpatient-claim"],"versionId":"MTU1NDgwNTI1MTg1OTgwNzAwMA"},"organization":{"identifier":{"value":"36a03348-cac3-4284-b8c1-ffff7032af72"}},"patient":{"reference":"Patient/00a04f0e-43ec-4c22-b0e3-541e1dabd3af"},"payment":{"amount":{"code":"USD","system":"urn:iso:std:iso:4217","value":0}},"provider":{"identifier":{"value":"80e8e6bd-5973-4681-bb2a-74927c72d003"}},"resourceType":"ExplanationOfBenefit","status":"active","totalCost":{"code":"USD","system":"urn:iso:std:iso:4217","value":125},"type":{"coding":[{"code":"71","display":"Local carrier non-durable medical equipment, prosthetics, orthotics, and supplies (DMEPOS) claim","system":"https://bluebutton.cms.gov/resources/variables/nch_clm_type_cd"},{"code":"CARRIER","display":"EOB Type","system":"https://bluebutton.cms.gov/resources/codesystem/eob-type"},{"code":"professional","display":"Claim Type","system":"http://hl7.org/fhir/ex-claimtype"},{"code":"O","display":"Part B physician/supplier claim record (processed by local carriers; can include DMEPOS services)","system":"https://bluebutton.cms.gov/resources/variables/nch_near_line_rec_ident_cd"}]}}},{"resource":{"billablePeriod":{"end":"2013-06-30T16:17:45-04:00","extension":[{"url":"https://bluebutton.cms.gov/assets/ig/StructureDefinition-bluebutton-inpatient-claim-query-cd-extension","valueCoding":{"code":"3","display":"Final Bill","system":"https://bluebutton.cms.gov/assets/ig/ValueSet-claim-query-cd"}}],"start":"2012-06-30T16:17:45-04:00"},"careTeam":[{"provider":{"identifier":{"system":"http://hl7.org/fhir/sid/us-npi","value":"99999999"}},"role":{"coding":[{"code":"primary","display":"Primary Care Practitioner","system":"http://hl7.org/fhir/claimcareteamrole"}]},"sequence":1}],"contained":[{"id":"coverage","resourceType":"Coverage","type":{"text":"private"}}],"extension":[{"url":"https://bluebutton.cms.gov/assets/ig/StructureDefinition-bluebutton-inpatient-ime-op-clm-val-amt-extension","valueMoney":{"code":"USD","system":"urn:iso:std:iso:4217","value":400}},{"url":"https://bluebutton.cms.gov/assets/ig/StructureDefinition-bluebutton-inpatient-dsh-op-clm-val-amt-extension","valueMoney":{"code":"USD","system":"urn:iso:std:iso:4217","value":0}},{"url":"https://bluebutton.cms.gov/assets/ig/StructureDefinition-bluebutton-inpatient-clm-pass-thru-per-diem-amt-extension","valueMoney":{"code":"USD","system":"urn:iso:std:iso:4217","value":0}},{"url":"https://bluebutton.cms.gov/assets/ig/StructureDefinition-bluebutton-inpatient-nch-profnl-cmpnt-chrg-amt-extension","valueMoney":{"code":"USD","system":"urn:iso:std:iso:4217","value":0}},{"url":"https://bluebutton.cms.gov/assets/ig/StructureDefinition-bluebutton-inpatient-clm-tot-pps-cptl-amt-extension","valueMoney":{"code":"USD","system":"urn:iso:std:iso:4217","value":0}},{"url":"https://bluebutton.cms.gov/assets/ig/StructureDefinition-bluebutton-inpatient-nch-bene-ip-ddctbl-amt-extension","valueMoney":{"code":"USD","system":"urn:iso:std:iso:4217","value":0}},{"url":"https://bluebutton.cms.gov/assets/ig/StructureDefinition-bluebutton-inpatient-nch-bene-pta-coinsrnc-lblty-amt-extension","valueMoney":{"code":"USD","system":"urn:iso:std:iso:4217","value":0}},{"url":"https://bluebutton.cms.gov/assets/ig/StructureDefinition-bluebutton-inpatient-nch-ip-ncvrd-chrg-amt-extension","valueMoney":{"code":"USD","system":"urn:iso:std:iso:4217","value":0}},{"url":"https://bluebutton.cms.gov/assets/ig/StructureDefinition-bluebutton-inpatient-nch-ip-tot-ddctn-amt-extension","valueMoney":{"code":"USD","system":"urn:iso:std:iso:4217","value":0}},{"url":"https://bluebutton.cms.gov/assets/ig/StructureDefinition-bluebutton-inpatient-clm-pps-cptl-dsprprtnt-shr-amt-extension","valueMoney":{"code":"USD","system":"urn:iso:std:iso:4217","value":0}},{"url":"https://bluebutton.cms.gov/assets/ig/StructureDefinition-bluebutton-inpatient-clm-pps-cptl-excptn-amt-extension","valueMoney":{"code":"USD","system":"urn:iso:std:iso:4217","value":0}},{"url":"https://bluebutton.cms.gov/assets/ig/StructureDefinition-bluebutton-inpatient-clm-pps-cptl-fsp-amt-extension","valueMoney":{"code":"USD","system":"urn:iso:std:iso:4217","value":0}},{"url":"https://bluebutton.cms.gov/assets/ig/StructureDefinition-bluebutton-inpatient-clm-pps-cptl-ime-amt-extension","valueMoney":{"code":"USD","system":"urn:iso:std:iso:4217","value":400}},{"url":"https://bluebutton.cms.gov/assets/ig/StructureDefinition-bluebutton-inpatient-clm-pps-cptl-outlier-amt-extension","valueMoney":{"code":"USD","system":"urn:iso:std:iso:4217","value":0}},{"url":"https://bluebutton.cms.gov/assets/ig/StructureDefinition-bluebutton-inpatient-clm-pps-old-cptl-hld-hrmls-amt-extension","valueMoney":{"code":"USD","system":"urn:iso:std:iso:4217","value":0}},{"url":"https://bluebutton.cms.gov/assets/ig/StructureDefinition-bluebutton-inpatient-nch-drg-outlier-aprvd-pmt-amt-extension","valueMoney":{"code":"USD","system":"urn:iso:std:iso:4217","value":0}},{"url":"https://bluebutton.cms.gov/assets/ig/StructureDefinition-bluebutton-inpatient-nch-bene-blood-ddctbl-lblty-am-extension","valueMoney":{"code":"USD","system":"urn:iso:std:iso:4217","value":0}},{"url":"https://bluebutton.cms.gov/assets/ig/StructureDefinition-bluebutton-inpatient-clm-mdcr-non-pmt-rsn-cd-extension","valueCoding":{"code":"N","display":"All other reasons for non-payment","system":"https://bluebutton.cms.gov/assets/ig/CodeSystem-clm-mdcr-non-pmt-rsn-cd"}},{"url":"https://bluebutton.cms.gov/assets/ig/StructureDefinition-bluebutton-inpatient-prpayamt-extension","valueMoney":{"code":"USD","system":"urn:iso:std:iso:4217","value":0}},{"url":"https://bluebutton.cms.gov/assets/ig/StructureDefinition-bluebutton-inpatient-fi-num-extension","valueIdentifier":{"system":"https://bluebutton.cms.gov/assets/ig/CodeSystem-fi-num","value":"002000"}}],"id":"e2ad231f-c288-472e-b513-91f00a6393ad","identifier":[{"system":"https://bluebutton.cms.gov/resources/variables/clm_id","value":"97461171-04e9-44a3-ad31-e6ae9f543d94"},{"system":"https://bluebutton.cms.gov/resources/identifier/claim-group","value":"99999999999"}],"insurance":{"coverage":{"reference":"#coverage"}},"item":[{"extension":[{"url":"https://bluebutton.cms.gov/assets/ig/StructureDefinition-bluebutton-inpatient-rev-cntr-ndc-qty-extension","valueQuantity":{"value":0}}],"locationCodeableConcept":{"coding":[{"code":"21","display":"Inpatient Hospital","system":"https://bluebutton.cms.gov/resources/variables/line_place_of_srvc_cd"}]},"sequence":1},{"adjudication":[{"amount":{"code":"USD","system":"urn:iso:std:iso:4217","value":890.472},"category":{"coding":[{"code":"https://bluebutton.cms.gov/resources/variables/line_coinsrnc_amt","display":"Line Beneficiary Coinsurance Amount","system":"https://bluebutton.cms.gov/resources/codesystem/adjudication"}]}},{"amount":{"code":"USD","system":"urn:iso:std:iso:4217","value":3561.888},"category":{"coding":[{"code":"https://bluebutton.cms.gov/resources/variables/line_prvdr_pmt_amt","display":"Line Provider Payment Amount","system":"https://bluebutton.cms.gov/resources/codesystem/adjudication"}]}},{"amount":{"code":"USD","system":"urn:iso:std:iso:4217","value":4452.36},"category":{"coding":[{"code":"https://bluebutton.cms.gov/resources/variables/line_sbmtd_chrg_amt","display":"Line Submitted Charge Amount","system":"https://bluebutton.cms.gov/resources/codesystem/adjudication"}]}},{"amount":{"code":"USD","system":"urn:iso:std:iso:4217","value":4452.36},"category":{"coding":[{"code":"https://bluebutton.cms.gov/resources/variables/line_alowd_chrg_amt","display":"Line Allowed Charge Amount","system":"https://bluebutton.cms.gov/resources/codesystem/adjudication"}]}},{"amount":{"code":"USD","system":"urn:iso:std:iso:4217","value":0},"category":{"coding":[{"code":"https://bluebutton.cms.gov/resources/variables/line_bene_ptb_ddctbl_amt","display":"Line Beneficiary Part B Deductible Amount","system":"https://bluebutton.cms.gov/resources/codesystem/adjudication"}]}},{"category":{"coding":[{"code":"https://bluebutton.cms.gov/resources/variables/line_prcsg_ind_cd","display":"Line Processing Indicator Code","system":"https://bluebutton.cms.gov/resources/codesystem/adjudication"}]}}],"extension":[{"url":"https://bluebutton.cms.gov/assets/ig/StructureDefinition-bluebutton-inpatient-rev-cntr-ndc-qty-extension","valueQuantity":{"value":0}}],"locationCodeableConcept":{"coding":[{"code":"21","display":"Inpatient Hospital","system":"https://bluebutton.cms.gov/resources/variables/line_place_of_srvc_cd"}]},"sequence":2,"service":{"coding":[{"code":"274804006","system":"http://snomed.info/sct","version":"v1"}]}},{"adjudication":[{"amount":{"code":"USD","system":"urn:iso:std:iso:4217","value":1021.966},"category":{"coding":[{"code":"https://bluebutton.cms.gov/resources/variables/line_coinsrnc_amt","display":"Line Beneficiary Coinsurance Amount","system":"https://bluebutton.cms.gov/resources/codesystem/adjudication"}]}},{"amount":{"code":"USD","system":"urn:iso:std:iso:4217","value":4087.864},"category":{"coding":[{"code":"https://bluebutton.cms.gov/resources/variables/line_prvdr_pmt_amt","display":"Line Provider Payment Amount","system":"https://bluebutton.cms.gov/resources/codesystem/adjudication"}]}},{"amount":{"code":"USD","system":"urn:iso:std:iso:4217","value":5109.83},"category":{"coding":[{"code":"https://bluebutton.cms.gov/resources/variables/line_sbmtd_chrg_amt","display":"Line Submitted Charge Amount","system":"https://bluebutton.cms.gov/resources/codesystem/adjudication"}]}},{"amount":{"code":"USD","system":"urn:iso:std:iso:4217","value":5109.83},"category":{"coding":[{"code":"https://bluebutton.cms.gov/resources/variables/line_alowd_chrg_amt","display":"Line Allowed Charge Amount","system":"https://bluebutton.cms.gov/resources/codesystem/adjudication"}]}},{"amount":{"code":"USD","system":"urn:iso:std:iso:4217","value":0},"category":{"coding":[{"code":"https://bluebutton.cms.gov/resources/variables/line_bene_ptb_ddctbl_amt","display":"Line Beneficiary Part B Deductible Amount","system":"https://bluebutton.cms.gov/resources/codesystem/adjudication"}]}},{"category":{"coding":[{"code":"https://bluebutton.cms.gov/resources/variables/line_prcsg_ind_cd","display":"Line Processing Indicator Code","system":"https://bluebutton.cms.gov/resources/codesystem/adjudication"}]}}],"extension":[{"url":"https://bluebutton.cms.gov/assets/ig/StructureDefinition-bluebutton-inpatient-rev-cntr-ndc-qty-extension","valueQuantity":{"value":0}}],"locationCodeableConcept":{"coding":[{"code":"21","display":"Inpatient Hospital","system":"https://bluebutton.cms.gov/resources/variables/line_place_of_srvc_cd"}]},"sequence":3,"service":{"coding":[{"code":"225158009","system":"http://snomed.info/sct","version":"v1"}]}}],"meta":{"lastUpdated":"2019-04-09T10:20:48.796917+00:00","profile":["https://bluebutton.cms.gov/assets/ig/StructureDefinition-bluebutton-inpatient-claim"],"versionId":"MTU1NDgwNTI0ODc5NjkxNzAwMA"},"organization":{"identifier":{"value":"36a03348-cac3-4284-b8c1-ffff7032af72"}},"patient":{"reference":"Patient/00a04f0e-43ec-4c22-b0e3-541e1dabd3af"},"payment":{"amount":{"code":"USD","system":"urn:iso:std:iso:4217","value":7649.752}},"provider":{"identifier":{"value":"80e8e6bd-5973-4681-bb2a-74927c72d003"}},"resourceType":"ExplanationOfBenefit","status":"active","totalCost":{"code":"USD","system":"urn:iso:std:iso:4217","value":9687.19},"type":{"coding":[{"code":"71","display":"Local carrier non-durable medical equipment, prosthetics, orthotics, and supplies (DMEPOS) claim","system":"https://bluebutton.cms.gov/resources/variables/nch_clm_type_cd"},{"code":"CARRIER","display":"EOB Type","system":"https://bluebutton.cms.gov/resources/codesystem/eob-type"},{"code":"professional","display":"Claim Type","system":"http://hl7.org/fhir/ex-claimtype"},{"code":"O","display":"Part B physician/supplier claim record (processed by local carriers; can include DMEPOS services)","system":"https://bluebutton.cms.gov/resources/variables/nch_near_line_rec_ident_cd"}]}}},{"resource":{"billablePeriod":{"end":"2019-09-06T16:32:45-04:00","start":"2018-09-06T16:32:45-04:00"},"careTeam":[{"provider":{"identifier":{"system":"http://hl7.org/fhir/sid/us-npi","value":"99999999"}},"role":{"coding":[{"code":"primary","display":"Primary Care Practitioner","system":"http://hl7.org/fhir/claimcareteamrole"}]},"sequence":1}],"claim":{"reference":"Claim/3f9d912e-f469-43ed-b48a-5a8230553ecb"},"contained":[{"id":"1","intent":"order","recipient":[{"identifier":{"system":"http://hl7.org/fhir/sid/us-npi","value":"99999999"}}],"requester":{"agent":{"identifier":{"system":"http://hl7.org/fhir/sid/us-npi","value":"99999999"}}},"resourceType":"ReferralRequest","status":"completed","subject":{"reference":"Patient/00a04f0e-43ec-4c22-b0e3-541e1dabd3af"}},{"id":"coverage","resourceType":"Coverage","type":{"text":"private"}}],"created":"2018-09-06T16:32:45-04:00","id":"e5dcf0d2-4020-49f5-ac64-a4cf15c6b314","identifier":[{"system":"https://bluebutton.cms.gov/resources/variables/clm_id","value":"3f9d912e-f469-43ed-b48a-5a8230553ecb"},{"system":"https://bluebutton.cms.gov/resources/identifier/claim-group","value":"99999999999"}],"insurance":{"coverage":{"reference":"#coverage"}},"item":[{"category":{"coding":[{"code":"1","display":"Medical care","system":"https://bluebutton.cms.gov/resources/variables/line_cms_type_srvc_cd"}]},"encounter":[{"reference":"Encounter/55b5564a-966e-4d7b-a468-4c3b26d59930"}],"locationCodeableConcept":{"coding":[{"code":"23","display":"Emergency Room","system":"https://bluebutton.cms.gov/resources/variables/line_place_of_srvc_cd"}]},"sequence":1,"servicedPeriod":{"end":"2018-09-06T16:32:45-04:00","start":"2018-09-06T15:32:45-04:00"}}],"meta":{"lastUpdated":"2019-04-09T10:20:52.943904+00:00","versionId":"MTU1NDgwNTI1Mjk0MzkwNDAwMA"},"organization":{"identifier":{"value":"36a03348-cac3-4284-b8c1-ffff7032af72"}},"patient":{"reference":"Patient/00a04f0e-43ec-4c22-b0e3-541e1dabd3af"},"payment":{"amount":{"code":"USD","system":"urn:iso:std:iso:4217","value":0}},"provider":{"identifier":{"value":"80e8e6bd-5973-4681-bb2a-74927c72d003"}},"referral":{"reference":"#1"},"resourceType":"ExplanationOfBenefit","status":"active","totalCost":{"code":"USD","system":"urn:iso:std:iso:4217","value":125},"type":{"coding":[{"code":"71","display":"Local carrier non-durable medical equipment, prosthetics, orthotics, and supplies (DMEPOS) claim","system":"https://bluebutton.cms.gov/resources/variables/nch_clm_type_cd"},{"code":"CARRIER","display":"EOB Type","system":"https://bluebutton.cms.gov/resources/codesystem/eob-type"},{"code":"professional","display":"Claim Type","system":"http://hl7.org/fhir/ex-claimtype"},{"code":"O","display":"Part B physician/supplier claim record (processed by local carriers; can include DMEPOS services)","system":"https://bluebutton.cms.gov/resources/variables/nch_near_line_rec_ident_cd"}]}}},{"resource":{"billablePeriod":{"end":"2011-07-09T15:32:45-04:00","extension":[{"url":"https://bluebutton.cms.gov/assets/ig/StructureDefinition-bluebutton-inpatient-claim-query-cd-extension","valueCoding":{"code":"3","display":"Final Bill","system":"https://bluebutton.cms.gov/assets/ig/ValueSet-claim-query-cd"}}],"start":"2010-07-09T15:32:45-04:00"},"careTeam":[{"provider":{"identifier":{"system":"http://hl7.org/fhir/sid/us-npi","value":"99999999"}},"role":{"coding":[{"code":"primary","display":"Primary Care Practitioner","system":"http://hl7.org/fhir/claimcareteamrole"}]},"sequence":1}],"contained":[{"id":"coverage","resourceType":"Coverage","type":{"text":"private"}}],"extension":[{"url":"https://bluebutton.cms.gov/assets/ig/StructureDefinition-bluebutton-inpatient-ime-op-clm-val-amt-extension","valueMoney":{"code":"USD","system":"urn:iso:std:iso:4217","value":400}},{"url":"https://bluebutton.cms.gov/assets/ig/StructureDefinition-bluebutton-inpatient-dsh-op-clm-val-amt-extension","valueMoney":{"code":"USD","system":"urn:iso:std:iso:4217","value":0}},{"url":"https://bluebutton.cms.gov/assets/ig/StructureDefinition-bluebutton-inpatient-clm-pass-thru-per-diem-amt-extension","valueMoney":{"code":"USD","system":"urn:iso:std:iso:4217","value":0}},{"url":"https://bluebutton.cms.gov/assets/ig/StructureDefinition-bluebutton-inpatient-nch-profnl-cmpnt-chrg-amt-extension","valueMoney":{"code":"USD","system":"urn:iso:std:iso:4217","value":0}},{"url":"https://bluebutton.cms.gov/assets/ig/StructureDefinition-bluebutton-inpatient-clm-tot-pps-cptl-amt-extension","valueMoney":{"code":"USD","system":"urn:iso:std:iso:4217","value":0}},{"url":"https://bluebutton.cms.gov/assets/ig/StructureDefinition-bluebutton-inpatient-nch-bene-ip-ddctbl-amt-extension","valueMoney":{"code":"USD","system":"urn:iso:std:iso:4217","value":0}},{"url":"https://bluebutton.cms.gov/assets/ig/StructureDefinition-bluebutton-inpatient-nch-bene-pta-coinsrnc-lblty-amt-extension","valueMoney":{"code":"USD","system":"urn:iso:std:iso:4217","value":0}},{"url":"https://bluebutton.cms.gov/assets/ig/StructureDefinition-bluebutton-inpatient-nch-ip-ncvrd-chrg-amt-extension","valueMoney":{"code":"USD","system":"urn:iso:std:iso:4217","value":0}},{"url":"https://bluebutton.cms.gov/assets/ig/StructureDefinition-bluebutton-inpatient-nch-ip-tot-ddctn-amt-extension","valueMoney":{"code":"USD","system":"urn:iso:std:iso:4217","value":0}},{"url":"https://bluebutton.cms.gov/assets/ig/StructureDefinition-bluebutton-inpatient-clm-pps-cptl-dsprprtnt-shr-amt-extension","valueMoney":{"code":"USD","system":"urn:iso:std:iso:4217","value":0}},{"url":"https://bluebutton.cms.gov/assets/ig/StructureDefinition-bluebutton-inpatient-clm-pps-cptl-excptn-amt-extension","valueMoney":{"code":"USD","system":"urn:iso:std:iso:4217","value":0}},{"url":"https://bluebutton.cms.gov/assets/ig/StructureDefinition-bluebutton-inpatient-clm-pps-cptl-fsp-amt-extension","valueMoney":{"code":"USD","system":"urn:iso:std:iso:4217","value":0}},{"url":"https://bluebutton.cms.gov/assets/ig/StructureDefinition-bluebutton-inpatient-clm-pps-cptl-ime-amt-extension","valueMoney":{"code":"USD","system":"urn:iso:std:iso:4217","value":400}},{"url":"https://bluebutton.cms.gov/assets/ig/StructureDefinition-bluebutton-inpatient-clm-pps-cptl-outlier-amt-extension","valueMoney":{"code":"USD","system":"urn:iso:std:iso:4217","value":0}},{"url":"https://bluebutton.cms.gov/assets/ig/StructureDefinition-bluebutton-inpatient-clm-pps-old-cptl-hld-hrmls-amt-extension","valueMoney":{"code":"USD","system":"urn:iso:std:iso:4217","value":0}},{"url":"https://bluebutton.cms.gov/assets/ig/StructureDefinition-bluebutton-inpatient-nch-drg-outlier-aprvd-pmt-amt-extension","valueMoney":{"code":"USD","system":"urn:iso:std:iso:4217","value":0}},{"url":"https://bluebutton.cms.gov/assets/ig/StructureDefinition-bluebutton-inpatient-nch-bene-blood-ddctbl-lblty-am-extension","valueMoney":{"code":"USD","system":"urn:iso:std:iso:4217","value":0}},{"url":"https://bluebutton.cms.gov/assets/ig/StructureDefinition-bluebutton-inpatient-clm-mdcr-non-pmt-rsn-cd-extension","valueCoding":{"code":"N","display":"All other reasons for non-payment","system":"https://bluebutton.cms.gov/assets/ig/CodeSystem-clm-mdcr-non-pmt-rsn-cd"}},{"url":"https://bluebutton.cms.gov/assets/ig/StructureDefinition-bluebutton-inpatient-prpayamt-extension","valueMoney":{"code":"USD","system":"urn:iso:std:iso:4217","value":0}},{"url":"https://bluebutton.cms.gov/assets/ig/StructureDefinition-bluebutton-inpatient-fi-num-extension","valueIdentifier":{"system":"https://bluebutton.cms.gov/assets/ig/CodeSystem-fi-num","value":"002000"}}],"id":"f564926b-36f7-4f12-9d8f-904feba9b38c","identifier":[{"system":"https://bluebutton.cms.gov/resources/variables/clm_id","value":"b45a073c-6fb6-4c5b-b2f5-baab9d6b803c"},{"system":"https://bluebutton.cms.gov/resources/identifier/claim-group","value":"99999999999"}],"insurance":{"coverage":{"reference":"#coverage"}},"item":[{"extension":[{"url":"https://bluebutton.cms.gov/assets/ig/StructureDefinition-bluebutton-inpatient-rev-cntr-ndc-qty-extension","valueQuantity":{"value":0}}],"locationCodeableConcept":{"coding":[{"code":"21","display":"Inpatient Hospital","system":"https://bluebutton.cms.gov/resources/variables/line_place_of_srvc_cd"}]},"sequence":1}],"meta":{"lastUpdated":"2019-04-09T10:20:45.766754+00:00","profile":["https://bluebutton.cms.gov/assets/ig/StructureDefinition-bluebutton-inpatient-claim"],"versionId":"MTU1NDgwNTI0NTc2Njc1NDAwMA"},"organization":{"identifier":{"value":"36a03348-cac3-4284-b8c1-ffff7032af72"}},"patient":{"reference":"Patient/00a04f0e-43ec-4c22-b0e3-541e1dabd3af"},"payment":{"amount":{"code":"USD","system":"urn:iso:std:iso:4217","value":0}},"provider":{"identifier":{"value":"80e8e6bd-5973-4681-bb2a-74927c72d003"}},"resourceType":"ExplanationOfBenefit","status":"active","totalCost":{"code":"USD","system":"urn:iso:std:iso:4217","value":75},"type":{"coding":[{"code":"71","display":"Local carrier non-durable medical equipment, prosthetics, orthotics, and supplies (DMEPOS) claim","system":"https://bluebutton.cms.gov/resources/variables/nch_clm_type_cd"},{"code":"CARRIER","display":"EOB Type","system":"https://bluebutton.cms.gov/resources/codesystem/eob-type"},{"code":"professional","display":"Claim Type","system":"http://hl7.org/fhir/ex-claimtype"},{"code":"O","display":"Part B physician/supplier claim record (processed by local carriers; can include DMEPOS services)","system":"https://bluebutton.cms.gov/resources/variables/nch_near_line_rec_ident_cd"}]}}},{"resource":{"billablePeriod":{"end":"2013-05-05T16:32:45-04:00","extension":[{"url":"https://bluebutton.cms.gov/assets/ig/StructureDefinition-bluebutton-inpatient-claim-query-cd-extension","valueCoding":{"code":"3","display":"Final Bill","system":"https://bluebutton.cms.gov/assets/ig/ValueSet-claim-query-cd"}}],"start":"2012-05-05T16:32:45-04:00"},"careTeam":[{"provider":{"identifier":{"system":"http://hl7.org/fhir/sid/us-npi","value":"99999999"}},"role":{"coding":[{"code":"primary","display":"Primary Care Practitioner","system":"http://hl7.org/fhir/claimcareteamrole"}]},"sequence":1}],"contained":[{"id":"coverage","resourceType":"Coverage","type":{"text":"private"}}],"extension":[{"url":"https://bluebutton.cms.gov/assets/ig/StructureDefinition-bluebutton-inpatient-ime-op-clm-val-amt-extension","valueMoney":{"code":"USD","system":"urn:iso:std:iso:4217","value":400}},{"url":"https://bluebutton.cms.gov/assets/ig/StructureDefinition-bluebutton-inpatient-dsh-op-clm-val-amt-extension","valueMoney":{"code":"USD","system":"urn:iso:std:iso:4217","value":0}},{"url":"https://bluebutton.cms.gov/assets/ig/StructureDefinition-bluebutton-inpatient-clm-pass-thru-per-diem-amt-extension","valueMoney":{"code":"USD","system":"urn:iso:std:iso:4217","value":0}},{"url":"https://bluebutton.cms.gov/assets/ig/StructureDefinition-bluebutton-inpatient-nch-profnl-cmpnt-chrg-amt-extension","valueMoney":{"code":"USD","system":"urn:iso:std:iso:4217","value":0}},{"url":"https://bluebutton.cms.gov/assets/ig/StructureDefinition-bluebutton-inpatient-clm-tot-pps-cptl-amt-extension","valueMoney":{"code":"USD","system":"urn:iso:std:iso:4217","value":0}},{"url":"https://bluebutton.cms.gov/assets/ig/StructureDefinition-bluebutton-inpatient-nch-bene-ip-ddctbl-amt-extension","valueMoney":{"code":"USD","system":"urn:iso:std:iso:4217","value":0}},{"url":"https://bluebutton.cms.gov/assets/ig/StructureDefinition-bluebutton-inpatient-nch-bene-pta-coinsrnc-lblty-amt-extension","valueMoney":{"code":"USD","system":"urn:iso:std:iso:4217","value":0}},{"url":"https://bluebutton.cms.gov/assets/ig/StructureDefinition-bluebutton-inpatient-nch-ip-ncvrd-chrg-amt-extension","valueMoney":{"code":"USD","system":"urn:iso:std:iso:4217","value":0}},{"url":"https://bluebutton.cms.gov/assets/ig/StructureDefinition-bluebutton-inpatient-nch-ip-tot-ddctn-amt-extension","valueMoney":{"code":"USD","system":"urn:iso:std:iso:4217","value":0}},{"url":"https://bluebutton.cms.gov/assets/ig/StructureDefinition-bluebutton-inpatient-clm-pps-cptl-dsprprtnt-shr-amt-extension","valueMoney":{"code":"USD","system":"urn:iso:std:iso:4217","value":0}},{"url":"https://bluebutton.cms.gov/assets/ig/StructureDefinition-bluebutton-inpatient-clm-pps-cptl-excptn-amt-extension","valueMoney":{"code":"USD","system":"urn:iso:std:iso:4217","value":0}},{"url":"https://bluebutton.cms.gov/assets/ig/StructureDefinition-bluebutton-inpatient-clm-pps-cptl-fsp-amt-extension","valueMoney":{"code":"USD","system":"urn:iso:std:iso:4217","value":0}},{"url":"https://bluebutton.cms.gov/assets/ig/StructureDefinition-bluebutton-inpatient-clm-pps-cptl-ime-amt-extension","valueMoney":{"code":"USD","system":"urn:iso:std:iso:4217","value":400}},{"url":"https://bluebutton.cms.gov/assets/ig/StructureDefinition-bluebutton-inpatient-clm-pps-cptl-outlier-amt-extension","valueMoney":{"code":"USD","system":"urn:iso:std:iso:4217","value":0}},{"url":"https://bluebutton.cms.gov/assets/ig/StructureDefinition-bluebutton-inpatient-clm-pps-old-cptl-hld-hrmls-amt-extension","valueMoney":{"code":"USD","system":"urn:iso:std:iso:4217","value":0}},{"url":"https://bluebutton.cms.gov/assets/ig/StructureDefinition-bluebutton-inpatient-nch-drg-outlier-aprvd-pmt-amt-extension","valueMoney":{"code":"USD","system":"urn:iso:std:iso:4217","value":0}},{"url":"https://bluebutton.cms.gov/assets/ig/StructureDefinition-bluebutton-inpatient-nch-bene-blood-ddctbl-lblty-am-extension","valueMoney":{"code":"USD","system":"urn:iso:std:iso:4217","value":0}},{"url":"https://bluebutton.cms.gov/assets/ig/StructureDefinition-bluebutton-inpatient-clm-mdcr-non-pmt-rsn-cd-extension","valueCoding":{"code":"N","display":"All other reasons for non-payment","system":"https://bluebutton.cms.gov/assets/ig/CodeSystem-clm-mdcr-non-pmt-rsn-cd"}},{"url":"https://bluebutton.cms.gov/assets/ig/StructureDefinition-bluebutton-inpatient-prpayamt-extension","valueMoney":{"code":"USD","system":"urn:iso:std:iso:4217","value":0}},{"url":"https://bluebutton.cms.gov/assets/ig/StructureDefinition-bluebutton-inpatient-fi-num-extension","valueIdentifier":{"system":"https://bluebutton.cms.gov/assets/ig/CodeSystem-fi-num","value":"002000"}}],"id":"fde59941-9627-4471-b704-397e332ada48","identifier":[{"system":"https://bluebutton.cms.gov/resources/variables/clm_id","value":"12c1ee6c-d8bc-47f9-b43a-ecbde51f932c"},{"system":"https://bluebutton.cms.gov/resources/identifier/claim-group","value":"99999999999"}],"insurance":{"coverage":{"reference":"#coverage"}},"item":[{"extension":[{"url":"https://bluebutton.cms.gov/assets/ig/StructureDefinition-bluebutton-inpatient-rev-cntr-ndc-qty-extension","valueQuantity":{"value":0}}],"locationCodeableConcept":{"coding":[{"code":"21","display":"Inpatient Hospital","system":"https://bluebutton.cms.gov/resources/variables/line_place_of_srvc_cd"}]},"sequence":1},{"adjudication":[{"amount":{"code":"USD","system":"urn:iso:std:iso:4217","value":1042.236},"category":{"coding":[{"code":"https://bluebutton.cms.gov/resources/variables/line_coinsrnc_amt","display":"Line Beneficiary Coinsurance Amount","system":"https://bluebutton.cms.gov/resources/codesystem/adjudication"}]}},{"amount":{"code":"USD","system":"urn:iso:std:iso:4217","value":4168.944},"category":{"coding":[{"code":"https://bluebutton.cms.gov/resources/variables/line_prvdr_pmt_amt","display":"Line Provider Payment Amount","system":"https://bluebutton.cms.gov/resources/codesystem/adjudication"}]}},{"amount":{"code":"USD","system":"urn:iso:std:iso:4217","value":5211.18},"category":{"coding":[{"code":"https://bluebutton.cms.gov/resources/variables/line_sbmtd_chrg_amt","display":"Line Submitted Charge Amount","system":"https://bluebutton.cms.gov/resources/codesystem/adjudication"}]}},{"amount":{"code":"USD","system":"urn:iso:std:iso:4217","value":5211.18},"category":{"coding":[{"code":"https://bluebutton.cms.gov/resources/variables/line_alowd_chrg_amt","display":"Line Allowed Charge Amount","system":"https://bluebutton.cms.gov/resources/codesystem/adjudication"}]}},{"amount":{"code":"USD","system":"urn:iso:std:iso:4217","value":0},"category":{"coding":[{"code":"https://bluebutton.cms.gov/resources/variables/line_bene_ptb_ddctbl_amt","display":"Line Beneficiary Part B Deductible Amount","system":"https://bluebutton.cms.gov/resources/codesystem/adjudication"}]}},{"category":{"coding":[{"code":"https://bluebutton.cms.gov/resources/variables/line_prcsg_ind_cd","display":"Line Processing Indicator Code","system":"https://bluebutton.cms.gov/resources/codesystem/adjudication"}]}}],"extension":[{"url":"https://bluebutton.cms.gov/assets/ig/StructureDefinition-bluebutton-inpatient-rev-cntr-ndc-qty-extension","valueQuantity":{"value":0}}],"locationCodeableConcept":{"coding":[{"code":"21","display":"Inpatient Hospital","system":"https://bluebutton.cms.gov/resources/variables/line_place_of_srvc_cd"}]},"sequence":2,"service":{"coding":[{"code":"274804006","system":"http://snomed.info/sct","version":"v1"}]}},{"adjudication":[{"amount":{"code":"USD","system":"urn:iso:std:iso:4217","value":2073.58},"category":{"coding":[{"code":"https://bluebutton.cms.gov/resources/variables/line_coinsrnc_amt","display":"Line Beneficiary Coinsurance Amount","system":"https://bluebutton.cms.gov/resources/codesystem/adjudication"}]}},{"amount":{"code":"USD","system":"urn:iso:std:iso:4217","value":8294.32},"category":{"coding":[{"code":"https://bluebutton.cms.gov/resources/variables/line_prvdr_pmt_amt","display":"Line Provider Payment Amount","system":"https://bluebutton.cms.gov/resources/codesystem/adjudication"}]}},{"amount":{"code":"USD","system":"urn:iso:std:iso:4217","value":10367.9},"category":{"coding":[{"code":"https://bluebutton.cms.gov/resources/variables/line_sbmtd_chrg_amt","display":"Line Submitted Charge Amount","system":"https://bluebutton.cms.gov/resources/codesystem/adjudication"}]}},{"amount":{"code":"USD","system":"urn:iso:std:iso:4217","value":10367.9},"category":{"coding":[{"code":"https://bluebutton.cms.gov/resources/variables/line_alowd_chrg_amt","display":"Line Allowed Charge Amount","system":"https://bluebutton.cms.gov/resources/codesystem/adjudication"}]}},{"amount":{"code":"USD","system":"urn:iso:std:iso:4217","value":0},"category":{"coding":[{"code":"https://bluebutton.cms.gov/resources/variables/line_bene_ptb_ddctbl_amt","display":"Line Beneficiary Part B Deductible Amount","system":"https://bluebutton.cms.gov/resources/codesystem/adjudication"}]}},{"category":{"coding":[{"code":"https://bluebutton.cms.gov/resources/variables/line_prcsg_ind_cd","display":"Line Processing Indicator Code","system":"https://bluebutton.cms.gov/resources/codesystem/adjudication"}]}}],"extension":[{"url":"https://bluebutton.cms.gov/assets/ig/StructureDefinition-bluebutton-inpatient-rev-cntr-ndc-qty-extension","valueQuantity":{"value":0}}],"locationCodeableConcept":{"coding":[{"code":"21","display":"Inpatient Hospital","system":"https://bluebutton.cms.gov/resources/variables/line_place_of_srvc_cd"}]},"sequence":3,"service":{"coding":[{"code":"225158009","system":"http://snomed.info/sct","version":"v1"}]}},{"adjudication":[{"amount":{"code":"USD","system":"urn:iso:std:iso:4217","value":757.962},"category":{"coding":[{"code":"https://bluebutton.cms.gov/resources/variables/line_coinsrnc_amt","display":"Line Beneficiary Coinsurance Amount","system":"https://bluebutton.cms.gov/resources/codesystem/adjudication"}]}},{"amount":{"code":"USD","system":"urn:iso:std:iso:4217","value":3031.848},"category":{"coding":[{"code":"https://bluebutton.cms.gov/resources/variables/line_prvdr_pmt_amt","display":"Line Provider Payment Amount","system":"https://bluebutton.cms.gov/resources/codesystem/adjudication"}]}},{"amount":{"code":"USD","system":"urn:iso:std:iso:4217","value":3789.81},"category":{"coding":[{"code":"https://bluebutton.cms.gov/resources/variables/line_sbmtd_chrg_amt","display":"Line Submitted Charge Amount","system":"https://bluebutton.cms.gov/resources/codesystem/adjudication"}]}},{"amount":{"code":"USD","system":"urn:iso:std:iso:4217","value":3789.81},"category":{"coding":[{"code":"https://bluebutton.cms.gov/resources/variables/line_alowd_chrg_amt","display":"Line Allowed Charge Amount","system":"https://bluebutton.cms.gov/resources/codesystem/adjudication"}]}},{"amount":{"code":"USD","system":"urn:iso:std:iso:4217","value":0},"category":{"coding":[{"code":"https://bluebutton.cms.gov/resources/variables/line_bene_ptb_ddctbl_amt","display":"Line Beneficiary Part B Deductible Amount","system":"https://bluebutton.cms.gov/resources/codesystem/adjudication"}]}},{"category":{"coding":[{"code":"https://bluebutton.cms.gov/resources/variables/line_prcsg_ind_cd","display":"Line Processing Indicator Code","system":"https://bluebutton.cms.gov/resources/codesystem/adjudication"}]}}],"extension":[{"url":"https://bluebutton.cms.gov/assets/ig/StructureDefinition-bluebutton-inpatient-rev-cntr-ndc-qty-extension","valueQuantity":{"value":0}}],"locationCodeableConcept":{"coding":[{"code":"21","display":"Inpatient Hospital","system":"https://bluebutton.cms.gov/resources/variables/line_place_of_srvc_cd"}]},"sequence":4,"service":{"coding":[{"code":"443529005","system":"http://snomed.info/sct","version":"v1"}]}}],"meta":{"lastUpdated":"2019-04-09T10:20:48.791782+00:00","profile":["https://bluebutton.cms.gov/assets/ig/StructureDefinition-bluebutton-inpatient-claim"],"versionId":"MTU1NDgwNTI0ODc5MTc4MjAwMA"},"organization":{"identifier":{"value":"36a03348-cac3-4284-b8c1-ffff7032af72"}},"patient":{"reference":"Patient/00a04f0e-43ec-4c22-b0e3-541e1dabd3af"},"payment":{"amount":{"code":"USD","system":"urn:iso:std:iso:4217","value":15495.112}},"provider":{"identifier":{"value":"80e8e6bd-5973-4681-bb2a-74927c72d003"}},"resourceType":"ExplanationOfBenefit","status":"active","totalCost":{"code":"USD","system":"urn:iso:std:iso:4217","value":19493.89},"type":{"coding":[{"code":"71","display":"Local carrier non-durable medical equipment, prosthetics, orthotics, and supplies (DMEPOS) claim","system":"https://bluebutton.cms.gov/resources/variables/nch_clm_type_cd"},{"code":"CARRIER","display":"EOB Type","system":"https://bluebutton.cms.gov/resources/codesystem/eob-type"},{"code":"professional","display":"Claim Type","system":"http://hl7.org/fhir/ex-claimtype"},{"code":"O","display":"Part B physician/supplier claim record (processed by local carriers; can include DMEPOS services)","system":"https://bluebutton.cms.gov/resources/variables/nch_near_line_rec_ident_cd"}]}}},{"resource":{"billablePeriod":{"end":"2013-10-20T16:32:45-04:00","extension":[{"url":"https://bluebutton.cms.gov/assets/ig/StructureDefinition-bluebutton-inpatient-claim-query-cd-extension","valueCoding":{"code":"3","display":"Final Bill","system":"https://bluebutton.cms.gov/assets/ig/ValueSet-claim-query-cd"}}],"start":"2012-10-20T16:32:45-04:00"},"careTeam":[{"provider":{"identifier":{"system":"http://hl7.org/fhir/sid/us-npi","value":"99999999"}},"role":{"coding":[{"code":"primary","display":"Primary Care Practitioner","system":"http://hl7.org/fhir/claimcareteamrole"}]},"sequence":1}],"contained":[{"id":"coverage","resourceType":"Coverage","type":{"text":"private"}}],"extension":[{"url":"https://bluebutton.cms.gov/assets/ig/StructureDefinition-bluebutton-inpatient-ime-op-clm-val-amt-extension","valueMoney":{"code":"USD","system":"urn:iso:std:iso:4217","value":400}},{"url":"https://bluebutton.cms.gov/assets/ig/StructureDefinition-bluebutton-inpatient-dsh-op-clm-val-amt-extension","valueMoney":{"code":"USD","system":"urn:iso:std:iso:4217","value":0}},{"url":"https://bluebutton.cms.gov/assets/ig/StructureDefinition-bluebutton-inpatient-clm-pass-thru-per-diem-amt-extension","valueMoney":{"code":"USD","system":"urn:iso:std:iso:4217","value":0}},{"url":"https://bluebutton.cms.gov/assets/ig/StructureDefinition-bluebutton-inpatient-nch-profnl-cmpnt-chrg-amt-extension","valueMoney":{"code":"USD","system":"urn:iso:std:iso:4217","value":0}},{"url":"https://bluebutton.cms.gov/assets/ig/StructureDefinition-bluebutton-inpatient-clm-tot-pps-cptl-amt-extension","valueMoney":{"code":"USD","system":"urn:iso:std:iso:4217","value":0}},{"url":"https://bluebutton.cms.gov/assets/ig/StructureDefinition-bluebutton-inpatient-nch-bene-ip-ddctbl-amt-extension","valueMoney":{"code":"USD","system":"urn:iso:std:iso:4217","value":0}},{"url":"https://bluebutton.cms.gov/assets/ig/StructureDefinition-bluebutton-inpatient-nch-bene-pta-coinsrnc-lblty-amt-extension","valueMoney":{"code":"USD","system":"urn:iso:std:iso:4217","value":0}},{"url":"https://bluebutton.cms.gov/assets/ig/StructureDefinition-bluebutton-inpatient-nch-ip-ncvrd-chrg-amt-extension","valueMoney":{"code":"USD","system":"urn:iso:std:iso:4217","value":0}},{"url":"https://bluebutton.cms.gov/assets/ig/StructureDefinition-bluebutton-inpatient-nch-ip-tot-ddctn-amt-extension","valueMoney":{"code":"USD","system":"urn:iso:std:iso:4217","value":0}},{"url":"https://bluebutton.cms.gov/assets/ig/StructureDefinition-bluebutton-inpatient-clm-pps-cptl-dsprprtnt-shr-amt-extension","valueMoney":{"code":"USD","system":"urn:iso:std:iso:4217","value":0}},{"url":"https://bluebutton.cms.gov/assets/ig/StructureDefinition-bluebutton-inpatient-clm-pps-cptl-excptn-amt-extension","valueMoney":{"code":"USD","system":"urn:iso:std:iso:4217","value":0}},{"url":"https://bluebutton.cms.gov/assets/ig/StructureDefinition-bluebutton-inpatient-clm-pps-cptl-fsp-amt-extension","valueMoney":{"code":"USD","system":"urn:iso:std:iso:4217","value":0}},{"url":"https://bluebutton.cms.gov/assets/ig/StructureDefinition-bluebutton-inpatient-clm-pps-cptl-ime-amt-extension","valueMoney":{"code":"USD","system":"urn:iso:std:iso:4217","value":400}},{"url":"https://bluebutton.cms.gov/assets/ig/StructureDefinition-bluebutton-inpatient-clm-pps-cptl-outlier-amt-extension","valueMoney":{"code":"USD","system":"urn:iso:std:iso:4217","value":0}},{"url":"https://bluebutton.cms.gov/assets/ig/StructureDefinition-bluebutton-inpatient-clm-pps-old-cptl-hld-hrmls-amt-extension","valueMoney":{"code":"USD","system":"urn:iso:std:iso:4217","value":0}},{"url":"https://bluebutton.cms.gov/assets/ig/StructureDefinition-bluebutton-inpatient-nch-drg-outlier-aprvd-pmt-amt-extension","valueMoney":{"code":"USD","system":"urn:iso:std:iso:4217","value":0}},{"url":"https://bluebutton.cms.gov/assets/ig/StructureDefinition-bluebutton-inpatient-nch-bene-blood-ddctbl-lblty-am-extension","valueMoney":{"code":"USD","system":"urn:iso:std:iso:4217","value":0}},{"url":"https://bluebutton.cms.gov/assets/ig/StructureDefinition-bluebutton-inpatient-clm-mdcr-non-pmt-rsn-cd-extension","valueCoding":{"code":"N","display":"All other reasons for non-payment","system":"https://bluebutton.cms.gov/assets/ig/CodeSystem-clm-mdcr-non-pmt-rsn-cd"}},{"url":"https://bluebutton.cms.gov/assets/ig/StructureDefinition-bluebutton-inpatient-prpayamt-extension","valueMoney":{"code":"USD","system":"urn:iso:std:iso:4217","value":0}},{"url":"https://bluebutton.cms.gov/assets/ig/StructureDefinition-bluebutton-inpatient-fi-num-extension","valueIdentifier":{"system":"https://bluebutton.cms.gov/assets/ig/CodeSystem-fi-num","value":"002000"}}],"id":"fe61d451-d3de-4d96-82a4-fd8ed31d3280","identifier":[{"system":"https://bluebutton.cms.gov/resources/variables/clm_id","value":"c08a3110-77dc-4c26-9d72-1981e3661074"},{"system":"https://bluebutton.cms.gov/resources/identifier/claim-group","value":"99999999999"}],"insurance":{"coverage":{"reference":"#coverage"}},"item":[{"extension":[{"url":"https://bluebutton.cms.gov/assets/ig/StructureDefinition-bluebutton-inpatient-rev-cntr-ndc-qty-extension","valueQuantity":{"value":0}}],"locationCodeableConcept":{"coding":[{"code":"21","display":"Inpatient Hospital","system":"https://bluebutton.cms.gov/resources/variables/line_place_of_srvc_cd"}]},"sequence":1},{"adjudication":[{"amount":{"code":"USD","system":"urn:iso:std:iso:4217","value":469.53400000000005},"category":{"coding":[{"code":"https://bluebutton.cms.gov/resources/variables/line_coinsrnc_amt","display":"Line Beneficiary Coinsurance Amount","system":"https://bluebutton.cms.gov/resources/codesystem/adjudication"}]}},{"amount":{"code":"USD","system":"urn:iso:std:iso:4217","value":1878.1360000000002},"category":{"coding":[{"code":"https://bluebutton.cms.gov/resources/variables/line_prvdr_pmt_amt","display":"Line Provider Payment Amount","system":"https://bluebutton.cms.gov/resources/codesystem/adjudication"}]}},{"amount":{"code":"USD","system":"urn:iso:std:iso:4217","value":2347.67},"category":{"coding":[{"code":"https://bluebutton.cms.gov/resources/variables/line_sbmtd_chrg_amt","display":"Line Submitted Charge Amount","system":"https://bluebutton.cms.gov/resources/codesystem/adjudication"}]}},{"amount":{"code":"USD","system":"urn:iso:std:iso:4217","value":2347.67},"category":{"coding":[{"code":"https://bluebutton.cms.gov/resources/variables/line_alowd_chrg_amt","display":"Line Allowed Charge Amount","system":"https://bluebutton.cms.gov/resources/codesystem/adjudication"}]}},{"amount":{"code":"USD","system":"urn:iso:std:iso:4217","value":0},"category":{"coding":[{"code":"https://bluebutton.cms.gov/resources/variables/line_bene_ptb_ddctbl_amt","display":"Line Beneficiary Part B Deductible Amount","system":"https://bluebutton.cms.gov/resources/codesystem/adjudication"}]}},{"category":{"coding":[{"code":"https://bluebutton.cms.gov/resources/variables/line_prcsg_ind_cd","display":"Line Processing Indicator Code","system":"https://bluebutton.cms.gov/resources/codesystem/adjudication"}]}}],"extension":[{"url":"https://bluebutton.cms.gov/assets/ig/StructureDefinition-bluebutton-inpatient-rev-cntr-ndc-qty-extension","valueQuantity":{"value":0}}],"locationCodeableConcept":{"coding":[{"code":"21","display":"Inpatient Hospital","system":"https://bluebutton.cms.gov/resources/variables/line_place_of_srvc_cd"}]},"sequence":2,"service":{"coding":[{"code":"118001005","system":"http://snomed.info/sct","version":"v1"}]}},{"adjudication":[{"amount":{"code":"USD","system":"urn:iso:std:iso:4217","value":1301.536},"category":{"coding":[{"code":"https://bluebutton.cms.gov/resources/variables/line_coinsrnc_amt","display":"Line Beneficiary Coinsurance Amount","system":"https://bluebutton.cms.gov/resources/codesystem/adjudication"}]}},{"amount":{"code":"USD","system":"urn:iso:std:iso:4217","value":5206.144},"category":{"coding":[{"code":"https://bluebutton.cms.gov/resources/variables/line_prvdr_pmt_amt","display":"Line Provider Payment Amount","system":"https://bluebutton.cms.gov/resources/codesystem/adjudication"}]}},{"amount":{"code":"USD","system":"urn:iso:std:iso:4217","value":6507.68},"category":{"coding":[{"code":"https://bluebutton.cms.gov/resources/variables/line_sbmtd_chrg_amt","display":"Line Submitted Charge Amount","system":"https://bluebutton.cms.gov/resources/codesystem/adjudication"}]}},{"amount":{"code":"USD","system":"urn:iso:std:iso:4217","value":6507.68},"category":{"coding":[{"code":"https://bluebutton.cms.gov/resources/variables/line_alowd_chrg_amt","display":"Line Allowed Charge Amount","system":"https://bluebutton.cms.gov/resources/codesystem/adjudication"}]}},{"amount":{"code":"USD","system":"urn:iso:std:iso:4217","value":0},"category":{"coding":[{"code":"https://bluebutton.cms.gov/resources/variables/line_bene_ptb_ddctbl_amt","display":"Line Beneficiary Part B Deductible Amount","system":"https://bluebutton.cms.gov/resources/codesystem/adjudication"}]}},{"category":{"coding":[{"code":"https://bluebutton.cms.gov/resources/variables/line_prcsg_ind_cd","display":"Line Processing Indicator Code","system":"https://bluebutton.cms.gov/resources/codesystem/adjudication"}]}}],"extension":[{"url":"https://bluebutton.cms.gov/assets/ig/StructureDefinition-bluebutton-inpatient-rev-cntr-ndc-qty-extension","valueQuantity":{"value":0}}],"locationCodeableConcept":{"coding":[{"code":"21","display":"Inpatient Hospital","system":"https://bluebutton.cms.gov/resources/variables/line_place_of_srvc_cd"}]},"sequence":3,"service":{"coding":[{"code":"274804006","system":"http://snomed.info/sct","version":"v1"}]}},{"adjudication":[{"amount":{"code":"USD","system":"urn:iso:std:iso:4217","value":1799.244},"category":{"coding":[{"code":"https://bluebutton.cms.gov/resources/variables/line_coinsrnc_amt","display":"Line Beneficiary Coinsurance Amount","system":"https://bluebutton.cms.gov/resources/codesystem/adjudication"}]}},{"amount":{"code":"USD","system":"urn:iso:std:iso:4217","value":7196.976},"category":{"coding":[{"code":"https://bluebutton.cms.gov/resources/variables/line_prvdr_pmt_amt","display":"Line Provider Payment Amount","system":"https://bluebutton.cms.gov/resources/codesystem/adjudication"}]}},{"amount":{"code":"USD","system":"urn:iso:std:iso:4217","value":8996.22},"category":{"coding":[{"code":"https://bluebutton.cms.gov/resources/variables/line_sbmtd_chrg_amt","display":"Line Submitted Charge Amount","system":"https://bluebutton.cms.gov/resources/codesystem/adjudication"}]}},{"amount":{"code":"USD","system":"urn:iso:std:iso:4217","value":8996.22},"category":{"coding":[{"code":"https://bluebutton.cms.gov/resources/variables/line_alowd_chrg_amt","display":"Line Allowed Charge Amount","system":"https://bluebutton.cms.gov/resources/codesystem/adjudication"}]}},{"amount":{"code":"USD","system":"urn:iso:std:iso:4217","value":0},"category":{"coding":[{"code":"https://bluebutton.cms.gov/resources/variables/line_bene_ptb_ddctbl_amt","display":"Line Beneficiary Part B Deductible Amount","system":"https://bluebutton.cms.gov/resources/codesystem/adjudication"}]}},{"category":{"coding":[{"code":"https://bluebutton.cms.gov/resources/variables/line_prcsg_ind_cd","display":"Line Processing Indicator Code","system":"https://bluebutton.cms.gov/resources/codesystem/adjudication"}]}}],"extension":[{"url":"https://bluebutton.cms.gov/assets/ig/StructureDefinition-bluebutton-inpatient-rev-cntr-ndc-qty-extension","valueQuantity":{"value":0}}],"locationCodeableConcept":{"coding":[{"code":"21","display":"Inpatient Hospital","system":"https://bluebutton.cms.gov/resources/variables/line_place_of_srvc_cd"}]},"sequence":4,"service":{"coding":[{"code":"225158009","system":"http://snomed.info/sct","version":"v1"}]}}],"meta":{"lastUpdated":"2019-04-09T10:20:49.823461+00:00","profile":["https://bluebutton.cms.gov/assets/ig/StructureDefinition-bluebutton-inpatient-claim"],"versionId":"MTU1NDgwNTI0OTgyMzQ2MTAwMA"},"organization":{"identifier":{"value":"36a03348-cac3-4284-b8c1-ffff7032af72"}},"patient":{"reference":"Patient/00a04f0e-43ec-4c22-b0e3-541e1dabd3af"},"payment":{"amount":{"code":"USD","system":"urn:iso:std:iso:4217","value":14281.256000000001}},"provider":{"identifier":{"value":"80e8e6bd-5973-4681-bb2a-74927c72d003"}},"resourceType":"ExplanationOfBenefit","status":"active","totalCost":{"code":"USD","system":"urn:iso:std:iso:4217","value":17976.57},"type":{"coding":[{"code":"71","display":"Local carrier non-durable medical equipment, prosthetics, orthotics, and supplies (DMEPOS) claim","system":"https://bluebutton.cms.gov/resources/variables/nch_clm_type_cd"},{"code":"CARRIER","display":"EOB Type","system":"https://bluebutton.cms.gov/resources/codesystem/eob-type"},{"code":"professional","display":"Claim Type","system":"http://hl7.org/fhir/ex-claimtype"},{"code":"O","display":"Part B physician/supplier claim record (processed by local carriers; can include DMEPOS services)","system":"https://bluebutton.cms.gov/resources/variables/nch_near_line_rec_ident_cd"}]}}},{"resource":{"billablePeriod":{"end":"2014-07-18T15:32:45-04:00","extension":[{"url":"https://bluebutton.cms.gov/assets/ig/StructureDefinition-bluebutton-inpatient-claim-query-cd-extension","valueCoding":{"code":"3","display":"Final Bill","system":"https://bluebutton.cms.gov/assets/ig/ValueSet-claim-query-cd"}}],"start":"2013-07-18T15:32:45-04:00"},"careTeam":[{"provider":{"identifier":{"system":"http://hl7.org/fhir/sid/us-npi","value":"99999999"}},"role":{"coding":[{"code":"primary","display":"Primary Care Practitioner","system":"http://hl7.org/fhir/claimcareteamrole"}]},"sequence":1}],"contained":[{"id":"coverage","resourceType":"Coverage","type":{"text":"medicaid"}}],"extension":[{"url":"https://bluebutton.cms.gov/assets/ig/StructureDefinition-bluebutton-inpatient-ime-op-clm-val-amt-extension","valueMoney":{"code":"USD","system":"urn:iso:std:iso:4217","value":400}},{"url":"https://bluebutton.cms.gov/assets/ig/StructureDefinition-bluebutton-inpatient-dsh-op-clm-val-amt-extension","valueMoney":{"code":"USD","system":"urn:iso:std:iso:4217","value":0}},{"url":"https://bluebutton.cms.gov/assets/ig/StructureDefinition-bluebutton-inpatient-clm-pass-thru-per-diem-amt-extension","valueMoney":{"code":"USD","system":"urn:iso:std:iso:4217","value":0}},{"url":"https://bluebutton.cms.gov/assets/ig/StructureDefinition-bluebutton-inpatient-nch-profnl-cmpnt-chrg-amt-extension","valueMoney":{"code":"USD","system":"urn:iso:std:iso:4217","value":0}},{"url":"https://bluebutton.cms.gov/assets/ig/StructureDefinition-bluebutton-inpatient-clm-tot-pps-cptl-amt-extension","valueMoney":{"code":"USD","system":"urn:iso:std:iso:4217","value":0}},{"url":"https://bluebutton.cms.gov/assets/ig/StructureDefinition-bluebutton-inpatient-nch-bene-ip-ddctbl-amt-extension","valueMoney":{"code":"USD","system":"urn:iso:std:iso:4217","value":0}},{"url":"https://bluebutton.cms.gov/assets/ig/StructureDefinition-bluebutton-inpatient-nch-bene-pta-coinsrnc-lblty-amt-extension","valueMoney":{"code":"USD","system":"urn:iso:std:iso:4217","value":0}},{"url":"https://bluebutton.cms.gov/assets/ig/StructureDefinition-bluebutton-inpatient-nch-ip-ncvrd-chrg-amt-extension","valueMoney":{"code":"USD","system":"urn:iso:std:iso:4217","value":0}},{"url":"https://bluebutton.cms.gov/assets/ig/StructureDefinition-bluebutton-inpatient-nch-ip-tot-ddctn-amt-extension","valueMoney":{"code":"USD","system":"urn:iso:std:iso:4217","value":0}},{"url":"https://bluebutton.cms.gov/assets/ig/StructureDefinition-bluebutton-inpatient-clm-pps-cptl-dsprprtnt-shr-amt-extension","valueMoney":{"code":"USD","system":"urn:iso:std:iso:4217","value":0}},{"url":"https://bluebutton.cms.gov/assets/ig/StructureDefinition-bluebutton-inpatient-clm-pps-cptl-excptn-amt-extension","valueMoney":{"code":"USD","system":"urn:iso:std:iso:4217","value":0}},{"url":"https://bluebutton.cms.gov/assets/ig/StructureDefinition-bluebutton-inpatient-clm-pps-cptl-fsp-amt-extension","valueMoney":{"code":"USD","system":"urn:iso:std:iso:4217","value":0}},{"url":"https://bluebutton.cms.gov/assets/ig/StructureDefinition-bluebutton-inpatient-clm-pps-cptl-ime-amt-extension","valueMoney":{"code":"USD","system":"urn:iso:std:iso:4217","value":400}},{"url":"https://bluebutton.cms.gov/assets/ig/StructureDefinition-bluebutton-inpatient-clm-pps-cptl-outlier-amt-extension","valueMoney":{"code":"USD","system":"urn:iso:std:iso:4217","value":0}},{"url":"https://bluebutton.cms.gov/assets/ig/StructureDefinition-bluebutton-inpatient-clm-pps-old-cptl-hld-hrmls-amt-extension","valueMoney":{"code":"USD","system":"urn:iso:std:iso:4217","value":0}},{"url":"https://bluebutton.cms.gov/assets/ig/StructureDefinition-bluebutton-inpatient-nch-drg-outlier-aprvd-pmt-amt-extension","valueMoney":{"code":"USD","system":"urn:iso:std:iso:4217","value":0}},{"url":"https://bluebutton.cms.gov/assets/ig/StructureDefinition-bluebutton-inpatient-nch-bene-blood-ddctbl-lblty-am-extension","valueMoney":{"code":"USD","system":"urn:iso:std:iso:4217","value":0}},{"url":"https://bluebutton.cms.gov/assets/ig/StructureDefinition-bluebutton-inpatient-clm-mdcr-non-pmt-rsn-cd-extension","valueCoding":{"code":"N","display":"All other reasons for non-payment","system":"https://bluebutton.cms.gov/assets/ig/CodeSystem-clm-mdcr-non-pmt-rsn-cd"}},{"url":"https://bluebutton.cms.gov/assets/ig/StructureDefinition-bluebutton-inpatient-prpayamt-extension","valueMoney":{"code":"USD","system":"urn:iso:std:iso:4217","value":0}},{"url":"https://bluebutton.cms.gov/assets/ig/StructureDefinition-bluebutton-inpatient-fi-num-extension","valueIdentifier":{"system":"https://bluebutton.cms.gov/assets/ig/CodeSystem-fi-num","value":"002000"}}],"id":"feae54a1-4c5f-4da4-82ca-f142c385fd5d","identifier":[{"system":"https://bluebutton.cms.gov/resources/variables/clm_id","value":"6fa266d3-e818-44ab-a1c6-ca26918c728a"},{"system":"https://bluebutton.cms.gov/resources/identifier/claim-group","value":"99999999999"}],"insurance":{"coverage":{"reference":"#coverage"}},"item":[{"extension":[{"url":"https://bluebutton.cms.gov/assets/ig/StructureDefinition-bluebutton-inpatient-rev-cntr-ndc-qty-extension","valueQuantity":{"value":0}}],"locationCodeableConcept":{"coding":[{"code":"21","display":"Inpatient Hospital","system":"https://bluebutton.cms.gov/resources/variables/line_place_of_srvc_cd"}]},"sequence":1}],"meta":{"lastUpdated":"2019-04-09T10:20:50.832261+00:00","profile":["https://bluebutton.cms.gov/assets/ig/StructureDefinition-bluebutton-inpatient-claim"],"versionId":"MTU1NDgwNTI1MDgzMjI2MTAwMA"},"organization":{"identifier":{"value":"36a03348-cac3-4284-b8c1-ffff7032af72"}},"patient":{"reference":"Patient/00a04f0e-43ec-4c22-b0e3-541e1dabd3af"},"payment":{"amount":{"code":"USD","system":"urn:iso:std:iso:4217","value":0}},"provider":{"identifier":{"value":"80e8e6bd-5973-4681-bb2a-74927c72d003"}},"resourceType":"ExplanationOfBenefit","status":"active","totalCost":{"code":"USD","system":"urn:iso:std:iso:4217","value":75},"type":{"coding":[{"code":"71","display":"Local carrier non-durable medical equipment, prosthetics, orthotics, and supplies (DMEPOS) claim","system":"https://bluebutton.cms.gov/resources/variables/nch_clm_type_cd"},{"code":"CARRIER","display":"EOB Type","system":"https://bluebutton.cms.gov/resources/codesystem/eob-type"},{"code":"professional","display":"Claim Type","system":"http://hl7.org/fhir/ex-claimtype"},{"code":"O","display":"Part B physician/supplier claim record (processed by local carriers; can include DMEPOS services)","system":"https://bluebutton.cms.gov/resources/variables/nch_near_line_rec_ident_cd"}]}}},{"resource":{"date":"2013-03-23T15:32:45-04:00","encounter":{"reference":"Encounter/05d59f7b-87b1-4eff-9987-154a3f58ed69"},"id":"093b95f1-fe43-41ac-a39a-4c06db78ccde","meta":{"lastUpdated":"2019-04-09T10:20:49.829681+00:00","versionId":"MTU1NDgwNTI0OTgyOTY4MTAwMA"},"notGiven":false,"patient":{"reference":"Patient/00a04f0e-43ec-4c22-b0e3-541e1dabd3af"},"primarySource":true,"resourceType":"Immunization","status":"completed","vaccineCode":{"coding":[{"code":"140","display":"Influenza, seasonal, injectable, preservative free","system":"http://hl7.org/fhir/sid/cvx"}],"text":"Influenza, seasonal, injectable, preservative free"}}},{"resource":{"date":"2010-04-24T15:32:45-04:00","encounter":{"reference":"Encounter/f7c23241-f81d-4c57-bb48-ebd7251aafbb"},"id":"111634a9-8407-4078-bb03-be278028bb6e","meta":{"lastUpdated":"2019-04-09T10:20:45.770441+00:00","versionId":"MTU1NDgwNTI0NTc3MDQ0MTAwMA"},"notGiven":false,"patient":{"reference":"Patient/00a04f0e-43ec-4c22-b0e3-541e1dabd3af"},"primarySource":true,"resourceType":"Immunization","status":"completed","vaccineCode":{"coding":[{"code":"140","display":"Influenza, seasonal, injectable, preservative free","system":"http://hl7.org/fhir/sid/cvx"}],"text":"Influenza, seasonal, injectable, preservative free"}}},{"resource":{"date":"2011-03-12T14:32:45-05:00","encounter":{"reference":"Encounter/c7975b90-e3a0-46fc-bf32-f34949d89ec2"},"id":"4b80f40d-c07a-435a-87e2-c51b34f5d504","meta":{"lastUpdated":"2019-04-09T10:20:46.785125+00:00","versionId":"MTU1NDgwNTI0Njc4NTEyNTAwMA"},"notGiven":false,"patient":{"reference":"Patient/00a04f0e-43ec-4c22-b0e3-541e1dabd3af"},"primarySource":true,"resourceType":"Immunization","status":"completed","vaccineCode":{"coding":[{"code":"140","display":"Influenza, seasonal, injectable, preservative free","system":"http://hl7.org/fhir/sid/cvx"}],"text":"Influenza, seasonal, injectable, preservative free"}}},{"resource":{"date":"2009-04-18T15:32:45-04:00","encounter":{"reference":"Encounter/2ed4f219-13b8-49ad-8e5c-b301af2b70d8"},"id":"669d7768-3b3c-4a1b-b7b6-b8e7e3ec1ae2","meta":{"lastUpdated":"2019-04-09T10:20:44.671764+00:00","versionId":"MTU1NDgwNTI0NDY3MTc2NDAwMA"},"notGiven":false,"patient":{"reference":"Patient/00a04f0e-43ec-4c22-b0e3-541e1dabd3af"},"primarySource":true,"resourceType":"Immunization","status":"completed","vaccineCode":{"coding":[{"code":"140","display":"Influenza, seasonal, injectable, preservative free","system":"http://hl7.org/fhir/sid/cvx"}],"text":"Influenza, seasonal, injectable, preservative free"}}},{"resource":{"date":"2017-04-01T15:32:45-04:00","encounter":{"reference":"Encounter/d9cd13df-a464-44e9-8fc8-e151ad466b5d"},"id":"76ab4a85-f597-481b-b0f2-ed61c1d3493e","meta":{"lastUpdated":"2019-04-09T10:20:52.943897+00:00","versionId":"MTU1NDgwNTI1Mjk0Mzg5NzAwMA"},"notGiven":false,"patient":{"reference":"Patient/00a04f0e-43ec-4c22-b0e3-541e1dabd3af"},"primarySource":true,"resourceType":"Immunization","status":"completed","vaccineCode":{"coding":[{"code":"113","display":"Td (adult) preservative free","system":"http://hl7.org/fhir/sid/cvx"}],"text":"Td (adult) preservative free"}}},{"resource":{"date":"2011-03-12T14:32:45-05:00","encounter":{"reference":"Encounter/c7975b90-e3a0-46fc-bf32-f34949d89ec2"},"id":"8c4b4857-2183-4151-ac32-e9054befb1e8","meta":{"lastUpdated":"2019-04-09T10:20:46.784196+00:00","versionId":"MTU1NDgwNTI0Njc4NDE5NjAwMA"},"notGiven":false,"patient":{"reference":"Patient/00a04f0e-43ec-4c22-b0e3-541e1dabd3af"},"primarySource":true,"resourceType":"Immunization","status":"completed","vaccineCode":{"coding":[{"code":"114","display":"meningococcal MCV4P","system":"http://hl7.org/fhir/sid/cvx"}],"text":"meningococcal MCV4P"}}},{"resource":{"date":"2017-04-01T15:32:45-04:00","encounter":{"reference":"Encounter/d9cd13df-a464-44e9-8fc8-e151ad466b5d"},"id":"93009dd8-60a5-4b97-aefe-26a7d0893af4","meta":{"lastUpdated":"2019-04-09T10:20:51.881644+00:00","versionId":"MTU1NDgwNTI1MTg4MTY0NDAwMA"},"notGiven":false,"patient":{"reference":"Patient/00a04f0e-43ec-4c22-b0e3-541e1dabd3af"},"primarySource":true,"resourceType":"Immunization","status":"completed","vaccineCode":{"coding":[{"code":"140","display":"Influenza, seasonal, injectable, preservative free","system":"http://hl7.org/fhir/sid/cvx"}],"text":"Influenza, seasonal, injectable, preservative free"}}},{"resource":{"date":"2017-04-01T15:32:45-04:00","encounter":{"reference":"Encounter/d9cd13df-a464-44e9-8fc8-e151ad466b5d"},"id":"96ac8039-c2fb-466b-85e9-30b90dfb5786","meta":{"lastUpdated":"2019-04-09T10:20:52.934007+00:00","versionId":"MTU1NDgwNTI1MjkzNDAwNzAwMA"},"notGiven":false,"patient":{"reference":"Patient/00a04f0e-43ec-4c22-b0e3-541e1dabd3af"},"primarySource":true,"resourceType":"Immunization","status":"completed","vaccineCode":{"coding":[{"code":"43","display":"Hep B, adult","system":"http://hl7.org/fhir/sid/cvx"}],"text":"Hep B, adult"}}},{"resource":{"date":"2012-03-17T15:32:45-04:00","encounter":{"reference":"Encounter/d5613237-7012-4c66-a3c2-ddf2a6affdd6"},"id":"9e21262a-97eb-4434-8fd8-fb9ad5b0ebe0","meta":{"lastUpdated":"2019-04-09T10:20:47.794687+00:00","versionId":"MTU1NDgwNTI0Nzc5NDY4NzAwMA"},"notGiven":false,"patient":{"reference":"Patient/00a04f0e-43ec-4c22-b0e3-541e1dabd3af"},"primarySource":true,"resourceType":"Immunization","status":"completed","vaccineCode":{"coding":[{"code":"140","display":"Influenza, seasonal, injectable, preservative free","system":"http://hl7.org/fhir/sid/cvx"}],"text":"Influenza, seasonal, injectable, preservative free"}}},{"resource":{"date":"2014-03-29T15:32:45-04:00","encounter":{"reference":"Encounter/445b075e-54fa-4705-92df-facde15135bc"},"id":"ce63ca2e-bb23-43da-962c-3d0f7382ba6e","meta":{"lastUpdated":"2019-04-09T10:20:50.834687+00:00","versionId":"MTU1NDgwNTI1MDgzNDY4NzAwMA"},"notGiven":false,"patient":{"reference":"Patient/00a04f0e-43ec-4c22-b0e3-541e1dabd3af"},"primarySource":true,"resourceType":"Immunization","status":"completed","vaccineCode":{"coding":[{"code":"140","display":"Influenza, seasonal, injectable, preservative free","system":"http://hl7.org/fhir/sid/cvx"}],"text":"Influenza, seasonal, injectable, preservative free"}}},{"resource":{"date":"2017-04-01T15:32:45-04:00","encounter":{"reference":"Encounter/d9cd13df-a464-44e9-8fc8-e151ad466b5d"},"id":"d715c6b4-4e52-4691-84f6-cd20d2461722","meta":{"lastUpdated":"2019-04-09T10:20:52.938546+00:00","versionId":"MTU1NDgwNTI1MjkzODU0NjAwMA"},"notGiven":false,"patient":{"reference":"Patient/00a04f0e-43ec-4c22-b0e3-541e1dabd3af"},"primarySource":true,"resourceType":"Immunization","status":"completed","vaccineCode":{"coding":[{"code":"114","display":"meningococcal MCV4P","system":"http://hl7.org/fhir/sid/cvx"}],"text":"meningococcal MCV4P"}}},{"resource":{"authoredOn":"2013-01-03T14:32:45-05:00","context":{"reference":"Encounter/d7c581b4-4b94-4b8f-b360-d3f051ccc30f"},"id":"01623bd3-6923-4f12-8955-8a8679636830","intent":"order","medicationCodeableConcept":{"coding":[{"code":"1860154","display":"Abuse-Deterrent 12 HR Oxycodone Hydrochloride 15 MG Extended Release Oral Tablet","system":"http://www.nlm.nih.gov/research/umls/rxnorm"}],"text":"Abuse-Deterrent 12 HR Oxycodone Hydrochloride 15 MG Extended Release Oral Tablet"},"meta":{"lastUpdated":"2019-04-09T10:20:49.829694+00:00","versionId":"MTU1NDgwNTI0OTgyOTY5NDAwMA"},"requester":{"agent":{"reference":"Practitioner/80e8e6bd-5973-4681-bb2a-74927c72d003"},"onBehalfOf":{"reference":"Organization/36a03348-cac3-4284-b8c1-ffff7032af72"}},"resourceType":"MedicationRequest","status":"stopped","subject":{"reference":"Patient/00a04f0e-43ec-4c22-b0e3-541e1dabd3af"}}},{"resource":{"authoredOn":"2011-03-05T14:32:45-05:00","context":{"reference":"Encounter/724d534c-a835-469f-b778-96aca8f1b12c"},"id":"0fbbf37a-0d98-4806-ae37-80860bc6fa82","intent":"order","medicationCodeableConcept":{"coding":[{"code":"313782","display":"Acetaminophen 325 MG Oral Tablet","system":"http://www.nlm.nih.gov/research/umls/rxnorm"}],"text":"Acetaminophen 325 MG Oral Tablet"},"meta":{"lastUpdated":"2019-04-09T10:20:45.776539+00:00","versionId":"MTU1NDgwNTI0NTc3NjUzOTAwMA"},"reasonReference":[{"reference":"Condition/315487cf-513c-4320-8182-92e6816167f2"}],"requester":{"agent":{"reference":"Practitioner/80e8e6bd-5973-4681-bb2a-74927c72d003"},"onBehalfOf":{"reference":"Organization/36a03348-cac3-4284-b8c1-ffff7032af72"}},"resourceType":"MedicationRequest","status":"stopped","subject":{"reference":"Patient/00a04f0e-43ec-4c22-b0e3-541e1dabd3af"}}},{"resource":{"authoredOn":"2010-07-08T15:32:45-04:00","context":{"reference":"Encounter/4a62f021-cbd9-41cd-9755-244180a91c3e"},"id":"1d47863c-e90b-4112-bc7b-162d5106bd5e","intent":"order","medicationCodeableConcept":{"coding":[{"code":"1049221","display":"Acetaminophen 325 MG / Oxycodone Hydrochloride 5 MG Oral Tablet","system":"http://www.nlm.nih.gov/research/umls/rxnorm"}],"text":"Acetaminophen 325 MG / Oxycodone Hydrochloride 5 MG Oral Tablet"},"meta":{"lastUpdated":"2019-04-09T10:20:45.768891+00:00","versionId":"MTU1NDgwNTI0NTc2ODg5MTAwMA"},"requester":{"agent":{"reference":"Practitioner/80e8e6bd-5973-4681-bb2a-74927c72d003"},"onBehalfOf":{"reference":"Organization/36a03348-cac3-4284-b8c1-ffff7032af72"}},"resourceType":"MedicationRequest","status":"stopped","subject":{"reference":"Patient/00a04f0e-43ec-4c22-b0e3-541e1dabd3af"}}},{"resource":{"authoredOn":"2013-03-23T15:32:45-04:00","context":{"reference":"Encounter/05d59f7b-87b1-4eff-9987-154a3f58ed69"},"id":"248013cb-48e1-423f-ad7c-1ff18001a03d","intent":"order","medicationCodeableConcept":{"coding":[{"code":"316049","display":"Hydrochlorothiazide 25 MG","system":"http://www.nlm.nih.gov/research/umls/rxnorm"}],"text":"Hydrochlorothiazide 25 MG"},"meta":{"lastUpdated":"2019-04-09T10:20:49.833357+00:00","versionId":"MTU1NDgwNTI0OTgzMzM1NzAwMA"},"reasonReference":[{"reference":"Condition/6fd247be-df98-49dc-ac5d-5ca5adeace2b"}],"requester":{"agent":{"reference":"Practitioner/80e8e6bd-5973-4681-bb2a-74927c72d003"},"onBehalfOf":{"reference":"Organization/36a03348-cac3-4284-b8c1-ffff7032af72"}},"resourceType":"MedicationRequest","status":"active","subject":{"reference":"Patient/00a04f0e-43ec-4c22-b0e3-541e1dabd3af"}}},{"resource":{"authoredOn":"2010-01-18T14:32:45-05:00","context":{"reference":"Encounter/cfb1e758-8088-495b-b3d1-216c1fdbbac1"},"id":"329a844d-5d40-42ed-9899-f7f7e7dae1dc","intent":"order","medicationCodeableConcept":{"coding":[{"code":"1310197","display":"Acetaminophen 300 MG / HYDROcodone Bitartrate 5 MG [Vicodin]","system":"http://www.nlm.nih.gov/research/umls/rxnorm"}],"text":"Acetaminophen 300 MG / HYDROcodone Bitartrate 5 MG [Vicodin]"},"meta":{"lastUpdated":"2019-04-09T10:20:44.694223+00:00","versionId":"MTU1NDgwNTI0NDY5NDIyMzAwMA"},"requester":{"agent":{"reference":"Practitioner/80e8e6bd-5973-4681-bb2a-74927c72d003"},"onBehalfOf":{"reference":"Organization/36a03348-cac3-4284-b8c1-ffff7032af72"}},"resourceType":"MedicationRequest","status":"stopped","subject":{"reference":"Patient/00a04f0e-43ec-4c22-b0e3-541e1dabd3af"}}},{"resource":{"authoredOn":"2014-12-05T14:32:45-05:00","context":{"reference":"Encounter/f31a7bf7-1099-46ca-b55b-4bd4c36fb726"},"id":"34d1f920-71da-4ea2-834e-07d815f65ee7","intent":"order","medicationCodeableConcept":{"coding":[{"code":"831533","display":"Errin 28 Day Pack","system":"http://www.nlm.nih.gov/research/umls/rxnorm"}],"text":"Errin 28 Day Pack"},"meta":{"lastUpdated":"2019-04-09T10:20:50.837090+00:00","versionId":"MTU1NDgwNTI1MDgzNzA5MDAwMA"},"requester":{"agent":{"reference":"Practitioner/80e8e6bd-5973-4681-bb2a-74927c72d003"},"onBehalfOf":{"reference":"Organization/36a03348-cac3-4284-b8c1-ffff7032af72"}},"resourceType":"MedicationRequest","status":"stopped","subject":{"reference":"Patient/00a04f0e-43ec-4c22-b0e3-541e1dabd3af"}}},{"resource":{"authoredOn":"2012-01-15T14:32:45-05:00","context":{"reference":"Encounter/5250dcd4-eb27-4c42-984f-bf1dfe096614"},"id":"36f319fa-ba92-473b-b7d3-f12528ed5688","intent":"order","medicationCodeableConcept":{"coding":[{"code":"1049221","display":"Acetaminophen 325 MG / Oxycodone Hydrochloride 5 MG Oral Tablet","system":"http://www.nlm.nih.gov/research/umls/rxnorm"}],"text":"Acetaminophen 325 MG / Oxycodone Hydrochloride 5 MG Oral Tablet"},"meta":{"lastUpdated":"2019-04-09T10:20:47.804953+00:00","versionId":"MTU1NDgwNTI0NzgwNDk1MzAwMA"},"requester":{"agent":{"reference":"Practitioner/80e8e6bd-5973-4681-bb2a-74927c72d003"},"onBehalfOf":{"reference":"Organization/36a03348-cac3-4284-b8c1-ffff7032af72"}},"resourceType":"MedicationRequest","status":"stopped","subject":{"reference":"Patient/00a04f0e-43ec-4c22-b0e3-541e1dabd3af"}}},{"resource":{"authoredOn":"2009-03-11T15:32:45-04:00","context":{"reference":"Encounter/d2269859-54ef-4270-b898-2b12d185aea7"},"id":"372ab6cf-a1df-44dd-acfb-e754820913ff","intent":"order","medicationCodeableConcept":{"coding":[{"code":"1310197","display":"Acetaminophen 300 MG / HYDROcodone Bitartrate 5 MG [Vicodin]","system":"http://www.nlm.nih.gov/research/umls/rxnorm"}],"text":"Acetaminophen 300 MG / HYDROcodone Bitartrate 5 MG [Vicodin]"},"meta":{"lastUpdated":"2019-04-09T10:20:44.694222+00:00","versionId":"MTU1NDgwNTI0NDY5NDIyMjAwMA"},"requester":{"agent":{"reference":"Practitioner/80e8e6bd-5973-4681-bb2a-74927c72d003"},"onBehalfOf":{"reference":"Organization/36a03348-cac3-4284-b8c1-ffff7032af72"}},"resourceType":"MedicationRequest","status":"stopped","subject":{"reference":"Patient/00a04f0e-43ec-4c22-b0e3-541e1dabd3af"}}},{"resource":{"authoredOn":"2013-07-17T15:32:45-04:00","context":{"reference":"Encounter/2102bb19-b212-4a24-a29f-1eed928314e2"},"id":"3acf031a-c68e-436a-9ff3-3ebe35e46828","intent":"order","medicationCodeableConcept":{"coding":[{"code":"1860154","display":"Abuse-Deterrent 12 HR Oxycodone Hydrochloride 15 MG Extended Release Oral Tablet","system":"http://www.nlm.nih.gov/research/umls/rxnorm"}],"text":"Abuse-Deterrent 12 HR Oxycodone Hydrochloride 15 MG Extended Release Oral Tablet"},"meta":{"lastUpdated":"2019-04-09T10:20:50.838058+00:00","versionId":"MTU1NDgwNTI1MDgzODA1ODAwMA"},"requester":{"agent":{"reference":"Practitioner/80e8e6bd-5973-4681-bb2a-74927c72d003"},"onBehalfOf":{"reference":"Organization/36a03348-cac3-4284-b8c1-ffff7032af72"}},"resourceType":"MedicationRequest","status":"stopped","subject":{"reference":"Patient/00a04f0e-43ec-4c22-b0e3-541e1dabd3af"}}},{"resource":{"authoredOn":"2008-11-15T14:32:45-05:00","context":{"reference":"Encounter/703ed18a-9564-45d7-8021-173c12152cf6"},"id":"46039110-8e8e-4ac7-87c6-26cc17c29e85","intent":"order","medicationCodeableConcept":{"coding":[{"code":"749785","display":"Ortho Tri-Cyclen 28 Day Pack","system":"http://www.nlm.nih.gov/research/umls/rxnorm"}],"text":"Ortho Tri-Cyclen 28 Day Pack"},"meta":{"lastUpdated":"2019-04-09T10:20:44.697264+00:00","versionId":"MTU1NDgwNTI0NDY5NzI2NDAwMA"},"requester":{"agent":{"reference":"Practitioner/80e8e6bd-5973-4681-bb2a-74927c72d003"},"onBehalfOf":{"reference":"Organization/36a03348-cac3-4284-b8c1-ffff7032af72"}},"resourceType":"MedicationRequest","status":"stopped","subject":{"reference":"Patient/00a04f0e-43ec-4c22-b0e3-541e1dabd3af"}}},{"resource":{"authoredOn":"2009-09-17T15:32:45-04:00","context":{"reference":"Encounter/86611c80-1ffc-4a5f-a5b8-db147b906346"},"id":"528ddb91-3935-41c5-abe4-7b36d070c48a","intent":"order","medicationCodeableConcept":{"coding":[{"code":"1860154","display":"Abuse-Deterrent 12 HR Oxycodone Hydrochloride 15 MG Extended Release Oral Tablet","system":"http://www.nlm.nih.gov/research/umls/rxnorm"}],"text":"Abuse-Deterrent 12 HR Oxycodone Hydrochloride 15 MG Extended Release Oral Tablet"},"meta":{"lastUpdated":"2019-04-09T10:20:44.693834+00:00","versionId":"MTU1NDgwNTI0NDY5MzgzNDAwMA"},"requester":{"agent":{"reference":"Practitioner/80e8e6bd-5973-4681-bb2a-74927c72d003"},"onBehalfOf":{"reference":"Organization/36a03348-cac3-4284-b8c1-ffff7032af72"}},"resourceType":"MedicationRequest","status":"stopped","subject":{"reference":"Patient/00a04f0e-43ec-4c22-b0e3-541e1dabd3af"}}},{"resource":{"authoredOn":"2011-03-15T15:32:45-04:00","context":{"reference":"Encounter/680b8ab2-f9f6-409c-85fc-c8f30c1834a3"},"id":"611ad55e-307c-46e6-a077-4cfb72480530","intent":"order","medicationCodeableConcept":{"coding":[{"code":"1310197","display":"Acetaminophen 300 MG / HYDROcodone Bitartrate 5 MG [Vicodin]","system":"http://www.nlm.nih.gov/research/umls/rxnorm"}],"text":"Acetaminophen 300 MG / HYDROcodone Bitartrate 5 MG [Vicodin]"},"meta":{"lastUpdated":"2019-04-09T10:20:46.787068+00:00","versionId":"MTU1NDgwNTI0Njc4NzA2ODAwMA"},"requester":{"agent":{"reference":"Practitioner/80e8e6bd-5973-4681-bb2a-74927c72d003"},"onBehalfOf":{"reference":"Organization/36a03348-cac3-4284-b8c1-ffff7032af72"}},"resourceType":"MedicationRequest","status":"stopped","subject":{"reference":"Patient/00a04f0e-43ec-4c22-b0e3-541e1dabd3af"}}},{"resource":{"authoredOn":"2011-02-08T14:32:45-05:00","context":{"reference":"Encounter/367a0d3b-bfea-4d38-8297-53358ba690d6"},"id":"62d69121-40a6-4072-9dfb-fd66fd449b55","intent":"order","medicationCodeableConcept":{"coding":[{"code":"1310197","display":"Acetaminophen 300 MG / HYDROcodone Bitartrate 5 MG [Vicodin]","system":"http://www.nlm.nih.gov/research/umls/rxnorm"}],"text":"Acetaminophen 300 MG / HYDROcodone Bitartrate 5 MG [Vicodin]"},"meta":{"lastUpdated":"2019-04-09T10:20:45.779626+00:00","versionId":"MTU1NDgwNTI0NTc3OTYyNjAwMA"},"requester":{"agent":{"reference":"Practitioner/80e8e6bd-5973-4681-bb2a-74927c72d003"},"onBehalfOf":{"reference":"Organization/36a03348-cac3-4284-b8c1-ffff7032af72"}},"resourceType":"MedicationRequest","status":"stopped","subject":{"reference":"Patient/00a04f0e-43ec-4c22-b0e3-541e1dabd3af"}}},{"resource":{"authoredOn":"2008-12-22T14:32:45-05:00","context":{"reference":"Encounter/ad3c432e-d1e8-4af8-b1e9-87445c4ad4d8"},"id":"66cd5bf7-9421-46c5-a407-d39a8bad3ad1","intent":"order","medicationCodeableConcept":{"coding":[{"code":"1310197","display":"Acetaminophen 300 MG / HYDROcodone Bitartrate 5 MG [Vicodin]","system":"http://www.nlm.nih.gov/research/umls/rxnorm"}],"text":"Acetaminophen 300 MG / HYDROcodone Bitartrate 5 MG [Vicodin]"},"meta":{"lastUpdated":"2019-04-09T10:20:44.697266+00:00","versionId":"MTU1NDgwNTI0NDY5NzI2NjAwMA"},"requester":{"agent":{"reference":"Practitioner/80e8e6bd-5973-4681-bb2a-74927c72d003"},"onBehalfOf":{"reference":"Organization/36a03348-cac3-4284-b8c1-ffff7032af72"}},"resourceType":"MedicationRequest","status":"stopped","subject":{"reference":"Patient/00a04f0e-43ec-4c22-b0e3-541e1dabd3af"}}},{"resource":{"authoredOn":"2009-04-17T15:32:45-04:00","context":{"reference":"Encounter/6cae0338-d767-4378-94e0-b7250ff3c53c"},"id":"7031b462-6dc2-4497-9e40-de3ae48936f8","intent":"order","medicationCodeableConcept":{"coding":[{"code":"1049221","display":"Acetaminophen 325 MG / Oxycodone Hydrochloride 5 MG Oral Tablet","system":"http://www.nlm.nih.gov/research/umls/rxnorm"}],"text":"Acetaminophen 325 MG / Oxycodone Hydrochloride 5 MG Oral Tablet"},"meta":{"lastUpdated":"2019-04-09T10:20:44.696355+00:00","versionId":"MTU1NDgwNTI0NDY5NjM1NTAwMA"},"requester":{"agent":{"reference":"Practitioner/80e8e6bd-5973-4681-bb2a-74927c72d003"},"onBehalfOf":{"reference":"Organization/36a03348-cac3-4284-b8c1-ffff7032af72"}},"resourceType":"MedicationRequest","status":"stopped","subject":{"reference":"Patient/00a04f0e-43ec-4c22-b0e3-541e1dabd3af"}}},{"resource":{"authoredOn":"2010-08-14T15:32:45-04:00","context":{"reference":"Encounter/4a1ccdb5-56f8-4d0f-9498-ecc2746007bc"},"id":"7bdf937b-1317-4239-8a65-a88a4ccd09c3","intent":"order","medicationCodeableConcept":{"coding":[{"code":"1049221","display":"Acetaminophen 325 MG / Oxycodone Hydrochloride 5 MG Oral Tablet","system":"http://www.nlm.nih.gov/research/umls/rxnorm"}],"text":"Acetaminophen 325 MG / Oxycodone Hydrochloride 5 MG Oral Tablet"},"meta":{"lastUpdated":"2019-04-09T10:20:45.777367+00:00","versionId":"MTU1NDgwNTI0NTc3NzM2NzAwMA"},"requester":{"agent":{"reference":"Practitioner/80e8e6bd-5973-4681-bb2a-74927c72d003"},"onBehalfOf":{"reference":"Organization/36a03348-cac3-4284-b8c1-ffff7032af72"}},"resourceType":"MedicationRequest","status":"stopped","subject":{"reference":"Patient/00a04f0e-43ec-4c22-b0e3-541e1dabd3af"}}},{"resource":{"authoredOn":"2018-11-14T14:32:45-05:00","context":{"reference":"Encounter/b9280bfa-fc1c-4f06-b4c1-a0666d475b47"},"id":"9acfcca0-6fa6-4f81-9869-c6b544e9f69e","intent":"order","medicationCodeableConcept":{"coding":[{"code":"757594","display":"Jolivette 28 Day Pack","system":"http://www.nlm.nih.gov/research/umls/rxnorm"}],"text":"Jolivette 28 Day Pack"},"meta":{"lastUpdated":"2019-04-09T10:20:52.935821+00:00","versionId":"MTU1NDgwNTI1MjkzNTgyMTAwMA"},"requester":{"agent":{"reference":"Practitioner/80e8e6bd-5973-4681-bb2a-74927c72d003"},"onBehalfOf":{"reference":"Organization/36a03348-cac3-4284-b8c1-ffff7032af72"}},"resourceType":"MedicationRequest","status":"active","subject":{"reference":"Patient/00a04f0e-43ec-4c22-b0e3-541e1dabd3af"}}},{"resource":{"authoredOn":"2016-11-24T14:32:45-05:00","context":{"reference":"Encounter/600d32ce-62f2-46fe-b497-90b2ee135906"},"id":"ba9c5ae9-b2af-44db-95df-61d9f32126e6","intent":"order","medicationCodeableConcept":{"coding":[{"code":"757594","display":"Jolivette 28 Day Pack","system":"http://www.nlm.nih.gov/research/umls/rxnorm"}],"text":"Jolivette 28 Day Pack"},"meta":{"lastUpdated":"2019-04-09T10:20:51.874987+00:00","versionId":"MTU1NDgwNTI1MTg3NDk4NzAwMA"},"requester":{"agent":{"reference":"Practitioner/80e8e6bd-5973-4681-bb2a-74927c72d003"},"onBehalfOf":{"reference":"Organization/36a03348-cac3-4284-b8c1-ffff7032af72"}},"resourceType":"MedicationRequest","status":"stopped","subject":{"reference":"Patient/00a04f0e-43ec-4c22-b0e3-541e1dabd3af"}}},{"resource":{"authoredOn":"2009-10-24T15:32:45-04:00","context":{"reference":"Encounter/7998cb33-8fb2-411a-a6a9-62b25639197e"},"id":"cce9ac25-4929-4fb7-b1b4-b73956b3dd86","intent":"order","medicationCodeableConcept":{"coding":[{"code":"1310197","display":"Acetaminophen 300 MG / HYDROcodone Bitartrate 5 MG [Vicodin]","system":"http://www.nlm.nih.gov/research/umls/rxnorm"}],"text":"Acetaminophen 300 MG / HYDROcodone Bitartrate 5 MG [Vicodin]"},"meta":{"lastUpdated":"2019-04-09T10:20:44.696356+00:00","versionId":"MTU1NDgwNTI0NDY5NjM1NjAwMA"},"requester":{"agent":{"reference":"Practitioner/80e8e6bd-5973-4681-bb2a-74927c72d003"},"onBehalfOf":{"reference":"Organization/36a03348-cac3-4284-b8c1-ffff7032af72"}},"resourceType":"MedicationRequest","status":"stopped","subject":{"reference":"Patient/00a04f0e-43ec-4c22-b0e3-541e1dabd3af"}}},{"resource":{"authoredOn":"2012-10-07T15:32:45-04:00","context":{"reference":"Encounter/7678cb9e-1fe0-4c98-852e-7fdd0546d92c"},"id":"d08af2dc-e68b-43fa-911a-d622bd68b2ee","intent":"order","medicationCodeableConcept":{"coding":[{"code":"1049221","display":"Acetaminophen 325 MG / Oxycodone Hydrochloride 5 MG Oral Tablet","system":"http://www.nlm.nih.gov/research/umls/rxnorm"}],"text":"Acetaminophen 325 MG / Oxycodone Hydrochloride 5 MG Oral Tablet"},"meta":{"lastUpdated":"2019-04-09T10:20:49.826755+00:00","versionId":"MTU1NDgwNTI0OTgyNjc1NTAwMA"},"requester":{"agent":{"reference":"Practitioner/80e8e6bd-5973-4681-bb2a-74927c72d003"},"onBehalfOf":{"reference":"Organization/36a03348-cac3-4284-b8c1-ffff7032af72"}},"resourceType":"MedicationRequest","status":"stopped","subject":{"reference":"Patient/00a04f0e-43ec-4c22-b0e3-541e1dabd3af"}}},{"resource":{"authoredOn":"2012-03-20T15:32:45-04:00","context":{"reference":"Encounter/a86205fe-1fca-46d5-a265-c3588b30c366"},"id":"e1bd702f-0c0a-4a69-bb6a-280b0544e8a6","intent":"order","medicationCodeableConcept":{"coding":[{"code":"1049221","display":"Acetaminophen 325 MG / Oxycodone Hydrochloride 5 MG Oral Tablet","system":"http://www.nlm.nih.gov/research/umls/rxnorm"}],"text":"Acetaminophen 325 MG / Oxycodone Hydrochloride 5 MG Oral Tablet"},"meta":{"lastUpdated":"2019-04-09T10:20:47.792636+00:00","versionId":"MTU1NDgwNTI0Nzc5MjYzNjAwMA"},"requester":{"agent":{"reference":"Practitioner/80e8e6bd-5973-4681-bb2a-74927c72d003"},"onBehalfOf":{"reference":"Organization/36a03348-cac3-4284-b8c1-ffff7032af72"}},"resourceType":"MedicationRequest","status":"stopped","subject":{"reference":"Patient/00a04f0e-43ec-4c22-b0e3-541e1dabd3af"}}},{"resource":{"authoredOn":"2011-11-25T14:32:45-05:00","context":{"reference":"Encounter/e17a1f91-c71f-482d-8661-57527f8ced29"},"id":"e92ea619-0e24-4124-80f9-10e8c2aeb6b3","intent":"order","medicationCodeableConcept":{"coding":[{"code":"1860154","display":"Abuse-Deterrent 12 HR Oxycodone Hydrochloride 15 MG Extended Release Oral Tablet","system":"http://www.nlm.nih.gov/research/umls/rxnorm"}],"text":"Abuse-Deterrent 12 HR Oxycodone Hydrochloride 15 MG Extended Release Oral Tablet"},"meta":{"lastUpdated":"2019-04-09T10:20:47.793918+00:00","versionId":"MTU1NDgwNTI0Nzc5MzkxODAwMA"},"requester":{"agent":{"reference":"Practitioner/80e8e6bd-5973-4681-bb2a-74927c72d003"},"onBehalfOf":{"reference":"Organization/36a03348-cac3-4284-b8c1-ffff7032af72"}},"resourceType":"MedicationRequest","status":"stopped","subject":{"reference":"Patient/00a04f0e-43ec-4c22-b0e3-541e1dabd3af"}}},{"resource":{"authoredOn":"2011-08-17T15:32:45-04:00","context":{"reference":"Encounter/ab5e3ee8-0ebf-471b-881e-510f91be8b1d"},"id":"f7e8535d-5db9-49ae-8710-57b61b14269e","intent":"order","medicationCodeableConcept":{"coding":[{"code":"1049221","display":"Acetaminophen 325 MG / Oxycodone Hydrochloride 5 MG Oral Tablet","system":"http://www.nlm.nih.gov/research/umls/rxnorm"}],"text":"Acetaminophen 325 MG / Oxycodone Hydrochloride 5 MG Oral Tablet"},"meta":{"lastUpdated":"2019-04-09T10:20:46.797238+00:00","versionId":"MTU1NDgwNTI0Njc5NzIzODAwMA"},"requester":{"agent":{"reference":"Practitioner/80e8e6bd-5973-4681-bb2a-74927c72d003"},"onBehalfOf":{"reference":"Organization/36a03348-cac3-4284-b8c1-ffff7032af72"}},"resourceType":"MedicationRequest","status":"stopped","subject":{"reference":"Patient/00a04f0e-43ec-4c22-b0e3-541e1dabd3af"}}},{"resource":{"authoredOn":"2010-05-25T15:32:45-04:00","context":{"reference":"Encounter/dab67002-9b67-45d6-acb2-9c92ed8b5079"},"id":"fb637f8e-007a-4532-915e-037f324d2d99","intent":"order","medicationCodeableConcept":{"coding":[{"code":"1049221","display":"Acetaminophen 325 MG / Oxycodone Hydrochloride 5 MG Oral Tablet","system":"http://www.nlm.nih.gov/research/umls/rxnorm"}],"text":"Acetaminophen 325 MG / Oxycodone Hydrochloride 5 MG Oral Tablet"},"meta":{"lastUpdated":"2019-04-09T10:20:45.779625+00:00","versionId":"MTU1NDgwNTI0NTc3OTYyNTAwMA"},"requester":{"agent":{"reference":"Practitioner/80e8e6bd-5973-4681-bb2a-74927c72d003"},"onBehalfOf":{"reference":"Organization/36a03348-cac3-4284-b8c1-ffff7032af72"}},"resourceType":"MedicationRequest","status":"stopped","subject":{"reference":"Patient/00a04f0e-43ec-4c22-b0e3-541e1dabd3af"}}},{"resource":{"authoredOn":"2011-06-11T15:32:45-04:00","context":{"reference":"Encounter/32e7b403-7973-45c2-aac3-79961c88aa9e"},"id":"ffadbefc-08cb-4147-a1b8-8423c28d72f0","intent":"order","medicationCodeableConcept":{"coding":[{"code":"1049221","display":"Acetaminophen 325 MG / Oxycodone Hydrochloride 5 MG Oral Tablet","system":"http://www.nlm.nih.gov/research/umls/rxnorm"}],"text":"Acetaminophen 325 MG / Oxycodone Hydrochloride 5 MG Oral Tablet"},"meta":{"lastUpdated":"2019-04-09T10:20:46.787470+00:00","versionId":"MTU1NDgwNTI0Njc4NzQ3MDAwMA"},"requester":{"agent":{"reference":"Practitioner/80e8e6bd-5973-4681-bb2a-74927c72d003"},"onBehalfOf":{"reference":"Organization/36a03348-cac3-4284-b8c1-ffff7032af72"}},"resourceType":"MedicationRequest","status":"stopped","subject":{"reference":"Patient/00a04f0e-43ec-4c22-b0e3-541e1dabd3af"}}},{"resource":{"category":[{"coding":[{"code":"vital-signs","display":"vital-signs","system":"http://hl7.org/fhir/observation-category"}]}],"code":{"coding":[{"code":"72514-3","display":"Pain severity - 0-10 verbal numeric rating [Score] - Reported","system":"http://loinc.org"}],"text":"Pain severity - 0-10 verbal numeric rating [Score] - Reported"},"context":{"reference":"Encounter/8d4023ba-665b-4dad-9c1b-d56f7b38d159"},"effectiveDateTime":"2018-12-13T14:32:45-05:00","id":"03ac801b-7f1d-4909-9459-1c0bb15236b9","issued":"2018-12-13T14:32:45.022-05:00","meta":{"lastUpdated":"2019-04-09T10:20:52.938424+00:00","versionId":"MTU1NDgwNTI1MjkzODQyNDAwMA"},"resourceType":"Observation","status":"final","subject":{"reference":"Patient/00a04f0e-43ec-4c22-b0e3-541e1dabd3af"},"valueQuantity":{"code":"{score}","system":"http://unitsofmeasure.org","unit":"{score}","value":3.104974996917665}}},{"resource":{"category":[{"coding":[{"code":"vital-signs","display":"vital-signs","system":"http://hl7.org/fhir/observation-category"}]}],"code":{"coding":[{"code":"55284-4","display":"Blood Pressure","system":"http://loinc.org"}],"text":"Blood Pressure"},"component":[{"code":{"coding":[{"code":"8462-4","display":"Diastolic Blood Pressure","system":"http://loinc.org"}],"text":"Diastolic Blood Pressure"},"valueQuantity":{"code":"mmHg","system":"http://unitsofmeasure.org","unit":"mmHg","value":99.57791472546803}},{"code":{"coding":[{"code":"8480-6","display":"Systolic Blood Pressure","system":"http://loinc.org"}],"text":"Systolic Blood Pressure"},"valueQuantity":{"code":"mmHg","system":"http://unitsofmeasure.org","unit":"mmHg","value":189.6784780387528}}],"context":{"reference":"Encounter/445b075e-54fa-4705-92df-facde15135bc"},"effectiveDateTime":"2014-03-29T15:32:45-04:00","id":"05203740-780a-4f8f-9cca-215f0eb222fc","issued":"2014-03-29T15:32:45.022-04:00","meta":{"lastUpdated":"2019-04-09T10:20:50.834576+00:00","versionId":"MTU1NDgwNTI1MDgzNDU3NjAwMA"},"resourceType":"Observation","status":"final","subject":{"reference":"Patient/00a04f0e-43ec-4c22-b0e3-541e1dabd3af"}}},{"resource":{"category":[{"coding":[{"code":"vital-signs","display":"vital-signs","system":"http://hl7.org/fhir/observation-category"}]}],"code":{"coding":[{"code":"72514-3","display":"Pain severity - 0-10 verbal numeric rating [Score] - Reported","system":"http://loinc.org"}],"text":"Pain severity - 0-10 verbal numeric rating [Score] - Reported"},"context":{"reference":"Encounter/7998cb33-8fb2-411a-a6a9-62b25639197e"},"effectiveDateTime":"2009-10-24T15:32:45-04:00","id":"0593b17e-4c07-4f08-b6d3-67a456ad47af","issued":"2009-10-24T15:32:45.022-04:00","meta":{"lastUpdated":"2019-04-09T10:20:44.686326+00:00","versionId":"MTU1NDgwNTI0NDY4NjMyNjAwMA"},"resourceType":"Observation","status":"final","subject":{"reference":"Patient/00a04f0e-43ec-4c22-b0e3-541e1dabd3af"},"valueQuantity":{"code":"{score}","system":"http://unitsofmeasure.org","unit":"{score}","value":3.033747095549352}}},{"resource":{"category":[{"coding":[{"code":"vital-signs","display":"vital-signs","system":"http://hl7.org/fhir/observation-category"}]}],"code":{"coding":[{"code":"39156-5","display":"Body Mass Index","system":"http://loinc.org"}],"text":"Body Mass Index"},"context":{"reference":"Encounter/d9cd13df-a464-44e9-8fc8-e151ad466b5d"},"effectiveDateTime":"2017-04-01T15:32:45-04:00","id":"078c7349-101b-40bf-a60e-794e7e3604ae","issued":"2017-04-01T15:32:45.022-04:00","meta":{"lastUpdated":"2019-04-09T10:20:51.875217+00:00","versionId":"MTU1NDgwNTI1MTg3NTIxNzAwMA"},"resourceType":"Observation","status":"final","subject":{"reference":"Patient/00a04f0e-43ec-4c22-b0e3-541e1dabd3af"},"valueQuantity":{"code":"kg/m2","system":"http://unitsofmeasure.org","unit":"kg/m2","value":25.913651774491306}}},{"resource":{"category":[{"coding":[{"code":"vital-signs","display":"vital-signs","system":"http://hl7.org/fhir/observation-category"}]}],"code":{"coding":[{"code":"8302-2","display":"Body Height","system":"http://loinc.org"}],"text":"Body Height"},"context":{"reference":"Encounter/2ed4f219-13b8-49ad-8e5c-b301af2b70d8"},"effectiveDateTime":"2009-04-18T15:32:45-04:00","id":"0facb7a8-a0bc-4e1e-b78a-693952fb7a83","issued":"2009-04-18T15:32:45.022-04:00","meta":{"lastUpdated":"2019-04-09T10:20:44.686350+00:00","versionId":"MTU1NDgwNTI0NDY4NjM1MDAwMA"},"resourceType":"Observation","status":"final","subject":{"reference":"Patient/00a04f0e-43ec-4c22-b0e3-541e1dabd3af"},"valueQuantity":{"code":"cm","system":"http://unitsofmeasure.org","unit":"cm","value":156.13662413495692}}},{"resource":{"category":[{"coding":[{"code":"vital-signs","display":"vital-signs","system":"http://hl7.org/fhir/observation-category"}]}],"code":{"coding":[{"code":"8302-2","display":"Body Height","system":"http://loinc.org"}],"text":"Body Height"},"context":{"reference":"Encounter/f7c23241-f81d-4c57-bb48-ebd7251aafbb"},"effectiveDateTime":"2010-04-24T15:32:45-04:00","id":"1220854f-7d94-4a50-8a25-b3e6a4b9f50f","issued":"2010-04-24T15:32:45.022-04:00","meta":{"lastUpdated":"2019-04-09T10:20:45.766644+00:00","versionId":"MTU1NDgwNTI0NTc2NjY0NDAwMA"},"resourceType":"Observation","status":"final","subject":{"reference":"Patient/00a04f0e-43ec-4c22-b0e3-541e1dabd3af"},"valueQuantity":{"code":"cm","system":"http://unitsofmeasure.org","unit":"cm","value":157.273372740881}}},{"resource":{"category":[{"coding":[{"code":"vital-signs","display":"vital-signs","system":"http://hl7.org/fhir/observation-category"}]}],"code":{"coding":[{"code":"8302-2","display":"Body Height","system":"http://loinc.org"}],"text":"Body Height"},"context":{"reference":"Encounter/d9cd13df-a464-44e9-8fc8-e151ad466b5d"},"effectiveDateTime":"2017-04-01T15:32:45-04:00","id":"122ecfde-d52b-4229-afa9-7cba96b9863a","issued":"2017-04-01T15:32:45.022-04:00","meta":{"lastUpdated":"2019-04-09T10:20:51.875222+00:00","versionId":"MTU1NDgwNTI1MTg3NTIyMjAwMA"},"resourceType":"Observation","status":"final","subject":{"reference":"Patient/00a04f0e-43ec-4c22-b0e3-541e1dabd3af"},"valueQuantity":{"code":"cm","system":"http://unitsofmeasure.org","unit":"cm","value":158.42323997044883}}},{"resource":{"category":[{"coding":[{"code":"vital-signs","display":"vital-signs","system":"http://hl7.org/fhir/observation-category"}]}],"code":{"coding":[{"code":"55284-4","display":"Blood Pressure","system":"http://loinc.org"}],"text":"Blood Pressure"},"component":[{"code":{"coding":[{"code":"8462-4","display":"Diastolic Blood Pressure","system":"http://loinc.org"}],"text":"Diastolic Blood Pressure"},"valueQuantity":{"code":"mmHg","system":"http://unitsofmeasure.org","unit":"mmHg","value":83.61070877732485}},{"code":{"coding":[{"code":"8480-6","display":"Systolic Blood Pressure","system":"http://loinc.org"}],"text":"Systolic Blood Pressure"},"valueQuantity":{"code":"mmHg","system":"http://unitsofmeasure.org","unit":"mmHg","value":122.28600665891523}}],"context":{"reference":"Encounter/2ed4f219-13b8-49ad-8e5c-b301af2b70d8"},"effectiveDateTime":"2009-04-18T15:32:45-04:00","id":"1251422a-d3af-4054-922c-cab031bf5081","issued":"2009-04-18T15:32:45.022-04:00","meta":{"lastUpdated":"2019-04-09T10:20:44.682492+00:00","versionId":"MTU1NDgwNTI0NDY4MjQ5MjAwMA"},"resourceType":"Observation","status":"final","subject":{"reference":"Patient/00a04f0e-43ec-4c22-b0e3-541e1dabd3af"}}},{"resource":{"category":[{"coding":[{"code":"vital-signs","display":"vital-signs","system":"http://hl7.org/fhir/observation-category"}]}],"code":{"coding":[{"code":"72514-3","display":"Pain severity - 0-10 verbal numeric rating [Score] - Reported","system":"http://loinc.org"}],"text":"Pain severity - 0-10 verbal numeric rating [Score] - Reported"},"context":{"reference":"Encounter/367a0d3b-bfea-4d38-8297-53358ba690d6"},"effectiveDateTime":"2011-02-08T14:32:45-05:00","id":"15b45b2b-be0d-4310-9304-68ce603ec28a","issued":"2011-02-08T14:32:45.022-05:00","meta":{"lastUpdated":"2019-04-09T10:20:45.772781+00:00","versionId":"MTU1NDgwNTI0NTc3Mjc4MTAwMA"},"resourceType":"Observation","status":"final","subject":{"reference":"Patient/00a04f0e-43ec-4c22-b0e3-541e1dabd3af"},"valueQuantity":{"code":"{score}","system":"http://unitsofmeasure.org","unit":"{score}","value":7.477146235999187}}},{"resource":{"category":[{"coding":[{"code":"vital-signs","display":"vital-signs","system":"http://hl7.org/fhir/observation-category"}]}],"code":{"coding":[{"code":"72514-3","display":"Pain severity - 0-10 verbal numeric rating [Score] - Reported","system":"http://loinc.org"}],"text":"Pain severity - 0-10 verbal numeric rating [Score] - Reported"},"context":{"reference":"Encounter/680b8ab2-f9f6-409c-85fc-c8f30c1834a3"},"effectiveDateTime":"2011-03-15T15:32:45-04:00","id":"18e04b4a-9a76-40f4-a1c7-57284eee4854","issued":"2011-03-15T15:32:45.022-04:00","meta":{"lastUpdated":"2019-04-09T10:20:46.783459+00:00","versionId":"MTU1NDgwNTI0Njc4MzQ1OTAwMA"},"resourceType":"Observation","status":"final","subject":{"reference":"Patient/00a04f0e-43ec-4c22-b0e3-541e1dabd3af"},"valueQuantity":{"code":"{score}","system":"http://unitsofmeasure.org","unit":"{score}","value":7.7868000296768995}}},{"resource":{"category":[{"coding":[{"code":"vital-signs","display":"vital-signs","system":"http://hl7.org/fhir/observation-category"}]}],"code":{"coding":[{"code":"8302-2","display":"Body Height","system":"http://loinc.org"}],"text":"Body Height"},"context":{"reference":"Encounter/445b075e-54fa-4705-92df-facde15135bc"},"effectiveDateTime":"2014-03-29T15:32:45-04:00","id":"1c58c31a-26c2-410a-ab43-d69de7df4b9c","issued":"2014-03-29T15:32:45.022-04:00","meta":{"lastUpdated":"2019-04-09T10:20:50.834650+00:00","versionId":"MTU1NDgwNTI1MDgzNDY1MDAwMA"},"resourceType":"Observation","status":"final","subject":{"reference":"Patient/00a04f0e-43ec-4c22-b0e3-541e1dabd3af"},"valueQuantity":{"code":"cm","system":"http://unitsofmeasure.org","unit":"cm","value":158.37910676279003}}},{"resource":{"category":[{"coding":[{"code":"laboratory","display":"laboratory","system":"http://hl7.org/fhir/observation-category"}]}],"code":{"coding":[{"code":"787-2","display":"MCV [Entitic volume] by Automated count","system":"http://loinc.org"}],"text":"MCV [Entitic volume] by Automated count"},"context":{"reference":"Encounter/c7975b90-e3a0-46fc-bf32-f34949d89ec2"},"effectiveDateTime":"2011-03-12T14:32:45-05:00","id":"1c5cfc7a-1481-4a87-a2bb-3a9841da2196","issued":"2011-03-12T14:32:45.022-05:00","meta":{"lastUpdated":"2019-04-09T10:20:46.782154+00:00","versionId":"MTU1NDgwNTI0Njc4MjE1NDAwMA"},"resourceType":"Observation","status":"final","subject":{"reference":"Patient/00a04f0e-43ec-4c22-b0e3-541e1dabd3af"},"valueQuantity":{"code":"fL","system":"http://unitsofmeasure.org","unit":"fL","value":89.64648364473999}}},{"resource":{"category":[{"coding":[{"code":"vital-signs","display":"vital-signs","system":"http://hl7.org/fhir/observation-category"}]}],"code":{"coding":[{"code":"55284-4","display":"Blood Pressure","system":"http://loinc.org"}],"text":"Blood Pressure"},"component":[{"code":{"coding":[{"code":"8462-4","display":"Diastolic Blood Pressure","system":"http://loinc.org"}],"text":"Diastolic Blood Pressure"},"valueQuantity":{"code":"mmHg","system":"http://unitsofmeasure.org","unit":"mmHg","value":77.03474770376553}},{"code":{"coding":[{"code":"8480-6","display":"Systolic Blood Pressure","system":"http://loinc.org"}],"text":"Systolic Blood Pressure"},"valueQuantity":{"code":"mmHg","system":"http://unitsofmeasure.org","unit":"mmHg","value":138.98987648881993}}],"context":{"reference":"Encounter/d5613237-7012-4c66-a3c2-ddf2a6affdd6"},"effectiveDateTime":"2012-03-17T15:32:45-04:00","id":"1eb6ea44-8886-4f54-abb6-256fa49d442f","issued":"2012-03-17T15:32:45.022-04:00","meta":{"lastUpdated":"2019-04-09T10:20:47.794601+00:00","versionId":"MTU1NDgwNTI0Nzc5NDYwMTAwMA"},"resourceType":"Observation","status":"final","subject":{"reference":"Patient/00a04f0e-43ec-4c22-b0e3-541e1dabd3af"}}},{"resource":{"category":[{"coding":[{"code":"survey","display":"survey","system":"http://hl7.org/fhir/observation-category"}]}],"code":{"coding":[{"code":"72166-2","display":"Tobacco smoking status NHIS","system":"http://loinc.org"}],"text":"Tobacco smoking status NHIS"},"context":{"reference":"Encounter/05d59f7b-87b1-4eff-9987-154a3f58ed69"},"effectiveDateTime":"2013-03-23T15:32:45-04:00","id":"201899ac-edaa-4b69-945e-62947703cb95","issued":"2013-03-23T15:32:45.022-04:00","meta":{"lastUpdated":"2019-04-09T10:20:49.829707+00:00","versionId":"MTU1NDgwNTI0OTgyOTcwNzAwMA"},"resourceType":"Observation","status":"final","subject":{"reference":"Patient/00a04f0e-43ec-4c22-b0e3-541e1dabd3af"},"valueCodeableConcept":{"coding":[{"code":"266919005","display":"Never smoker","system":"http://snomed.info/sct"}],"text":"Never smoker"}}},{"resource":{"category":[{"coding":[{"code":"vital-signs","display":"vital-signs","system":"http://hl7.org/fhir/observation-category"}]}],"code":{"coding":[{"code":"72514-3","display":"Pain severity - 0-10 verbal numeric rating [Score] - Reported","system":"http://loinc.org"}],"text":"Pain severity - 0-10 verbal numeric rating [Score] - Reported"},"context":{"reference":"Encounter/7678cb9e-1fe0-4c98-852e-7fdd0546d92c"},"effectiveDateTime":"2012-10-07T15:32:45-04:00","id":"24094a8b-fc1f-4d06-870a-275b9a5efe2a","issued":"2012-10-07T15:32:45.022-04:00","meta":{"lastUpdated":"2019-04-09T10:20:49.829682+00:00","versionId":"MTU1NDgwNTI0OTgyOTY4MjAwMA"},"resourceType":"Observation","status":"final","subject":{"reference":"Patient/00a04f0e-43ec-4c22-b0e3-541e1dabd3af"},"valueQuantity":{"code":"{score}","system":"http://unitsofmeasure.org","unit":"{score}","value":6.050300134269026}}},{"resource":{"category":[{"coding":[{"code":"vital-signs","display":"vital-signs","system":"http://hl7.org/fhir/observation-category"}]}],"code":{"coding":[{"code":"72514-3","display":"Pain severity - 0-10 verbal numeric rating [Score] - Reported","system":"http://loinc.org"}],"text":"Pain severity - 0-10 verbal numeric rating [Score] - Reported"},"context":{"reference":"Encounter/d2269859-54ef-4270-b898-2b12d185aea7"},"effectiveDateTime":"2009-03-11T15:32:45-04:00","id":"25dc1404-c16d-4143-8eb8-5495bb2b59ad","issued":"2009-03-11T15:32:45.022-04:00","meta":{"lastUpdated":"2019-04-09T10:20:44.694220+00:00","versionId":"MTU1NDgwNTI0NDY5NDIyMDAwMA"},"resourceType":"Observation","status":"final","subject":{"reference":"Patient/00a04f0e-43ec-4c22-b0e3-541e1dabd3af"},"valueQuantity":{"code":"{score}","system":"http://unitsofmeasure.org","unit":"{score}","value":4.135389892245552}}},{"resource":{"category":[{"coding":[{"code":"laboratory","display":"laboratory","system":"http://hl7.org/fhir/observation-category"}]}],"code":{"coding":[{"code":"4544-3","display":"Hematocrit [Volume Fraction] of Blood by Automated count","system":"http://loinc.org"}],"text":"Hematocrit [Volume Fraction] of Blood by Automated count"},"context":{"reference":"Encounter/d9cd13df-a464-44e9-8fc8-e151ad466b5d"},"effectiveDateTime":"2017-04-01T15:32:45-04:00","id":"25e9886b-e15b-4d92-895b-960289b63917","issued":"2017-04-01T15:32:45.022-04:00","meta":{"lastUpdated":"2019-04-09T10:20:51.871061+00:00","versionId":"MTU1NDgwNTI1MTg3MTA2MTAwMA"},"resourceType":"Observation","status":"final","subject":{"reference":"Patient/00a04f0e-43ec-4c22-b0e3-541e1dabd3af"},"valueQuantity":{"code":"%","system":"http://unitsofmeasure.org","unit":"%","value":38.07193582908581}}},{"resource":{"category":[{"coding":[{"code":"vital-signs","display":"vital-signs","system":"http://hl7.org/fhir/observation-category"}]}],"code":{"coding":[{"code":"8302-2","display":"Body Height","system":"http://loinc.org"}],"text":"Body Height"},"context":{"reference":"Encounter/d5613237-7012-4c66-a3c2-ddf2a6affdd6"},"effectiveDateTime":"2012-03-17T15:32:45-04:00","id":"2fba6c52-348d-4a61-9078-cebd3da21eff","issued":"2012-03-17T15:32:45.022-04:00","meta":{"lastUpdated":"2019-04-09T10:20:47.794686+00:00","versionId":"MTU1NDgwNTI0Nzc5NDY4NjAwMA"},"resourceType":"Observation","status":"final","subject":{"reference":"Patient/00a04f0e-43ec-4c22-b0e3-541e1dabd3af"},"valueQuantity":{"code":"cm","system":"http://unitsofmeasure.org","unit":"cm","value":158.08102113209964}}},{"resource":{"category":[{"coding":[{"code":"survey","display":"survey","system":"http://hl7.org/fhir/observation-category"}]}],"code":{"coding":[{"code":"72166-2","display":"Tobacco smoking status NHIS","system":"http://loinc.org"}],"text":"Tobacco smoking status NHIS"},"context":{"reference":"Encounter/f7c23241-f81d-4c57-bb48-ebd7251aafbb"},"effectiveDateTime":"2010-04-24T15:32:45-04:00","id":"30fb7919-9724-4ea7-bcb8-17c8cdcc8b5e","issued":"2010-04-24T15:32:45.022-04:00","meta":{"lastUpdated":"2019-04-09T10:20:45.777366+00:00","versionId":"MTU1NDgwNTI0NTc3NzM2NjAwMA"},"resourceType":"Observation","status":"final","subject":{"reference":"Patient/00a04f0e-43ec-4c22-b0e3-541e1dabd3af"},"valueCodeableConcept":{"coding":[{"code":"266919005","display":"Never smoker","system":"http://snomed.info/sct"}],"text":"Never smoker"}}},{"resource":{"category":[{"coding":[{"code":"vital-signs","display":"vital-signs","system":"http://hl7.org/fhir/observation-category"}]}],"code":{"coding":[{"code":"8302-2","display":"Body Height","system":"http://loinc.org"}],"text":"Body Height"},"context":{"reference":"Encounter/c7975b90-e3a0-46fc-bf32-f34949d89ec2"},"effectiveDateTime":"2011-03-12T14:32:45-05:00","id":"334acb7b-ae38-437d-afdf-ae0fa871a14c","issued":"2011-03-12T14:32:45.022-05:00","meta":{"lastUpdated":"2019-04-09T10:20:46.783505+00:00","versionId":"MTU1NDgwNTI0Njc4MzUwNTAwMA"},"resourceType":"Observation","status":"final","subject":{"reference":"Patient/00a04f0e-43ec-4c22-b0e3-541e1dabd3af"},"valueQuantity":{"code":"cm","system":"http://unitsofmeasure.org","unit":"cm","value":157.77793873217755}}},{"resource":{"category":[{"coding":[{"code":"vital-signs","display":"vital-signs","system":"http://hl7.org/fhir/observation-category"}]}],"code":{"coding":[{"code":"72514-3","display":"Pain severity - 0-10 verbal numeric rating [Score] - Reported","system":"http://loinc.org"}],"text":"Pain severity - 0-10 verbal numeric rating [Score] - Reported"},"context":{"reference":"Encounter/f7c23241-f81d-4c57-bb48-ebd7251aafbb"},"effectiveDateTime":"2010-04-24T15:32:45-04:00","id":"35a80ef0-4676-4dae-b79d-9bfdb0d7e4f0","issued":"2010-04-24T15:32:45.022-04:00","meta":{"lastUpdated":"2019-04-09T10:20:45.770444+00:00","versionId":"MTU1NDgwNTI0NTc3MDQ0NDAwMA"},"resourceType":"Observation","status":"final","subject":{"reference":"Patient/00a04f0e-43ec-4c22-b0e3-541e1dabd3af"},"valueQuantity":{"code":"{score}","system":"http://unitsofmeasure.org","unit":"{score}","value":0.6086097660148315}}},{"resource":{"category":[{"coding":[{"code":"vital-signs","display":"vital-signs","system":"http://hl7.org/fhir/observation-category"}]}],"code":{"coding":[{"code":"72514-3","display":"Pain severity - 0-10 verbal numeric rating [Score] - Reported","system":"http://loinc.org"}],"text":"Pain severity - 0-10 verbal numeric rating [Score] - Reported"},"context":{"reference":"Encounter/d5613237-7012-4c66-a3c2-ddf2a6affdd6"},"effectiveDateTime":"2012-03-17T15:32:45-04:00","id":"363c6f27-c327-4d84-96a9-dc7c6abe9cd9","issued":"2012-03-17T15:32:45.022-04:00","meta":{"lastUpdated":"2019-04-09T10:20:47.790218+00:00","versionId":"MTU1NDgwNTI0Nzc5MDIxODAwMA"},"resourceType":"Observation","status":"final","subject":{"reference":"Patient/00a04f0e-43ec-4c22-b0e3-541e1dabd3af"},"valueQuantity":{"code":"{score}","system":"http://unitsofmeasure.org","unit":"{score}","value":2.985268084811359}}},{"resource":{"category":[{"coding":[{"code":"vital-signs","display":"vital-signs","system":"http://hl7.org/fhir/observation-category"}]}],"code":{"coding":[{"code":"72514-3","display":"Pain severity - 0-10 verbal numeric rating [Score] - Reported","system":"http://loinc.org"}],"text":"Pain severity - 0-10 verbal numeric rating [Score] - Reported"},"context":{"reference":"Encounter/ab5e3ee8-0ebf-471b-881e-510f91be8b1d"},"effectiveDateTime":"2011-08-17T15:32:45-04:00","id":"3b27c8ad-132b-4941-ae9e-9d6aa3caf59f","issued":"2011-08-17T15:32:45.022-04:00","meta":{"lastUpdated":"2019-04-09T10:20:46.781551+00:00","versionId":"MTU1NDgwNTI0Njc4MTU1MTAwMA"},"resourceType":"Observation","status":"final","subject":{"reference":"Patient/00a04f0e-43ec-4c22-b0e3-541e1dabd3af"},"valueQuantity":{"code":"{score}","system":"http://unitsofmeasure.org","unit":"{score}","value":7.30232388653232}}},{"resource":{"category":[{"coding":[{"code":"laboratory","display":"laboratory","system":"http://hl7.org/fhir/observation-category"}]}],"code":{"coding":[{"code":"32207-3","display":"Platelet distribution width [Entitic volume] in Blood by Automated count","system":"http://loinc.org"}],"text":"Platelet distribution width [Entitic volume] in Blood by Automated count"},"context":{"reference":"Encounter/d9cd13df-a464-44e9-8fc8-e151ad466b5d"},"effectiveDateTime":"2017-04-01T15:32:45-04:00","id":"3d74f18b-a670-434b-a82b-abe97d054318","issued":"2017-04-01T15:32:45.022-04:00","meta":{"lastUpdated":"2019-04-09T10:20:51.870328+00:00","versionId":"MTU1NDgwNTI1MTg3MDMyODAwMA"},"resourceType":"Observation","status":"final","subject":{"reference":"Patient/00a04f0e-43ec-4c22-b0e3-541e1dabd3af"},"valueQuantity":{"code":"fL","system":"http://unitsofmeasure.org","unit":"fL","value":496.21998838292393}}},{"resource":{"category":[{"coding":[{"code":"laboratory","display":"laboratory","system":"http://hl7.org/fhir/observation-category"}]}],"code":{"coding":[{"code":"789-8","display":"Erythrocytes [#/volume] in Blood by Automated count","system":"http://loinc.org"}],"text":"Erythrocytes [#/volume] in Blood by Automated count"},"context":{"reference":"Encounter/c7975b90-e3a0-46fc-bf32-f34949d89ec2"},"effectiveDateTime":"2011-03-12T14:32:45-05:00","id":"3fe208de-051b-44f3-97b8-ac04325c47e4","issued":"2011-03-12T14:32:45.022-05:00","meta":{"lastUpdated":"2019-04-09T10:20:46.782362+00:00","versionId":"MTU1NDgwNTI0Njc4MjM2MjAwMA"},"resourceType":"Observation","status":"final","subject":{"reference":"Patient/00a04f0e-43ec-4c22-b0e3-541e1dabd3af"},"valueQuantity":{"code":"10*6/uL","system":"http://unitsofmeasure.org","unit":"10*6/uL","value":4.554919899206292}}},{"resource":{"category":[{"coding":[{"code":"laboratory","display":"laboratory","system":"http://hl7.org/fhir/observation-category"}]}],"code":{"coding":[{"code":"21000-5","display":"Erythrocyte distribution width [Entitic volume] by Automated count","system":"http://loinc.org"}],"text":"Erythrocyte distribution width [Entitic volume] by Automated count"},"context":{"reference":"Encounter/d9cd13df-a464-44e9-8fc8-e151ad466b5d"},"effectiveDateTime":"2017-04-01T15:32:45-04:00","id":"457b8954-5e54-49fa-ad02-121a2638d5fc","issued":"2017-04-01T15:32:45.022-04:00","meta":{"lastUpdated":"2019-04-09T10:20:51.871105+00:00","versionId":"MTU1NDgwNTI1MTg3MTEwNTAwMA"},"resourceType":"Observation","status":"final","subject":{"reference":"Patient/00a04f0e-43ec-4c22-b0e3-541e1dabd3af"},"valueQuantity":{"code":"fL","system":"http://unitsofmeasure.org","unit":"fL","value":45.368816966278025}}},{"resource":{"category":[{"coding":[{"code":"vital-signs","display":"vital-signs","system":"http://hl7.org/fhir/observation-category"}]}],"code":{"coding":[{"code":"55284-4","display":"Blood Pressure","system":"http://loinc.org"}],"text":"Blood Pressure"},"component":[{"code":{"coding":[{"code":"8462-4","display":"Diastolic Blood Pressure","system":"http://loinc.org"}],"text":"Diastolic Blood Pressure"},"valueQuantity":{"code":"mmHg","system":"http://unitsofmeasure.org","unit":"mmHg","value":107.02721202590911}},{"code":{"coding":[{"code":"8480-6","display":"Systolic Blood Pressure","system":"http://loinc.org"}],"text":"Systolic Blood Pressure"},"valueQuantity":{"code":"mmHg","system":"http://unitsofmeasure.org","unit":"mmHg","value":146.5191869703577}}],"context":{"reference":"Encounter/d9cd13df-a464-44e9-8fc8-e151ad466b5d"},"effectiveDateTime":"2017-04-01T15:32:45-04:00","id":"4938fcae-69b3-49c6-8bbb-9be264094d87","issued":"2017-04-01T15:32:45.022-04:00","meta":{"lastUpdated":"2019-04-09T10:20:51.875214+00:00","versionId":"MTU1NDgwNTI1MTg3NTIxNDAwMA"},"resourceType":"Observation","status":"final","subject":{"reference":"Patient/00a04f0e-43ec-4c22-b0e3-541e1dabd3af"}}},{"resource":{"category":[{"coding":[{"code":"laboratory","display":"laboratory","system":"http://hl7.org/fhir/observation-category"}]}],"code":{"coding":[{"code":"718-7","display":"Hemoglobin [Mass/volume] in Blood","system":"http://loinc.org"}],"text":"Hemoglobin [Mass/volume] in Blood"},"context":{"reference":"Encounter/c7975b90-e3a0-46fc-bf32-f34949d89ec2"},"effectiveDateTime":"2011-03-12T14:32:45-05:00","id":"4e272e9e-cc29-46b5-a633-f6d4dd2388e6","issued":"2011-03-12T14:32:45.022-05:00","meta":{"lastUpdated":"2019-04-09T10:20:46.785121+00:00","versionId":"MTU1NDgwNTI0Njc4NTEyMTAwMA"},"resourceType":"Observation","status":"final","subject":{"reference":"Patient/00a04f0e-43ec-4c22-b0e3-541e1dabd3af"},"valueQuantity":{"code":"g/dL","system":"http://unitsofmeasure.org","unit":"g/dL","value":13.255961784558476}}},{"resource":{"category":[{"coding":[{"code":"vital-signs","display":"vital-signs","system":"http://hl7.org/fhir/observation-category"}]}],"code":{"coding":[{"code":"72514-3","display":"Pain severity - 0-10 verbal numeric rating [Score] - Reported","system":"http://loinc.org"}],"text":"Pain severity - 0-10 verbal numeric rating [Score] - Reported"},"context":{"reference":"Encounter/5250dcd4-eb27-4c42-984f-bf1dfe096614"},"effectiveDateTime":"2012-01-15T14:32:45-05:00","id":"4e503c60-db3d-4530-965a-f92354e765d3","issued":"2012-01-15T14:32:45.022-05:00","meta":{"lastUpdated":"2019-04-09T10:20:47.783914+00:00","versionId":"MTU1NDgwNTI0Nzc4MzkxNDAwMA"},"resourceType":"Observation","status":"final","subject":{"reference":"Patient/00a04f0e-43ec-4c22-b0e3-541e1dabd3af"},"valueQuantity":{"code":"{score}","system":"http://unitsofmeasure.org","unit":"{score}","value":5.083290462164461}}},{"resource":{"category":[{"coding":[{"code":"vital-signs","display":"vital-signs","system":"http://hl7.org/fhir/observation-category"}]}],"code":{"coding":[{"code":"72514-3","display":"Pain severity - 0-10 verbal numeric rating [Score] - Reported","system":"http://loinc.org"}],"text":"Pain severity - 0-10 verbal numeric rating [Score] - Reported"},"context":{"reference":"Encounter/a910e7cd-91db-420e-b9ca-0275badd5229"},"effectiveDateTime":"2014-10-09T15:32:45-04:00","id":"4e80f7f7-e5b6-448b-bc5d-aa4cdc910b17","issued":"2014-10-09T15:32:45.022-04:00","meta":{"lastUpdated":"2019-04-09T10:20:50.832233+00:00","versionId":"MTU1NDgwNTI1MDgzMjIzMzAwMA"},"resourceType":"Observation","status":"final","subject":{"reference":"Patient/00a04f0e-43ec-4c22-b0e3-541e1dabd3af"},"valueQuantity":{"code":"{score}","system":"http://unitsofmeasure.org","unit":"{score}","value":2.1916327438909917}}},{"resource":{"category":[{"coding":[{"code":"vital-signs","display":"vital-signs","system":"http://hl7.org/fhir/observation-category"}]}],"code":{"coding":[{"code":"39156-5","display":"Body Mass Index","system":"http://loinc.org"}],"text":"Body Mass Index"},"context":{"reference":"Encounter/445b075e-54fa-4705-92df-facde15135bc"},"effectiveDateTime":"2014-03-29T15:32:45-04:00","id":"5023eb2f-23ed-41f0-acd3-6987c0cd5042","issued":"2014-03-29T15:32:45.022-04:00","meta":{"lastUpdated":"2019-04-09T10:20:50.838060+00:00","versionId":"MTU1NDgwNTI1MDgzODA2MDAwMA"},"resourceType":"Observation","status":"final","subject":{"reference":"Patient/00a04f0e-43ec-4c22-b0e3-541e1dabd3af"},"valueQuantity":{"code":"kg/m2","system":"http://unitsofmeasure.org","unit":"kg/m2","value":24.02277538740748}}},{"resource":{"category":[{"coding":[{"code":"vital-signs","display":"vital-signs","system":"http://hl7.org/fhir/observation-category"}]}],"code":{"coding":[{"code":"39156-5","display":"Body Mass Index","system":"http://loinc.org"}],"text":"Body Mass Index"},"context":{"reference":"Encounter/2ed4f219-13b8-49ad-8e5c-b301af2b70d8"},"effectiveDateTime":"2009-04-18T15:32:45-04:00","id":"5264029f-0122-4126-b7cc-accec72c4409","issued":"2009-04-18T15:32:45.022-04:00","meta":{"lastUpdated":"2019-04-09T10:20:44.693171+00:00","versionId":"MTU1NDgwNTI0NDY5MzE3MTAwMA"},"resourceType":"Observation","status":"final","subject":{"reference":"Patient/00a04f0e-43ec-4c22-b0e3-541e1dabd3af"},"valueQuantity":{"code":"kg/m2","system":"http://unitsofmeasure.org","unit":"kg/m2","value":21.725914093228504}}},{"resource":{"category":[{"coding":[{"code":"vital-signs","display":"vital-signs","system":"http://hl7.org/fhir/observation-category"}]}],"code":{"coding":[{"code":"39156-5","display":"Body Mass Index","system":"http://loinc.org"}],"text":"Body Mass Index"},"context":{"reference":"Encounter/d5613237-7012-4c66-a3c2-ddf2a6affdd6"},"effectiveDateTime":"2012-03-17T15:32:45-04:00","id":"537c433a-b291-41e9-aaf5-6c49a39ba95d","issued":"2012-03-17T15:32:45.022-04:00","meta":{"lastUpdated":"2019-04-09T10:20:47.794599+00:00","versionId":"MTU1NDgwNTI0Nzc5NDU5OTAwMA"},"resourceType":"Observation","status":"final","subject":{"reference":"Patient/00a04f0e-43ec-4c22-b0e3-541e1dabd3af"},"valueQuantity":{"code":"kg/m2","system":"http://unitsofmeasure.org","unit":"kg/m2","value":23.14778596604107}}},{"resource":{"category":[{"coding":[{"code":"survey","display":"survey","system":"http://hl7.org/fhir/observation-category"}]}],"code":{"coding":[{"code":"72166-2","display":"Tobacco smoking status NHIS","system":"http://loinc.org"}],"text":"Tobacco smoking status NHIS"},"context":{"reference":"Encounter/c7975b90-e3a0-46fc-bf32-f34949d89ec2"},"effectiveDateTime":"2011-03-12T14:32:45-05:00","id":"5dccf128-0411-46e0-bdd1-aa5aff0237fe","issued":"2011-03-12T14:32:45.022-05:00","meta":{"lastUpdated":"2019-04-09T10:20:46.790284+00:00","versionId":"MTU1NDgwNTI0Njc5MDI4NDAwMA"},"resourceType":"Observation","status":"final","subject":{"reference":"Patient/00a04f0e-43ec-4c22-b0e3-541e1dabd3af"},"valueCodeableConcept":{"coding":[{"code":"266919005","display":"Never smoker","system":"http://snomed.info/sct"}],"text":"Never smoker"}}}],"link":[{"url":"https://syntheticmass.mitre.org/v1/fhir/Patient/00a04f0e-43ec-4c22-b0e3-541e1dabd3af/$everything?_count=100&page_token=CoIBcHJvamVjdHMvc3ludGhlYS9sb2NhdGlvbnMvdXMtY2VudHJhbDEvZGF0YXNldHMvMjAxOTAyL2ZoaXJTdG9yZXMvc3ludGhldGljLW1hc3MvZmhpci9QYXRpZW50LzAwYTA0ZjBlLTQzZWMtNGMyMi1iMGUzLTU0MWUxZGFiZDNhZiBk","relation":"previous"},{"url":"https://syntheticmass.mitre.org/v1/fhir/Patient/00a04f0e-43ec-4c22-b0e3-541e1dabd3af/$everything?_count=100&page_token=CoIBcHJvamVjdHMvc3ludGhlYS9sb2NhdGlvbnMvdXMtY2VudHJhbDEvZGF0YXNldHMvMjAxOTAyL2ZoaXJTdG9yZXMvc3ludGhldGljLW1hc3MvZmhpci9QYXRpZW50LzAwYTA0ZjBlLTQzZWMtNGMyMi1iMGUzLTU0MWUxZGFiZDNhZiCsAg%3D%3D","relation":"next"}],"total":406}
