{"resourceType":"Bundle","type":"searchset","entry":[{"resource":{"billablePeriod":{"end":"2019-12-04T06:37:52-05:00","extension":[{"url":"https://bluebutton.cms.gov/assets/ig/StructureDefinition-bluebutton-inpatient-claim-query-cd-extension","valueCoding":{"code":"3","display":"Final Bill","system":"https://bluebutton.cms.gov/assets/ig/ValueSet-claim-query-cd"}}],"start":"2018-12-04T06:37:52-05:00"},"careTeam":[{"provider":{"identifier":{"system":"http://hl7.org/fhir/sid/us-npi","value":"99999999"}},"role":{"coding":[{"code":"primary","display":"Primary Care Practitioner","system":"http://hl7.org/fhir/claimcareteamrole"}]},"sequence":1}],"contained":[{"id":"coverage","resourceType":"Coverage","type":{"text":"private"}}],"diagnosis":[{"diagnosisReference":{"reference":"Condition/91c51dd8-0ddf-4d26-b4e6-246775e1288b"},"extension":[{"url":"https://bluebutton.cms.gov/assets/ig/StructureDefinition-bluebutton-inpatient-clm-poa-ind-sw1-extension","valueCoding":{"code":"Y","display":"Diagnosis present at time of admission","system":"https://bluebutton.cms.gov/assets/ig/CodeSystem-clm-poa-ind-sw1"}}],"sequence":1,"type":[{"coding":[{"code":"principal","system":"https://bluebutton.cms.gov/resources/codesystem/diagnosis-type"}]}]}],"extension":[{"url":"https://bluebutton.cms.gov/assets/ig/StructureDefinition-bluebutton-inpatient-ime-op-clm-val-amt-extension","valueMoney":{"code":"USD","system":"urn:iso:std:iso:4217","value":400}},{"url":"https://bluebutton.cms.gov/assets/ig/StructureDefinition-bluebutton-inpatient-dsh-op-clm-val-amt-extension","valueMoney":{"code":"USD","system":"urn:iso:std:iso:4217","value":0}},{"url":"https://bluebutton.cms.gov/assets/ig/StructureDefinition-bluebutton-inpatient-clm-pass-thru-per-diem-amt-extension","valueMoney":{"code":"USD","system":"urn:iso:std:iso:4217","value":0}},{"url":"https://bluebutton.cms.gov/assets/ig/StructureDefinition-bluebutton-inpatient-nch-profnl-cmpnt-chrg-amt-extension","valueMoney":{"code":"USD","system":"urn:iso:std:iso:4217","value":0}},{"url":"https://bluebutton.cms.gov/assets/ig/StructureDefinition-bluebutton-inpatient-clm-tot-pps-cptl-amt-extension","valueMoney":{"code":"USD","system":"urn:iso:std:iso:4217","value":0}},{"url":"https://bluebutton.cms.gov/assets/ig/StructureDefinition-bluebutton-inpatient-nch-bene-ip-ddctbl-amt-extension","valueMoney":{"code":"USD","system":"urn:iso:std:iso:4217","value":0}},{"url":"https://bluebutton.cms.gov/assets/ig/StructureDefinition-bluebutton-inpatient-nch-bene-pta-coinsrnc-lblty-amt-extension","valueMoney":{"code":"USD","system":"urn:iso:std:iso:4217","value":0}},{"url":"https://bluebutton.cms.gov/assets/ig/StructureDefinition-bluebutton-inpatient-nch-ip-ncvrd-chrg-amt-extension","valueMoney":{"code":"USD","system":"urn:iso:std:iso:4217","value":0}},{"url":"https://bluebutton.cms.gov/assets/ig/StructureDefinition-bluebutton-inpatient-nch-ip-tot-ddctn-amt-extension","valueMoney":{"code":"USD","system":"urn:iso:std:iso:4217","value":0}},{"url":"https://bluebutton.cms.gov/assets/ig/StructureDefinition-bluebutton-inpatient-clm-pps-cptl-dsprprtnt-shr-amt-extension","valueMoney":{"code":"USD","system":"urn:iso:std:iso:4217","value":0}},{"url":"https://bluebutton.cms.gov/assets/ig/StructureDefinition-bluebutton-inpatient-clm-pps-cptl-excptn-amt-extension","valueMoney":{"code":"USD","system":"urn:iso:std:iso:4217","value":0}},{"url":"https://bluebutton.cms.gov/assets/ig/StructureDefinition-bluebutton-inpatient-clm-pps-cptl-fsp-amt-extension","valueMoney":{"code":"USD","system":"urn:iso:std:iso:4217","value":0}},{"url":"https://bluebutton.cms.gov/assets/ig/StructureDefinition-bluebutton-inpatient-clm-pps-cptl-ime-amt-extension","valueMoney":{"code":"USD","system":"urn:iso:std:iso:4217","value":400}},{"url":"https://bluebutton.cms.gov/assets/ig/StructureDefinition-bluebutton-inpatient-clm-pps-cptl-outlier-amt-extension","valueMoney":{"code":"USD","system":"urn:iso:std:iso:4217","value":0}},{"url":"https://bluebutton.cms.gov/assets/ig/StructureDefinition-bluebutton-inpatient-clm-pps-old-cptl-hld-hrmls-amt-extension","valueMoney":{"code":"USD","system":"urn:iso:std:iso:4217","value":0}},{"url":"https://bluebutton.cms.gov/assets/ig/StructureDefinition-bluebutton-inpatient-nch-drg-outlier-aprvd-pmt-amt-extension","valueMoney":{"code":"USD","system":"urn:iso:std:iso:4217","value":0}},{"url":"https://bluebutton.cms.gov/assets/ig/StructureDefinition-bluebutton-inpatient-nch-bene-blood-ddctbl-lblty-am-extension","valueMoney":{"code":"USD","system":"urn:iso:std:iso:4217","value":0}},{"url":"https://bluebutton.cms.gov/assets/ig/StructureDefinition-bluebutton-inpatient-clm-mdcr-non-pmt-rsn-cd-extension","valueCoding":{"code":"N","display":"All other reasons for non-payment","system":"https://bluebutton.cms.gov/assets/ig/CodeSystem-clm-mdcr-non-pmt-rsn-cd"}},{"url":"https://bluebutton.cms.gov/assets/ig/StructureDefinition-bluebutton-inpatient-prpayamt-extension","valueMoney":{"code":"USD","system":"urn:iso:std:iso:4217","value":0}},{"url":"https://bluebutton.cms.gov/assets/ig/StructureDefinition-bluebutton-inpatient-fi-num-extension","valueIdentifier":{"system":"https://bluebutton.cms.gov/assets/ig/CodeSystem-fi-num","value":"002000"}}],"id":"324aa877-503a-447c-9fc7-3319c24c646a","identifier":[{"system":"https://bluebutton.cms.gov/resources/variables/clm_id","value":"7a5aeb4c-42ea-4eff-a0fe-370ed485cf81"},{"system":"https://bluebutton.cms.gov/resources/identifier/claim-group","value":"99999999999"}],"insurance":{"coverage":{"reference":"#coverage"}},"item":[{"extension":[{"url":"https://bluebutton.cms.gov/assets/ig/StructureDefinition-bluebutton-inpatient-rev-cntr-ndc-qty-extension","valueQuantity":{"value":0}}],"locationCodeableConcept":{"coding":[{"code":"21","display":"Inpatient Hospital","system":"https://bluebutton.cms.gov/resources/variables/line_place_of_srvc_cd"}]},"sequence":1},{"extension":[{"url":"https://bluebutton.cms.gov/assets/ig/StructureDefinition-bluebutton-inpatient-rev-cntr-ndc-qty-extension","valueQuantity":{"value":0}}],"locationCodeableConcept":{"coding":[{"code":"21","display":"Inpatient Hospital","system":"https://bluebutton.cms.gov/resources/variables/line_place_of_srvc_cd"}]},"sequence":2}],"meta":{"lastUpdated":"2019-04-09T11:41:09.909084+00:00","profile":["https://bluebutton.cms.gov/assets/ig/StructureDefinition-bluebutton-inpatient-claim"],"versionId":"MTU1NDgxMDA2OTkwOTA4NDAwMA"},"organization":{"identifier":{"value":"98fb6748-cc45-442a-9093-83c34db1a3d0"}},"patient":{"reference":"Patient/00d2188b-1561-4950-a95e-e88e01038377"},"payment":{"amount":{"code":"USD","system":"urn:iso:std:iso:4217","value":0}},"provider":{"identifier":{"value":"34ded5d7-309b-49de-92d4-b372bcc5ca6c"}},"resourceType":"ExplanationOfBenefit","status":"active","totalCost":{"code":"USD","system":"urn:iso:std:iso:4217","value":125},"type":{"coding":[{"code":"71","display":"Local carrier non-durable medical equipment, prosthetics, orthotics, and supplies (DMEPOS) claim","system":"https://bluebutton.cms.gov/resources/variables/nch_clm_type_cd"},{"code":"CARRIER","display":"EOB Type","system":"https://bluebutton.cms.gov/resources/codesystem/eob-type"},{"code":"professional","display":"Claim Type","system":"http://hl7.org/fhir/ex-claimtype"},{"code":"O","display":"Part B physician/supplier claim record (processed by local carriers; can include DMEPOS services)","system":"https://bluebutton.cms.gov/resources/variables/nch_near_line_rec_ident_cd"}]}}},{"resource":{"billablePeriod":{"end":"2012-03-31T07:37:52-04:00","extension":[{"url":"https://bluebutton.cms.gov/assets/ig/StructureDefinition-bluebutton-outpatient-claim-query-cd-extension","valueCoding":{"code":"3","display":"Final Bill","system":"https://bluebutton.cms.gov/assets/ig/ValueSet-claim-query-cd"}}],"start":"2011-03-31T07:37:52-04:00"},"careTeam":[{"provider":{"identifier":{"system":"http://hl7.org/fhir/sid/us-npi","value":"99999999"}},"role":{"coding":[{"code":"primary","display":"Primary Care Practitioner","system":"http://hl7.org/fhir/claimcareteamrole"}]},"sequence":1}],"contained":[{"id":"coverage","resourceType":"Coverage","type":{"text":"private"}}],"extension":[{"url":"https://bluebutton.cms.gov/assets/ig/StructureDefinition-bluebutton-outpatient-nch-profnl-cmpnt-chrg-amt-extension","valueMoney":{"code":"USD","system":"urn:iso:std:iso:4217","value":0}},{"url":"https://bluebutton.cms.gov/assets/ig/StructureDefinition-bluebutton-outpatient-nch-bene-ptb-ddctbl-amt-extension","valueMoney":{"code":"USD","system":"urn:iso:std:iso:4217","value":0}},{"url":"https://bluebutton.cms.gov/assets/ig/StructureDefinition-bluebutton-outpatient-nch-bene-ptb-coinsrnc-amt-extension","valueMoney":{"code":"USD","system":"urn:iso:std:iso:4217","value":0}},{"url":"https://bluebutton.cms.gov/assets/ig/StructureDefinition-bluebutton-outpatient-clm-op-prvdr-pmt-amt-extension","valueMoney":{"code":"USD","system":"urn:iso:std:iso:4217","value":0}},{"url":"https://bluebutton.cms.gov/assets/ig/StructureDefinition-bluebutton-outpatient-clm-op-bene-pmt-amt-extension","valueMoney":{"code":"USD","system":"urn:iso:std:iso:4217","value":0}},{"url":"https://bluebutton.cms.gov/assets/ig/StructureDefinition-bluebutton-outpatient-nch-bene-blood-ddctbl-lblty-am-extension","valueMoney":{"code":"USD","system":"urn:iso:std:iso:4217","value":0}},{"url":"https://bluebutton.cms.gov/assets/ig/StructureDefinition-bluebutton-outpatient-clm-mdcr-non-pmt-rsn-cd-extension","valueCoding":{"code":"N","display":"All other reasons for non-payment","system":"https://bluebutton.cms.gov/assets/ig/CodeSystem-clm-mdcr-non-pmt-rsn-cd"}},{"url":"https://bluebutton.cms.gov/assets/ig/StructureDefinition-bluebutton-outpatient-prpayamt-extension","valueMoney":{"code":"USD","system":"urn:iso:std:iso:4217","value":0}},{"url":"https://bluebutton.cms.gov/assets/ig/StructureDefinition-bluebutton-outpatient-fi-num-extension","valueIdentifier":{"system":"https://bluebutton.cms.gov/assets/ig/CodeSystem-fi-num","value":"002000"}}],"id":"38625c4c-59a9-4ed5-a432-433b76a587eb","identifier":[{"system":"https://bluebutton.cms.gov/resources/variables/clm_id","value":"1dea2091-e29b-4148-af46-c3d337b7ddd2"},{"system":"https://bluebutton.cms.gov/resources/identifier/claim-group","value":"99999999999"}],"insurance":{"coverage":{"reference":"#coverage"}},"item":[{"extension":[{"url":"https://bluebutton.cms.gov/assets/ig/StructureDefinition-bluebutton-outpatient-rev-cntr-ndc-qty-extension","valueQuantity":{"value":0}}],"locationCodeableConcept":{"coding":[{"code":"21","display":"Inpatient Hospital","system":"https://bluebutton.cms.gov/resources/variables/line_place_of_srvc_cd"}]},"sequence":1}],"meta":{"lastUpdated":"2019-04-09T11:41:06.802924+00:00","profile":["https://bluebutton.cms.gov/assets/ig/StructureDefinition-bluebutton-outpatient-claim"],"versionId":"MTU1NDgxMDA2NjgwMjkyNDAwMA"},"organization":{"identifier":{"value":"98fb6748-cc45-442a-9093-83c34db1a3d0"}},"patient":{"reference":"Patient/00d2188b-1561-4950-a95e-e88e01038377"},"payment":{"amount":{"code":"USD","system":"urn:iso:std:iso:4217","value":0}},"provider":{"identifier":{"value":"34ded5d7-309b-49de-92d4-b372bcc5ca6c"}},"resourceType":"ExplanationOfBenefit","status":"active","totalCost":{"code":"USD","system":"urn:iso:std:iso:4217","value":125},"type":{"coding":[{"code":"71","display":"Local carrier non-durable medical equipment, prosthetics, orthotics, and supplies (DMEPOS) claim","system":"https://bluebutton.cms.gov/resources/variables/nch_clm_type_cd"},{"code":"CARRIER","display":"EOB Type","system":"https://bluebutton.cms.gov/resources/codesystem/eob-type"},{"code":"professional","display":"Claim Type","system":"http://hl7.org/fhir/ex-claimtype"},{"code":"O","display":"Part B physician/supplier claim record (processed by local carriers; can include DMEPOS services)","system":"https://bluebutton.cms.gov/resources/variables/nch_near_line_rec_ident_cd"}]}}},{"resource":{"billablePeriod":{"end":"2010-04-10T08:07:52-04:00","extension":[{"url":"https://bluebutton.cms.gov/assets/ig/StructureDefinition-bluebutton-inpatient-claim-query-cd-extension","valueCoding":{"code":"3","display":"Final Bill","system":"https://bluebutton.cms.gov/assets/ig/ValueSet-claim-query-cd"}}],"start":"2009-04-10T08:07:52-04:00"},"careTeam":[{"provider":{"identifier":{"system":"http://hl7.org/fhir/sid/us-npi","value":"99999999"}},"role":{"coding":[{"code":"primary","display":"Primary Care Practitioner","system":"http://hl7.org/fhir/claimcareteamrole"}]},"sequence":1}],"contained":[{"id":"coverage","resourceType":"Coverage","type":{"text":"private"}}],"extension":[{"url":"https://bluebutton.cms.gov/assets/ig/StructureDefinition-bluebutton-inpatient-ime-op-clm-val-amt-extension","valueMoney":{"code":"USD","system":"urn:iso:std:iso:4217","value":400}},{"url":"https://bluebutton.cms.gov/assets/ig/StructureDefinition-bluebutton-inpatient-dsh-op-clm-val-amt-extension","valueMoney":{"code":"USD","system":"urn:iso:std:iso:4217","value":0}},{"url":"https://bluebutton.cms.gov/assets/ig/StructureDefinition-bluebutton-inpatient-clm-pass-thru-per-diem-amt-extension","valueMoney":{"code":"USD","system":"urn:iso:std:iso:4217","value":0}},{"url":"https://bluebutton.cms.gov/assets/ig/StructureDefinition-bluebutton-inpatient-nch-profnl-cmpnt-chrg-amt-extension","valueMoney":{"code":"USD","system":"urn:iso:std:iso:4217","value":0}},{"url":"https://bluebutton.cms.gov/assets/ig/StructureDefinition-bluebutton-inpatient-clm-tot-pps-cptl-amt-extension","valueMoney":{"code":"USD","system":"urn:iso:std:iso:4217","value":0}},{"url":"https://bluebutton.cms.gov/assets/ig/StructureDefinition-bluebutton-inpatient-nch-bene-ip-ddctbl-amt-extension","valueMoney":{"code":"USD","system":"urn:iso:std:iso:4217","value":0}},{"url":"https://bluebutton.cms.gov/assets/ig/StructureDefinition-bluebutton-inpatient-nch-bene-pta-coinsrnc-lblty-amt-extension","valueMoney":{"code":"USD","system":"urn:iso:std:iso:4217","value":0}},{"url":"https://bluebutton.cms.gov/assets/ig/StructureDefinition-bluebutton-inpatient-nch-ip-ncvrd-chrg-amt-extension","valueMoney":{"code":"USD","system":"urn:iso:std:iso:4217","value":0}},{"url":"https://bluebutton.cms.gov/assets/ig/StructureDefinition-bluebutton-inpatient-nch-ip-tot-ddctn-amt-extension","valueMoney":{"code":"USD","system":"urn:iso:std:iso:4217","value":0}},{"url":"https://bluebutton.cms.gov/assets/ig/StructureDefinition-bluebutton-inpatient-clm-pps-cptl-dsprprtnt-shr-amt-extension","valueMoney":{"code":"USD","system":"urn:iso:std:iso:4217","value":0}},{"url":"https://bluebutton.cms.gov/assets/ig/StructureDefinition-bluebutton-inpatient-clm-pps-cptl-excptn-amt-extension","valueMoney":{"code":"USD","system":"urn:iso:std:iso:4217","value":0}},{"url":"https://bluebutton.cms.gov/assets/ig/StructureDefinition-bluebutton-inpatient-clm-pps-cptl-fsp-amt-extension","valueMoney":{"code":"USD","system":"urn:iso:std:iso:4217","value":0}},{"url":"https://bluebutton.cms.gov/assets/ig/StructureDefinition-bluebutton-inpatient-clm-pps-cptl-ime-amt-extension","valueMoney":{"code":"USD","system":"urn:iso:std:iso:4217","value":400}},{"url":"https://bluebutton.cms.gov/assets/ig/StructureDefinition-bluebutton-inpatient-clm-pps-cptl-outlier-amt-extension","valueMoney":{"code":"USD","system":"urn:iso:std:iso:4217","value":0}},{"url":"https://bluebutton.cms.gov/assets/ig/StructureDefinition-bluebutton-inpatient-clm-pps-old-cptl-hld-hrmls-amt-extension","valueMoney":{"code":"USD","system":"urn:iso:std:iso:4217","value":0}},{"url":"https://bluebutton.cms.gov/assets/ig/StructureDefinition-bluebutton-inpatient-nch-drg-outlier-aprvd-pmt-amt-extension","valueMoney":{"code":"USD","system":"urn:iso:std:iso:4217","value":0}},{"url":"https://bluebutton.cms.gov/assets/ig/StructureDefinition-bluebutton-inpatient-nch-bene-blood-ddctbl-lblty-am-extension","valueMoney":{"code":"USD","system":"urn:iso:std:iso:4217","value":0}},{"url":"https://bluebutton.cms.gov/assets/ig/StructureDefinition-bluebutton-inpatient-clm-mdcr-non-pmt-rsn-cd-extension","valueCoding":{"code":"N","display":"All other reasons for non-payment","system":"https://bluebutton.cms.gov/assets/ig/CodeSystem-clm-mdcr-non-pmt-rsn-cd"}},{"url":"https://bluebutton.cms.gov/assets/ig/StructureDefinition-bluebutton-inpatient-prpayamt-extension","valueMoney":{"code":"USD","system":"urn:iso:std:iso:4217","value":0}},{"url":"https://bluebutton.cms.gov/assets/ig/StructureDefinition-bluebutton-inpatient-fi-num-extension","valueIdentifier":{"system":"https://bluebutton.cms.gov/assets/ig/CodeSystem-fi-num","value":"002000"}}],"id":"416702fe-89af-45c9-9250-c9c07d599fe5","identifier":[{"system":"https://bluebutton.cms.gov/resources/variables/clm_id","value":"959b295b-a116-4369-8ea2-ee636ce8127b"},{"system":"https://bluebutton.cms.gov/resources/identifier/claim-group","value":"99999999999"}],"insurance":{"coverage":{"reference":"#coverage"}},"item":[{"extension":[{"url":"https://bluebutton.cms.gov/assets/ig/StructureDefinition-bluebutton-inpatient-rev-cntr-ndc-qty-extension","valueQuantity":{"value":0}}],"locationCodeableConcept":{"coding":[{"code":"21","display":"Inpatient Hospital","system":"https://bluebutton.cms.gov/resources/variables/line_place_of_srvc_cd"}]},"sequence":1},{"adjudication":[{"amount":{"code":"USD","system":"urn:iso:std:iso:4217","value":103.33},"category":{"coding":[{"code":"https://bluebutton.cms.gov/resources/variables/line_coinsrnc_amt","display":"Line Beneficiary Coinsurance Amount","system":"https://bluebutton.cms.gov/resources/codesystem/adjudication"}]}},{"amount":{"code":"USD","system":"urn:iso:std:iso:4217","value":413.32},"category":{"coding":[{"code":"https://bluebutton.cms.gov/resources/variables/line_prvdr_pmt_amt","display":"Line Provider Payment Amount","system":"https://bluebutton.cms.gov/resources/codesystem/adjudication"}]}},{"amount":{"code":"USD","system":"urn:iso:std:iso:4217","value":516.65},"category":{"coding":[{"code":"https://bluebutton.cms.gov/resources/variables/line_sbmtd_chrg_amt","display":"Line Submitted Charge Amount","system":"https://bluebutton.cms.gov/resources/codesystem/adjudication"}]}},{"amount":{"code":"USD","system":"urn:iso:std:iso:4217","value":516.65},"category":{"coding":[{"code":"https://bluebutton.cms.gov/resources/variables/line_alowd_chrg_amt","display":"Line Allowed Charge Amount","system":"https://bluebutton.cms.gov/resources/codesystem/adjudication"}]}},{"amount":{"code":"USD","system":"urn:iso:std:iso:4217","value":0},"category":{"coding":[{"code":"https://bluebutton.cms.gov/resources/variables/line_bene_ptb_ddctbl_amt","display":"Line Beneficiary Part B Deductible Amount","system":"https://bluebutton.cms.gov/resources/codesystem/adjudication"}]}},{"category":{"coding":[{"code":"https://bluebutton.cms.gov/resources/variables/line_prcsg_ind_cd","display":"Line Processing Indicator Code","system":"https://bluebutton.cms.gov/resources/codesystem/adjudication"}]}}],"extension":[{"url":"https://bluebutton.cms.gov/assets/ig/StructureDefinition-bluebutton-inpatient-rev-cntr-ndc-qty-extension","valueQuantity":{"value":0}}],"locationCodeableConcept":{"coding":[{"code":"21","display":"Inpatient Hospital","system":"https://bluebutton.cms.gov/resources/variables/line_place_of_srvc_cd"}]},"sequence":2,"service":{"coding":[{"code":"5880005","system":"http://snomed.info/sct","version":"v1"}]}},{"adjudication":[{"amount":{"code":"USD","system":"urn:iso:std:iso:4217","value":103.33},"category":{"coding":[{"code":"https://bluebutton.cms.gov/resources/variables/line_coinsrnc_amt","display":"Line Beneficiary Coinsurance Amount","system":"https://bluebutton.cms.gov/resources/codesystem/adjudication"}]}},{"amount":{"code":"USD","system":"urn:iso:std:iso:4217","value":413.32},"category":{"coding":[{"code":"https://bluebutton.cms.gov/resources/variables/line_prvdr_pmt_amt","display":"Line Provider Payment Amount","system":"https://bluebutton.cms.gov/resources/codesystem/adjudication"}]}},{"amount":{"code":"USD","system":"urn:iso:std:iso:4217","value":516.65},"category":{"coding":[{"code":"https://bluebutton.cms.gov/resources/variables/line_sbmtd_chrg_amt","display":"Line Submitted Charge Amount","system":"https://bluebutton.cms.gov/resources/codesystem/adjudication"}]}},{"amount":{"code":"USD","system":"urn:iso:std:iso:4217","value":516.65},"category":{"coding":[{"code":"https://bluebutton.cms.gov/resources/variables/line_alowd_chrg_amt","display":"Line Allowed Charge Amount","system":"https://bluebutton.cms.gov/resources/codesystem/adjudication"}]}},{"amount":{"code":"USD","system":"urn:iso:std:iso:4217","value":0},"category":{"coding":[{"code":"https://bluebutton.cms.gov/resources/variables/line_bene_ptb_ddctbl_amt","display":"Line Beneficiary Part B Deductible Amount","system":"https://bluebutton.cms.gov/resources/codesystem/adjudication"}]}},{"category":{"coding":[{"code":"https://bluebutton.cms.gov/resources/variables/line_prcsg_ind_cd","display":"Line Processing Indicator Code","system":"https://bluebutton.cms.gov/resources/codesystem/adjudication"}]}}],"extension":[{"url":"https://bluebutton.cms.gov/assets/ig/StructureDefinition-bluebutton-inpatient-rev-cntr-ndc-qty-extension","valueQuantity":{"value":0}}],"locationCodeableConcept":{"coding":[{"code":"21","display":"Inpatient Hospital","system":"https://bluebutton.cms.gov/resources/variables/line_place_of_srvc_cd"}]},"sequence":3,"service":{"coding":[{"code":"171207006","system":"http://snomed.info/sct","version":"v1"}]}}],"meta":{"lastUpdated":"2019-04-09T11:41:05.815049+00:00","profile":["https://bluebutton.cms.gov/assets/ig/StructureDefinition-bluebutton-inpatient-claim"],"versionId":"MTU1NDgxMDA2NTgxNTA0OTAwMA"},"organization":{"identifier":{"value":"98fb6748-cc45-442a-9093-83c34db1a3d0"}},"patient":{"reference":"Patient/00d2188b-1561-4950-a95e-e88e01038377"},"payment":{"amount":{"code":"USD","system":"urn:iso:std:iso:4217","value":826.64}},"provider":{"identifier":{"value":"34ded5d7-309b-49de-92d4-b372bcc5ca6c"}},"resourceType":"ExplanationOfBenefit","status":"active","totalCost":{"code":"USD","system":"urn:iso:std:iso:4217","value":1158.3},"type":{"coding":[{"code":"71","display":"Local carrier non-durable medical equipment, prosthetics, orthotics, and supplies (DMEPOS) claim","system":"https://bluebutton.cms.gov/resources/variables/nch_clm_type_cd"},{"code":"CARRIER","display":"EOB Type","system":"https://bluebutton.cms.gov/resources/codesystem/eob-type"},{"code":"professional","display":"Claim Type","system":"http://hl7.org/fhir/ex-claimtype"},{"code":"O","display":"Part B physician/supplier claim record (processed by local carriers; can include DMEPOS services)","system":"https://bluebutton.cms.gov/resources/variables/nch_near_line_rec_ident_cd"}]}}},{"resource":{"billablePeriod":{"end":"1967-07-13T07:37:52-04:00","extension":[{"url":"https://bluebutton.cms.gov/assets/ig/StructureDefinition-bluebutton-inpatient-claim-query-cd-extension","valueCoding":{"code":"3","display":"Final Bill","system":"https://bluebutton.cms.gov/assets/ig/ValueSet-claim-query-cd"}}],"start":"1966-07-13T07:37:52-04:00"},"careTeam":[{"provider":{"identifier":{"system":"http://hl7.org/fhir/sid/us-npi","value":"99999999"}},"role":{"coding":[{"code":"primary","display":"Primary Care Practitioner","system":"http://hl7.org/fhir/claimcareteamrole"}]},"sequence":1}],"contained":[{"id":"coverage","resourceType":"Coverage","type":{"text":"private"}}],"extension":[{"url":"https://bluebutton.cms.gov/assets/ig/StructureDefinition-bluebutton-inpatient-ime-op-clm-val-amt-extension","valueMoney":{"code":"USD","system":"urn:iso:std:iso:4217","value":400}},{"url":"https://bluebutton.cms.gov/assets/ig/StructureDefinition-bluebutton-inpatient-dsh-op-clm-val-amt-extension","valueMoney":{"code":"USD","system":"urn:iso:std:iso:4217","value":0}},{"url":"https://bluebutton.cms.gov/assets/ig/StructureDefinition-bluebutton-inpatient-clm-pass-thru-per-diem-amt-extension","valueMoney":{"code":"USD","system":"urn:iso:std:iso:4217","value":0}},{"url":"https://bluebutton.cms.gov/assets/ig/StructureDefinition-bluebutton-inpatient-nch-profnl-cmpnt-chrg-amt-extension","valueMoney":{"code":"USD","system":"urn:iso:std:iso:4217","value":0}},{"url":"https://bluebutton.cms.gov/assets/ig/StructureDefinition-bluebutton-inpatient-clm-tot-pps-cptl-amt-extension","valueMoney":{"code":"USD","system":"urn:iso:std:iso:4217","value":0}},{"url":"https://bluebutton.cms.gov/assets/ig/StructureDefinition-bluebutton-inpatient-nch-bene-ip-ddctbl-amt-extension","valueMoney":{"code":"USD","system":"urn:iso:std:iso:4217","value":0}},{"url":"https://bluebutton.cms.gov/assets/ig/StructureDefinition-bluebutton-inpatient-nch-bene-pta-coinsrnc-lblty-amt-extension","valueMoney":{"code":"USD","system":"urn:iso:std:iso:4217","value":0}},{"url":"https://bluebutton.cms.gov/assets/ig/StructureDefinition-bluebutton-inpatient-nch-ip-ncvrd-chrg-amt-extension","valueMoney":{"code":"USD","system":"urn:iso:std:iso:4217","value":0}},{"url":"https://bluebutton.cms.gov/assets/ig/StructureDefinition-bluebutton-inpatient-nch-ip-tot-ddctn-amt-extension","valueMoney":{"code":"USD","system":"urn:iso:std:iso:4217","value":0}},{"url":"https://bluebutton.cms.gov/assets/ig/StructureDefinition-bluebutton-inpatient-clm-pps-cptl-dsprprtnt-shr-amt-extension","valueMoney":{"code":"USD","system":"urn:iso:std:iso:4217","value":0}},{"url":"https://bluebutton.cms.gov/assets/ig/StructureDefinition-bluebutton-inpatient-clm-pps-cptl-excptn-amt-extension","valueMoney":{"code":"USD","system":"urn:iso:std:iso:4217","value":0}},{"url":"https://bluebutton.cms.gov/assets/ig/StructureDefinition-bluebutton-inpatient-clm-pps-cptl-fsp-amt-extension","valueMoney":{"code":"USD","system":"urn:iso:std:iso:4217","value":0}},{"url":"https://bluebutton.cms.gov/assets/ig/StructureDefinition-bluebutton-inpatient-clm-pps-cptl-ime-amt-extension","valueMoney":{"code":"USD","system":"urn:iso:std:iso:4217","value":400}},{"url":"https://bluebutton.cms.gov/assets/ig/StructureDefinition-bluebutton-inpatient-clm-pps-cptl-outlier-amt-extension","valueMoney":{"code":"USD","system":"urn:iso:std:iso:4217","value":0}},{"url":"https://bluebutton.cms.gov/assets/ig/StructureDefinition-bluebutton-inpatient-clm-pps-old-cptl-hld-hrmls-amt-extension","valueMoney":{"code":"USD","system":"urn:iso:std:iso:4217","value":0}},{"url":"https://bluebutton.cms.gov/assets/ig/StructureDefinition-bluebutton-inpatient-nch-drg-outlier-aprvd-pmt-amt-extension","valueMoney":{"code":"USD","system":"urn:iso:std:iso:4217","value":0}},{"url":"https://bluebutton.cms.gov/assets/ig/StructureDefinition-bluebutton-inpatient-nch-bene-blood-ddctbl-lblty-am-extension","valueMoney":{"code":"USD","system":"urn:iso:std:iso:4217","value":0}},{"url":"https://bluebutton.cms.gov/assets/ig/StructureDefinition-bluebutton-inpatient-clm-mdcr-non-pmt-rsn-cd-extension","valueCoding":{"code":"N","display":"All other reasons for non-payment","system":"https://bluebutton.cms.gov/assets/ig/CodeSystem-clm-mdcr-non-pmt-rsn-cd"}},{"url":"https://bluebutton.cms.gov/assets/ig/StructureDefinition-bluebutton-inpatient-prpayamt-extension","valueMoney":{"code":"USD","system":"urn:iso:std:iso:4217","value":0}},{"url":"https://bluebutton.cms.gov/assets/ig/StructureDefinition-bluebutton-inpatient-fi-num-extension","valueIdentifier":{"system":"https://bluebutton.cms.gov/assets/ig/CodeSystem-fi-num","value":"002000"}}],"id":"4d1fb1e7-ac14-4b22-a137-ffced985f39a","identifier":[{"system":"https://bluebutton.cms.gov/resources/variables/clm_id","value":"95217a94-9bd1-4dac-96f0-4f8f8a3e45b7"},{"system":"https://bluebutton.cms.gov/resources/identifier/claim-group","value":"99999999999"}],"insurance":{"coverage":{"reference":"#coverage"}},"item":[{"extension":[{"url":"https://bluebutton.cms.gov/assets/ig/StructureDefinition-bluebutton-inpatient-rev-cntr-ndc-qty-extension","valueQuantity":{"value":0}}],"locationCodeableConcept":{"coding":[{"code":"21","display":"Inpatient Hospital","system":"https://bluebutton.cms.gov/resources/variables/line_place_of_srvc_cd"}]},"sequence":1}],"meta":{"lastUpdated":"2019-04-09T11:41:04.865852+00:00","profile":["https://bluebutton.cms.gov/assets/ig/StructureDefinition-bluebutton-inpatient-claim"],"versionId":"MTU1NDgxMDA2NDg2NTg1MjAwMA"},"organization":{"identifier":{"value":"98fb6748-cc45-442a-9093-83c34db1a3d0"}},"patient":{"reference":"Patient/00d2188b-1561-4950-a95e-e88e01038377"},"payment":{"amount":{"code":"USD","system":"urn:iso:std:iso:4217","value":0}},"provider":{"identifier":{"value":"34ded5d7-309b-49de-92d4-b372bcc5ca6c"}},"resourceType":"ExplanationOfBenefit","status":"active","totalCost":{"code":"USD","system":"urn:iso:std:iso:4217","value":125},"type":{"coding":[{"code":"71","display":"Local carrier non-durable medical equipment, prosthetics, orthotics, and supplies (DMEPOS) claim","system":"https://bluebutton.cms.gov/resources/variables/nch_clm_type_cd"},{"code":"CARRIER","display":"EOB Type","system":"https://bluebutton.cms.gov/resources/codesystem/eob-type"},{"code":"professional","display":"Claim Type","system":"http://hl7.org/fhir/ex-claimtype"},{"code":"O","display":"Part B physician/supplier claim record (processed by local carriers; can include DMEPOS services)","system":"https://bluebutton.cms.gov/resources/variables/nch_near_line_rec_ident_cd"}]}}},{"resource":{"billablePeriod":{"end":"1969-05-20T07:22:52-04:00","extension":[{"url":"https://bluebutton.cms.gov/assets/ig/StructureDefinition-bluebutton-inpatient-claim-query-cd-extension","valueCoding":{"code":"3","display":"Final Bill","system":"https://bluebutton.cms.gov/assets/ig/ValueSet-claim-query-cd"}}],"start":"1968-05-20T07:22:52-04:00"},"careTeam":[{"provider":{"identifier":{"system":"http://hl7.org/fhir/sid/us-npi","value":"99999999"}},"role":{"coding":[{"code":"primary","display":"Primary Care Practitioner","system":"http://hl7.org/fhir/claimcareteamrole"}]},"sequence":1}],"contained":[{"id":"coverage","resourceType":"Coverage","type":{"text":"private"}}],"diagnosis":[{"diagnosisReference":{"reference":"Condition/1415e276-d572-4f2b-9016-9f8695cf2504"},"extension":[{"url":"https://bluebutton.cms.gov/assets/ig/StructureDefinition-bluebutton-inpatient-clm-poa-ind-sw1-extension","valueCoding":{"code":"Y","display":"Diagnosis present at time of admission","system":"https://bluebutton.cms.gov/assets/ig/CodeSystem-clm-poa-ind-sw1"}}],"sequence":1,"type":[{"coding":[{"code":"principal","system":"https://bluebutton.cms.gov/resources/codesystem/diagnosis-type"}]}]}],"extension":[{"url":"https://bluebutton.cms.gov/assets/ig/StructureDefinition-bluebutton-inpatient-ime-op-clm-val-amt-extension","valueMoney":{"code":"USD","system":"urn:iso:std:iso:4217","value":400}},{"url":"https://bluebutton.cms.gov/assets/ig/StructureDefinition-bluebutton-inpatient-dsh-op-clm-val-amt-extension","valueMoney":{"code":"USD","system":"urn:iso:std:iso:4217","value":0}},{"url":"https://bluebutton.cms.gov/assets/ig/StructureDefinition-bluebutton-inpatient-clm-pass-thru-per-diem-amt-extension","valueMoney":{"code":"USD","system":"urn:iso:std:iso:4217","value":0}},{"url":"https://bluebutton.cms.gov/assets/ig/StructureDefinition-bluebutton-inpatient-nch-profnl-cmpnt-chrg-amt-extension","valueMoney":{"code":"USD","system":"urn:iso:std:iso:4217","value":0}},{"url":"https://bluebutton.cms.gov/assets/ig/StructureDefinition-bluebutton-inpatient-clm-tot-pps-cptl-amt-extension","valueMoney":{"code":"USD","system":"urn:iso:std:iso:4217","value":0}},{"url":"https://bluebutton.cms.gov/assets/ig/StructureDefinition-bluebutton-inpatient-nch-bene-ip-ddctbl-amt-extension","valueMoney":{"code":"USD","system":"urn:iso:std:iso:4217","value":0}},{"url":"https://bluebutton.cms.gov/assets/ig/StructureDefinition-bluebutton-inpatient-nch-bene-pta-coinsrnc-lblty-amt-extension","valueMoney":{"code":"USD","system":"urn:iso:std:iso:4217","value":0}},{"url":"https://bluebutton.cms.gov/assets/ig/StructureDefinition-bluebutton-inpatient-nch-ip-ncvrd-chrg-amt-extension","valueMoney":{"code":"USD","system":"urn:iso:std:iso:4217","value":0}},{"url":"https://bluebutton.cms.gov/assets/ig/StructureDefinition-bluebutton-inpatient-nch-ip-tot-ddctn-amt-extension","valueMoney":{"code":"USD","system":"urn:iso:std:iso:4217","value":0}},{"url":"https://bluebutton.cms.gov/assets/ig/StructureDefinition-bluebutton-inpatient-clm-pps-cptl-dsprprtnt-shr-amt-extension","valueMoney":{"code":"USD","system":"urn:iso:std:iso:4217","value":0}},{"url":"https://bluebutton.cms.gov/assets/ig/StructureDefinition-bluebutton-inpatient-clm-pps-cptl-excptn-amt-extension","valueMoney":{"code":"USD","system":"urn:iso:std:iso:4217","value":0}},{"url":"https://bluebutton.cms.gov/assets/ig/StructureDefinition-bluebutton-inpatient-clm-pps-cptl-fsp-amt-extension","valueMoney":{"code":"USD","system":"urn:iso:std:iso:4217","value":0}},{"url":"https://bluebutton.cms.gov/assets/ig/StructureDefinition-bluebutton-inpatient-clm-pps-cptl-ime-amt-extension","valueMoney":{"code":"USD","system":"urn:iso:std:iso:4217","value":400}},{"url":"https://bluebutton.cms.gov/assets/ig/StructureDefinition-bluebutton-inpatient-clm-pps-cptl-outlier-amt-extension","valueMoney":{"code":"USD","system":"urn:iso:std:iso:4217","value":0}},{"url":"https://bluebutton.cms.gov/assets/ig/StructureDefinition-bluebutton-inpatient-clm-pps-old-cptl-hld-hrmls-amt-extension","valueMoney":{"code":"USD","system":"urn:iso:std:iso:4217","value":0}},{"url":"https://bluebutton.cms.gov/assets/ig/StructureDefinition-bluebutton-inpatient-nch-drg-outlier-aprvd-pmt-amt-extension","valueMoney":{"code":"USD","system":"urn:iso:std:iso:4217","value":0}},{"url":"https://bluebutton.cms.gov/assets/ig/StructureDefinition-bluebutton-inpatient-nch-bene-blood-ddctbl-lblty-am-extension","valueMoney":{"code":"USD","system":"urn:iso:std:iso:4217","value":0}},{"url":"https://bluebutton.cms.gov/assets/ig/StructureDefinition-bluebutton-inpatient-clm-mdcr-non-pmt-rsn-cd-extension","valueCoding":{"code":"N","display":"All other reasons for non-payment","system":"https://bluebutton.cms.gov/assets/ig/CodeSystem-clm-mdcr-non-pmt-rsn-cd"}},{"url":"https://bluebutton.cms.gov/assets/ig/StructureDefinition-bluebutton-inpatient-prpayamt-extension","valueMoney":{"code":"USD","system":"urn:iso:std:iso:4217","value":0}},{"url":"https://bluebutton.cms.gov/assets/ig/StructureDefinition-bluebutton-inpatient-fi-num-extension","valueIdentifier":{"system":"https://bluebutton.cms.gov/assets/ig/CodeSystem-fi-num","value":"002000"}}],"id":"4f6eb5ef-dffe-4e7a-8123-686ef33af6f0","identifier":[{"system":"https://bluebutton.cms.gov/resources/variables/clm_id","value":"a360462f-ae2c-4faf-992a-3a0ef7cd1810"},{"system":"https://bluebutton.cms.gov/resources/identifier/claim-group","value":"99999999999"}],"insurance":{"coverage":{"reference":"#coverage"}},"item":[{"extension":[{"url":"https://bluebutton.cms.gov/assets/ig/StructureDefinition-bluebutton-inpatient-rev-cntr-ndc-qty-extension","valueQuantity":{"value":0}}],"locationCodeableConcept":{"coding":[{"code":"21","display":"Inpatient Hospital","system":"https://bluebutton.cms.gov/resources/variables/line_place_of_srvc_cd"}]},"sequence":1},{"extension":[{"url":"https://bluebutton.cms.gov/assets/ig/StructureDefinition-bluebutton-inpatient-rev-cntr-ndc-qty-extension","valueQuantity":{"value":0}}],"locationCodeableConcept":{"coding":[{"code":"21","display":"Inpatient Hospital","system":"https://bluebutton.cms.gov/resources/variables/line_place_of_srvc_cd"}]},"sequence":2}],"meta":{"lastUpdated":"2019-04-09T11:41:04.887829+00:00","profile":["https://bluebutton.cms.gov/assets/ig/StructureDefinition-bluebutton-inpatient-claim"],"versionId":"MTU1NDgxMDA2NDg4NzgyOTAwMA"},"organization":{"identifier":{"value":"98fb6748-cc45-442a-9093-83c34db1a3d0"}},"patient":{"reference":"Patient/00d2188b-1561-4950-a95e-e88e01038377"},"payment":{"amount":{"code":"USD","system":"urn:iso:std:iso:4217","value":0}},"provider":{"identifier":{"value":"34ded5d7-309b-49de-92d4-b372bcc5ca6c"}},"resourceType":"ExplanationOfBenefit","status":"active","totalCost":{"code":"USD","system":"urn:iso:std:iso:4217","value":125},"type":{"coding":[{"code":"71","display":"Local carrier non-durable medical equipment, prosthetics, orthotics, and supplies (DMEPOS) claim","system":"https://bluebutton.cms.gov/resources/variables/nch_clm_type_cd"},{"code":"CARRIER","display":"EOB Type","system":"https://bluebutton.cms.gov/resources/codesystem/eob-type"},{"code":"professional","display":"Claim Type","system":"http://hl7.org/fhir/ex-claimtype"},{"code":"O","display":"Part B physician/supplier claim record (processed by local carriers; can include DMEPOS services)","system":"https://bluebutton.cms.gov/resources/variables/nch_near_line_rec_ident_cd"}]}}},{"resource":{"billablePeriod":{"end":"2015-03-15T07:37:52-04:00","extension":[{"url":"https://bluebutton.cms.gov/assets/ig/StructureDefinition-bluebutton-outpatient-claim-query-cd-extension","valueCoding":{"code":"3","display":"Final Bill","system":"https://bluebutton.cms.gov/assets/ig/ValueSet-claim-query-cd"}}],"start":"2014-03-15T07:37:52-04:00"},"careTeam":[{"provider":{"identifier":{"system":"http://hl7.org/fhir/sid/us-npi","value":"99999999"}},"role":{"coding":[{"code":"primary","display":"Primary Care Practitioner","system":"http://hl7.org/fhir/claimcareteamrole"}]},"sequence":1}],"contained":[{"id":"coverage","resourceType":"Coverage","type":{"text":"private"}}],"extension":[{"url":"https://bluebutton.cms.gov/assets/ig/StructureDefinition-bluebutton-outpatient-nch-profnl-cmpnt-chrg-amt-extension","valueMoney":{"code":"USD","system":"urn:iso:std:iso:4217","value":0}},{"url":"https://bluebutton.cms.gov/assets/ig/StructureDefinition-bluebutton-outpatient-nch-bene-ptb-ddctbl-amt-extension","valueMoney":{"code":"USD","system":"urn:iso:std:iso:4217","value":0}},{"url":"https://bluebutton.cms.gov/assets/ig/StructureDefinition-bluebutton-outpatient-nch-bene-ptb-coinsrnc-amt-extension","valueMoney":{"code":"USD","system":"urn:iso:std:iso:4217","value":0}},{"url":"https://bluebutton.cms.gov/assets/ig/StructureDefinition-bluebutton-outpatient-clm-op-prvdr-pmt-amt-extension","valueMoney":{"code":"USD","system":"urn:iso:std:iso:4217","value":0}},{"url":"https://bluebutton.cms.gov/assets/ig/StructureDefinition-bluebutton-outpatient-clm-op-bene-pmt-amt-extension","valueMoney":{"code":"USD","system":"urn:iso:std:iso:4217","value":0}},{"url":"https://bluebutton.cms.gov/assets/ig/StructureDefinition-bluebutton-outpatient-nch-bene-blood-ddctbl-lblty-am-extension","valueMoney":{"code":"USD","system":"urn:iso:std:iso:4217","value":0}},{"url":"https://bluebutton.cms.gov/assets/ig/StructureDefinition-bluebutton-outpatient-clm-mdcr-non-pmt-rsn-cd-extension","valueCoding":{"code":"N","display":"All other reasons for non-payment","system":"https://bluebutton.cms.gov/assets/ig/CodeSystem-clm-mdcr-non-pmt-rsn-cd"}},{"url":"https://bluebutton.cms.gov/assets/ig/StructureDefinition-bluebutton-outpatient-prpayamt-extension","valueMoney":{"code":"USD","system":"urn:iso:std:iso:4217","value":0}},{"url":"https://bluebutton.cms.gov/assets/ig/StructureDefinition-bluebutton-outpatient-fi-num-extension","valueIdentifier":{"system":"https://bluebutton.cms.gov/assets/ig/CodeSystem-fi-num","value":"002000"}}],"id":"507f117e-758c-43df-bad4-b00c37da7e0e","identifier":[{"system":"https://bluebutton.cms.gov/resources/variables/clm_id","value":"a7f6e1de-e3ff-4e3e-948c-f659059e0f54"},{"system":"https://bluebutton.cms.gov/resources/identifier/claim-group","value":"99999999999"}],"insurance":{"coverage":{"reference":"#coverage"}},"item":[{"extension":[{"url":"https://bluebutton.cms.gov/assets/ig/StructureDefinition-bluebutton-outpatient-rev-cntr-ndc-qty-extension","valueQuantity":{"value":0}}],"locationCodeableConcept":{"coding":[{"code":"21","display":"Inpatient Hospital","system":"https://bluebutton.cms.gov/resources/variables/line_place_of_srvc_cd"}]},"sequence":1}],"meta":{"lastUpdated":"2019-04-09T11:41:07.862573+00:00","profile":["https://bluebutton.cms.gov/assets/ig/StructureDefinition-bluebutton-outpatient-claim"],"versionId":"MTU1NDgxMDA2Nzg2MjU3MzAwMA"},"organization":{"identifier":{"value":"98fb6748-cc45-442a-9093-83c34db1a3d0"}},"patient":{"reference":"Patient/00d2188b-1561-4950-a95e-e88e01038377"},"payment":{"amount":{"code":"USD","system":"urn:iso:std:iso:4217","value":0}},"provider":{"identifier":{"value":"34ded5d7-309b-49de-92d4-b372bcc5ca6c"}},"resourceType":"ExplanationOfBenefit","status":"active","totalCost":{"code":"USD","system":"urn:iso:std:iso:4217","value":125},"type":{"coding":[{"code":"71","display":"Local carrier non-durable medical equipment, prosthetics, orthotics, and supplies (DMEPOS) claim","system":"https://bluebutton.cms.gov/resources/variables/nch_clm_type_cd"},{"code":"CARRIER","display":"EOB Type","system":"https://bluebutton.cms.gov/resources/codesystem/eob-type"},{"code":"professional","display":"Claim Type","system":"http://hl7.org/fhir/ex-claimtype"},{"code":"O","display":"Part B physician/supplier claim record (processed by local carriers; can include DMEPOS services)","system":"https://bluebutton.cms.gov/resources/variables/nch_near_line_rec_ident_cd"}]}}},{"resource":{"billablePeriod":{"end":"2019-03-30T07:52:52-04:00","start":"2018-03-30T07:52:52-04:00"},"careTeam":[{"provider":{"identifier":{"system":"http://hl7.org/fhir/sid/us-npi","value":"99999999"}},"role":{"coding":[{"code":"primary","display":"Primary Care Practitioner","system":"http://hl7.org/fhir/claimcareteamrole"}]},"sequence":1}],"claim":{"reference":"Claim/9ff8372a-9869-4c4b-a782-e5bf0753fd61"},"contained":[{"id":"1","intent":"order","recipient":[{"identifier":{"system":"http://hl7.org/fhir/sid/us-npi","value":"99999999"}}],"requester":{"agent":{"identifier":{"system":"http://hl7.org/fhir/sid/us-npi","value":"99999999"}}},"resourceType":"ReferralRequest","status":"completed","subject":{"reference":"Patient/00d2188b-1561-4950-a95e-e88e01038377"}},{"id":"coverage","resourceType":"Coverage","type":{"text":"private"}}],"created":"2018-03-30T07:52:52-04:00","id":"53ed5862-315d-45fb-8f8e-35538cb66a11","identifier":[{"system":"https://bluebutton.cms.gov/resources/variables/clm_id","value":"9ff8372a-9869-4c4b-a782-e5bf0753fd61"},{"system":"https://bluebutton.cms.gov/resources/identifier/claim-group","value":"99999999999"}],"insurance":{"coverage":{"reference":"#coverage"}},"item":[{"category":{"coding":[{"code":"1","display":"Medical care","system":"https://bluebutton.cms.gov/resources/variables/line_cms_type_srvc_cd"}]},"encounter":[{"reference":"Encounter/56deea73-2286-4a69-8f70-4fbda8ec9752"}],"locationCodeableConcept":{"coding":[{"code":"21","display":"Inpatient Hospital","system":"https://bluebutton.cms.gov/resources/variables/line_place_of_srvc_cd"}]},"sequence":1,"servicedPeriod":{"end":"2018-03-30T07:52:52-04:00","start":"2018-03-30T07:22:52-04:00"}},{"adjudication":[{"amount":{"code":"USD","system":"urn:iso:std:iso:4217","value":28.104000000000003},"category":{"coding":[{"code":"https://bluebutton.cms.gov/resources/variables/line_coinsrnc_amt","display":"Line Beneficiary Coinsurance Amount","system":"https://bluebutton.cms.gov/resources/codesystem/adjudication"}]}},{"amount":{"code":"USD","system":"urn:iso:std:iso:4217","value":112.41600000000001},"category":{"coding":[{"code":"https://bluebutton.cms.gov/resources/variables/line_prvdr_pmt_amt","display":"Line Provider Payment Amount","system":"https://bluebutton.cms.gov/resources/codesystem/adjudication"}]}},{"amount":{"code":"USD","system":"urn:iso:std:iso:4217","value":140.52},"category":{"coding":[{"code":"https://bluebutton.cms.gov/resources/variables/line_sbmtd_chrg_amt","display":"Line Submitted Charge Amount","system":"https://bluebutton.cms.gov/resources/codesystem/adjudication"}]}},{"amount":{"code":"USD","system":"urn:iso:std:iso:4217","value":140.52},"category":{"coding":[{"code":"https://bluebutton.cms.gov/resources/variables/line_alowd_chrg_amt","display":"Line Allowed Charge Amount","system":"https://bluebutton.cms.gov/resources/codesystem/adjudication"}]}},{"amount":{"code":"USD","system":"urn:iso:std:iso:4217","value":0},"category":{"coding":[{"code":"https://bluebutton.cms.gov/resources/variables/line_bene_ptb_ddctbl_amt","display":"Line Beneficiary Part B Deductible Amount","system":"https://bluebutton.cms.gov/resources/codesystem/adjudication"}]}},{"category":{"coding":[{"code":"https://bluebutton.cms.gov/resources/variables/line_prcsg_ind_cd","display":"Line Processing Indicator Code","system":"https://bluebutton.cms.gov/resources/codesystem/adjudication"}]},"reason":{"coding":[{"code":"A","display":"Allowed","system":"https://bluebutton.cms.gov/resources/variables/line_prcsg_ind_cd"}]}}],"category":{"coding":[{"code":"1","display":"Medical care","system":"https://bluebutton.cms.gov/resources/variables/line_cms_type_srvc_cd"}]},"informationLinkId":[1],"locationCodeableConcept":{"coding":[{"code":"21","display":"Inpatient Hospital","system":"https://bluebutton.cms.gov/resources/variables/line_place_of_srvc_cd"}]},"net":{"code":"USD","system":"urn:iso:std:iso:4217","value":140.52},"sequence":2,"servicedPeriod":{"end":"2018-03-30T07:52:52-04:00","start":"2018-03-30T07:22:52-04:00"}},{"adjudication":[{"amount":{"code":"USD","system":"urn:iso:std:iso:4217","value":138.172},"category":{"coding":[{"code":"https://bluebutton.cms.gov/resources/variables/line_coinsrnc_amt","display":"Line Beneficiary Coinsurance Amount","system":"https://bluebutton.cms.gov/resources/codesystem/adjudication"}]}},{"amount":{"code":"USD","system":"urn:iso:std:iso:4217","value":552.688},"category":{"coding":[{"code":"https://bluebutton.cms.gov/resources/variables/line_prvdr_pmt_amt","display":"Line Provider Payment Amount","system":"https://bluebutton.cms.gov/resources/codesystem/adjudication"}]}},{"amount":{"code":"USD","system":"urn:iso:std:iso:4217","value":690.86},"category":{"coding":[{"code":"https://bluebutton.cms.gov/resources/variables/line_sbmtd_chrg_amt","display":"Line Submitted Charge Amount","system":"https://bluebutton.cms.gov/resources/codesystem/adjudication"}]}},{"amount":{"code":"USD","system":"urn:iso:std:iso:4217","value":690.86},"category":{"coding":[{"code":"https://bluebutton.cms.gov/resources/variables/line_alowd_chrg_amt","display":"Line Allowed Charge Amount","system":"https://bluebutton.cms.gov/resources/codesystem/adjudication"}]}},{"amount":{"code":"USD","system":"urn:iso:std:iso:4217","value":0},"category":{"coding":[{"code":"https://bluebutton.cms.gov/resources/variables/line_bene_ptb_ddctbl_amt","display":"Line Beneficiary Part B Deductible Amount","system":"https://bluebutton.cms.gov/resources/codesystem/adjudication"}]}},{"category":{"coding":[{"code":"https://bluebutton.cms.gov/resources/variables/line_prcsg_ind_cd","display":"Line Processing Indicator Code","system":"https://bluebutton.cms.gov/resources/codesystem/adjudication"}]},"reason":{"coding":[{"code":"A","display":"Allowed","system":"https://bluebutton.cms.gov/resources/variables/line_prcsg_ind_cd"}]}}],"category":{"coding":[{"code":"1","display":"Medical care","system":"https://bluebutton.cms.gov/resources/variables/line_cms_type_srvc_cd"}]},"locationCodeableConcept":{"coding":[{"code":"21","display":"Inpatient Hospital","system":"https://bluebutton.cms.gov/resources/variables/line_place_of_srvc_cd"}]},"net":{"code":"USD","system":"urn:iso:std:iso:4217","value":690.86},"sequence":3,"service":{"coding":[{"code":"428191000124101","system":"http://snomed.info/sct","version":"v1"}]},"servicedPeriod":{"end":"2018-03-30T07:52:52-04:00","start":"2018-03-30T07:22:52-04:00"}}],"meta":{"lastUpdated":"2019-04-09T11:41:09.902119+00:00","versionId":"MTU1NDgxMDA2OTkwMjExOTAwMA"},"organization":{"identifier":{"value":"98fb6748-cc45-442a-9093-83c34db1a3d0"}},"patient":{"reference":"Patient/00d2188b-1561-4950-a95e-e88e01038377"},"payment":{"amount":{"code":"USD","system":"urn:iso:std:iso:4217","value":665.104}},"provider":{"identifier":{"value":"34ded5d7-309b-49de-92d4-b372bcc5ca6c"}},"referral":{"reference":"#1"},"resourceType":"ExplanationOfBenefit","status":"active","totalCost":{"code":"USD","system":"urn:iso:std:iso:4217","value":956.38},"type":{"coding":[{"code":"71","display":"Local carrier non-durable medical equipment, prosthetics, orthotics, and supplies (DMEPOS) claim","system":"https://bluebutton.cms.gov/resources/variables/nch_clm_type_cd"},{"code":"CARRIER","display":"EOB Type","system":"https://bluebutton.cms.gov/resources/codesystem/eob-type"},{"code":"professional","display":"Claim Type","system":"http://hl7.org/fhir/ex-claimtype"},{"code":"O","display":"Part B physician/supplier claim record (processed by local carriers; can include DMEPOS services)","system":"https://bluebutton.cms.gov/resources/variables/nch_near_line_rec_ident_cd"}]}}},{"resource":{"billablePeriod":{"end":"2012-09-12T07:37:52-04:00","extension":[{"url":"https://bluebutton.cms.gov/assets/ig/StructureDefinition-bluebutton-inpatient-claim-query-cd-extension","valueCoding":{"code":"3","display":"Final Bill","system":"https://bluebutton.cms.gov/assets/ig/ValueSet-claim-query-cd"}}],"start":"2011-09-12T07:37:52-04:00"},"careTeam":[{"provider":{"identifier":{"system":"http://hl7.org/fhir/sid/us-npi","value":"99999999"}},"role":{"coding":[{"code":"primary","display":"Primary Care Practitioner","system":"http://hl7.org/fhir/claimcareteamrole"}]},"sequence":1}],"contained":[{"id":"coverage","resourceType":"Coverage","type":{"text":"private"}}],"diagnosis":[{"diagnosisReference":{"reference":"Condition/35bb006e-9e08-4dbe-b17c-e717c9671515"},"extension":[{"url":"https://bluebutton.cms.gov/assets/ig/StructureDefinition-bluebutton-inpatient-clm-poa-ind-sw1-extension","valueCoding":{"code":"Y","display":"Diagnosis present at time of admission","system":"https://bluebutton.cms.gov/assets/ig/CodeSystem-clm-poa-ind-sw1"}}],"sequence":1,"type":[{"coding":[{"code":"principal","system":"https://bluebutton.cms.gov/resources/codesystem/diagnosis-type"}]}]}],"extension":[{"url":"https://bluebutton.cms.gov/assets/ig/StructureDefinition-bluebutton-inpatient-ime-op-clm-val-amt-extension","valueMoney":{"code":"USD","system":"urn:iso:std:iso:4217","value":400}},{"url":"https://bluebutton.cms.gov/assets/ig/StructureDefinition-bluebutton-inpatient-dsh-op-clm-val-amt-extension","valueMoney":{"code":"USD","system":"urn:iso:std:iso:4217","value":0}},{"url":"https://bluebutton.cms.gov/assets/ig/StructureDefinition-bluebutton-inpatient-clm-pass-thru-per-diem-amt-extension","valueMoney":{"code":"USD","system":"urn:iso:std:iso:4217","value":0}},{"url":"https://bluebutton.cms.gov/assets/ig/StructureDefinition-bluebutton-inpatient-nch-profnl-cmpnt-chrg-amt-extension","valueMoney":{"code":"USD","system":"urn:iso:std:iso:4217","value":0}},{"url":"https://bluebutton.cms.gov/assets/ig/StructureDefinition-bluebutton-inpatient-clm-tot-pps-cptl-amt-extension","valueMoney":{"code":"USD","system":"urn:iso:std:iso:4217","value":0}},{"url":"https://bluebutton.cms.gov/assets/ig/StructureDefinition-bluebutton-inpatient-nch-bene-ip-ddctbl-amt-extension","valueMoney":{"code":"USD","system":"urn:iso:std:iso:4217","value":0}},{"url":"https://bluebutton.cms.gov/assets/ig/StructureDefinition-bluebutton-inpatient-nch-bene-pta-coinsrnc-lblty-amt-extension","valueMoney":{"code":"USD","system":"urn:iso:std:iso:4217","value":0}},{"url":"https://bluebutton.cms.gov/assets/ig/StructureDefinition-bluebutton-inpatient-nch-ip-ncvrd-chrg-amt-extension","valueMoney":{"code":"USD","system":"urn:iso:std:iso:4217","value":0}},{"url":"https://bluebutton.cms.gov/assets/ig/StructureDefinition-bluebutton-inpatient-nch-ip-tot-ddctn-amt-extension","valueMoney":{"code":"USD","system":"urn:iso:std:iso:4217","value":0}},{"url":"https://bluebutton.cms.gov/assets/ig/StructureDefinition-bluebutton-inpatient-clm-pps-cptl-dsprprtnt-shr-amt-extension","valueMoney":{"code":"USD","system":"urn:iso:std:iso:4217","value":0}},{"url":"https://bluebutton.cms.gov/assets/ig/StructureDefinition-bluebutton-inpatient-clm-pps-cptl-excptn-amt-extension","valueMoney":{"code":"USD","system":"urn:iso:std:iso:4217","value":0}},{"url":"https://bluebutton.cms.gov/assets/ig/StructureDefinition-bluebutton-inpatient-clm-pps-cptl-fsp-amt-extension","valueMoney":{"code":"USD","system":"urn:iso:std:iso:4217","value":0}},{"url":"https://bluebutton.cms.gov/assets/ig/StructureDefinition-bluebutton-inpatient-clm-pps-cptl-ime-amt-extension","valueMoney":{"code":"USD","system":"urn:iso:std:iso:4217","value":400}},{"url":"https://bluebutton.cms.gov/assets/ig/StructureDefinition-bluebutton-inpatient-clm-pps-cptl-outlier-amt-extension","valueMoney":{"code":"USD","system":"urn:iso:std:iso:4217","value":0}},{"url":"https://bluebutton.cms.gov/assets/ig/StructureDefinition-bluebutton-inpatient-clm-pps-old-cptl-hld-hrmls-amt-extension","valueMoney":{"code":"USD","system":"urn:iso:std:iso:4217","value":0}},{"url":"https://bluebutton.cms.gov/assets/ig/StructureDefinition-bluebutton-inpatient-nch-drg-outlier-aprvd-pmt-amt-extension","valueMoney":{"code":"USD","system":"urn:iso:std:iso:4217","value":0}},{"url":"https://bluebutton.cms.gov/assets/ig/StructureDefinition-bluebutton-inpatient-nch-bene-blood-ddctbl-lblty-am-extension","valueMoney":{"code":"USD","system":"urn:iso:std:iso:4217","value":0}},{"url":"https://bluebutton.cms.gov/assets/ig/StructureDefinition-bluebutton-inpatient-clm-mdcr-non-pmt-rsn-cd-extension","valueCoding":{"code":"N","display":"All other reasons for non-payment","system":"https://bluebutton.cms.gov/assets/ig/CodeSystem-clm-mdcr-non-pmt-rsn-cd"}},{"url":"https://bluebutton.cms.gov/assets/ig/StructureDefinition-bluebutton-inpatient-prpayamt-extension","valueMoney":{"code":"USD","system":"urn:iso:std:iso:4217","value":0}},{"url":"https://bluebutton.cms.gov/assets/ig/StructureDefinition-bluebutton-inpatient-fi-num-extension","valueIdentifier":{"system":"https://bluebutton.cms.gov/assets/ig/CodeSystem-fi-num","value":"002000"}}],"id":"5a920ff5-0cbb-4d0b-8689-8129cd53c61d","identifier":[{"system":"https://bluebutton.cms.gov/resources/variables/clm_id","value":"657de258-6149-41fa-8044-872c90f0d04a"},{"system":"https://bluebutton.cms.gov/resources/identifier/claim-group","value":"99999999999"}],"insurance":{"coverage":{"reference":"#coverage"}},"item":[{"extension":[{"url":"https://bluebutton.cms.gov/assets/ig/StructureDefinition-bluebutton-inpatient-rev-cntr-ndc-qty-extension","valueQuantity":{"value":0}}],"locationCodeableConcept":{"coding":[{"code":"21","display":"Inpatient Hospital","system":"https://bluebutton.cms.gov/resources/variables/line_place_of_srvc_cd"}]},"sequence":1},{"extension":[{"url":"https://bluebutton.cms.gov/assets/ig/StructureDefinition-bluebutton-inpatient-rev-cntr-ndc-qty-extension","valueQuantity":{"value":0}}],"locationCodeableConcept":{"coding":[{"code":"21","display":"Inpatient Hospital","system":"https://bluebutton.cms.gov/resources/variables/line_place_of_srvc_cd"}]},"sequence":2}],"meta":{"lastUpdated":"2019-04-09T11:41:07.852988+00:00","profile":["https://bluebutton.cms.gov/assets/ig/StructureDefinition-bluebutton-inpatient-claim"],"versionId":"MTU1NDgxMDA2Nzg1Mjk4ODAwMA"},"organization":{"identifier":{"value":"98fb6748-cc45-442a-9093-83c34db1a3d0"}},"patient":{"reference":"Patient/00d2188b-1561-4950-a95e-e88e01038377"},"payment":{"amount":{"code":"USD","system":"urn:iso:std:iso:4217","value":0}},"provider":{"identifier":{"value":"34ded5d7-309b-49de-92d4-b372bcc5ca6c"}},"resourceType":"ExplanationOfBenefit","status":"active","totalCost":{"code":"USD","system":"urn:iso:std:iso:4217","value":125},"type":{"coding":[{"code":"71","display":"Local carrier non-durable medical equipment, prosthetics, orthotics, and supplies (DMEPOS) claim","system":"https://bluebutton.cms.gov/resources/variables/nch_clm_type_cd"},{"code":"CARRIER","display":"EOB Type","system":"https://bluebutton.cms.gov/resources/codesystem/eob-type"},{"code":"professional","display":"Claim Type","system":"http://hl7.org/fhir/ex-claimtype"},{"code":"O","display":"Part B physician/supplier claim record (processed by local carriers; can include DMEPOS services)","system":"https://bluebutton.cms.gov/resources/variables/nch_near_line_rec_ident_cd"}]}}},{"resource":{"billablePeriod":{"end":"2010-01-30T07:22:52-05:00","extension":[{"url":"https://bluebutton.cms.gov/assets/ig/StructureDefinition-bluebutton-inpatient-claim-query-cd-extension","valueCoding":{"code":"3","display":"Final Bill","system":"https://bluebutton.cms.gov/assets/ig/ValueSet-claim-query-cd"}}],"start":"2009-01-30T07:22:52-05:00"},"careTeam":[{"provider":{"identifier":{"system":"http://hl7.org/fhir/sid/us-npi","value":"99999999"}},"role":{"coding":[{"code":"primary","display":"Primary Care Practitioner","system":"http://hl7.org/fhir/claimcareteamrole"}]},"sequence":1}],"contained":[{"id":"coverage","resourceType":"Coverage","type":{"text":"private"}}],"extension":[{"url":"https://bluebutton.cms.gov/assets/ig/StructureDefinition-bluebutton-inpatient-ime-op-clm-val-amt-extension","valueMoney":{"code":"USD","system":"urn:iso:std:iso:4217","value":400}},{"url":"https://bluebutton.cms.gov/assets/ig/StructureDefinition-bluebutton-inpatient-dsh-op-clm-val-amt-extension","valueMoney":{"code":"USD","system":"urn:iso:std:iso:4217","value":0}},{"url":"https://bluebutton.cms.gov/assets/ig/StructureDefinition-bluebutton-inpatient-clm-pass-thru-per-diem-amt-extension","valueMoney":{"code":"USD","system":"urn:iso:std:iso:4217","value":0}},{"url":"https://bluebutton.cms.gov/assets/ig/StructureDefinition-bluebutton-inpatient-nch-profnl-cmpnt-chrg-amt-extension","valueMoney":{"code":"USD","system":"urn:iso:std:iso:4217","value":0}},{"url":"https://bluebutton.cms.gov/assets/ig/StructureDefinition-bluebutton-inpatient-clm-tot-pps-cptl-amt-extension","valueMoney":{"code":"USD","system":"urn:iso:std:iso:4217","value":0}},{"url":"https://bluebutton.cms.gov/assets/ig/StructureDefinition-bluebutton-inpatient-nch-bene-ip-ddctbl-amt-extension","valueMoney":{"code":"USD","system":"urn:iso:std:iso:4217","value":0}},{"url":"https://bluebutton.cms.gov/assets/ig/StructureDefinition-bluebutton-inpatient-nch-bene-pta-coinsrnc-lblty-amt-extension","valueMoney":{"code":"USD","system":"urn:iso:std:iso:4217","value":0}},{"url":"https://bluebutton.cms.gov/assets/ig/StructureDefinition-bluebutton-inpatient-nch-ip-ncvrd-chrg-amt-extension","valueMoney":{"code":"USD","system":"urn:iso:std:iso:4217","value":0}},{"url":"https://bluebutton.cms.gov/assets/ig/StructureDefinition-bluebutton-inpatient-nch-ip-tot-ddctn-amt-extension","valueMoney":{"code":"USD","system":"urn:iso:std:iso:4217","value":0}},{"url":"https://bluebutton.cms.gov/assets/ig/StructureDefinition-bluebutton-inpatient-clm-pps-cptl-dsprprtnt-shr-amt-extension","valueMoney":{"code":"USD","system":"urn:iso:std:iso:4217","value":0}},{"url":"https://bluebutton.cms.gov/assets/ig/StructureDefinition-bluebutton-inpatient-clm-pps-cptl-excptn-amt-extension","valueMoney":{"code":"USD","system":"urn:iso:std:iso:4217","value":0}},{"url":"https://bluebutton.cms.gov/assets/ig/StructureDefinition-bluebutton-inpatient-clm-pps-cptl-fsp-amt-extension","valueMoney":{"code":"USD","system":"urn:iso:std:iso:4217","value":0}},{"url":"https://bluebutton.cms.gov/assets/ig/StructureDefinition-bluebutton-inpatient-clm-pps-cptl-ime-amt-extension","valueMoney":{"code":"USD","system":"urn:iso:std:iso:4217","value":400}},{"url":"https://bluebutton.cms.gov/assets/ig/StructureDefinition-bluebutton-inpatient-clm-pps-cptl-outlier-amt-extension","valueMoney":{"code":"USD","system":"urn:iso:std:iso:4217","value":0}},{"url":"https://bluebutton.cms.gov/assets/ig/StructureDefinition-bluebutton-inpatient-clm-pps-old-cptl-hld-hrmls-amt-extension","valueMoney":{"code":"USD","system":"urn:iso:std:iso:4217","value":0}},{"url":"https://bluebutton.cms.gov/assets/ig/StructureDefinition-bluebutton-inpatient-nch-drg-outlier-aprvd-pmt-amt-extension","valueMoney":{"code":"USD","system":"urn:iso:std:iso:4217","value":0}},{"url":"https://bluebutton.cms.gov/assets/ig/StructureDefinition-bluebutton-inpatient-nch-bene-blood-ddctbl-lblty-am-extension","valueMoney":{"code":"USD","system":"urn:iso:std:iso:4217","value":0}},{"url":"https://bluebutton.cms.gov/assets/ig/StructureDefinition-bluebutton-inpatient-clm-mdcr-non-pmt-rsn-cd-extension","valueCoding":{"code":"N","display":"All other reasons for non-payment","system":"https://bluebutton.cms.gov/assets/ig/CodeSystem-clm-mdcr-non-pmt-rsn-cd"}},{"url":"https://bluebutton.cms.gov/assets/ig/StructureDefinition-bluebutton-inpatient-prpayamt-extension","valueMoney":{"code":"USD","system":"urn:iso:std:iso:4217","value":0}},{"url":"https://bluebutton.cms.gov/assets/ig/StructureDefinition-bluebutton-inpatient-fi-num-extension","valueIdentifier":{"system":"https://bluebutton.cms.gov/assets/ig/CodeSystem-fi-num","value":"002000"}}],"id":"63cdb869-7027-49e7-baa7-4e67ca9dffc9","identifier":[{"system":"https://bluebutton.cms.gov/resources/variables/clm_id","value":"ff9d93f3-0e7f-4894-ac16-cde0919691f1"},{"system":"https://bluebutton.cms.gov/resources/identifier/claim-group","value":"99999999999"}],"insurance":{"coverage":{"reference":"#coverage"}},"item":[{"extension":[{"url":"https://bluebutton.cms.gov/assets/ig/StructureDefinition-bluebutton-inpatient-rev-cntr-ndc-qty-extension","valueQuantity":{"value":0}}],"locationCodeableConcept":{"coding":[{"code":"21","display":"Inpatient Hospital","system":"https://bluebutton.cms.gov/resources/variables/line_place_of_srvc_cd"}]},"sequence":1},{"adjudication":[{"amount":{"code":"USD","system":"urn:iso:std:iso:4217","value":681.84},"category":{"coding":[{"code":"https://bluebutton.cms.gov/resources/variables/line_coinsrnc_amt","display":"Line Beneficiary Coinsurance Amount","system":"https://bluebutton.cms.gov/resources/codesystem/adjudication"}]}},{"amount":{"code":"USD","system":"urn:iso:std:iso:4217","value":2727.36},"category":{"coding":[{"code":"https://bluebutton.cms.gov/resources/variables/line_prvdr_pmt_amt","display":"Line Provider Payment Amount","system":"https://bluebutton.cms.gov/resources/codesystem/adjudication"}]}},{"amount":{"code":"USD","system":"urn:iso:std:iso:4217","value":3409.2},"category":{"coding":[{"code":"https://bluebutton.cms.gov/resources/variables/line_sbmtd_chrg_amt","display":"Line Submitted Charge Amount","system":"https://bluebutton.cms.gov/resources/codesystem/adjudication"}]}},{"amount":{"code":"USD","system":"urn:iso:std:iso:4217","value":3409.2},"category":{"coding":[{"code":"https://bluebutton.cms.gov/resources/variables/line_alowd_chrg_amt","display":"Line Allowed Charge Amount","system":"https://bluebutton.cms.gov/resources/codesystem/adjudication"}]}},{"amount":{"code":"USD","system":"urn:iso:std:iso:4217","value":0},"category":{"coding":[{"code":"https://bluebutton.cms.gov/resources/variables/line_bene_ptb_ddctbl_amt","display":"Line Beneficiary Part B Deductible Amount","system":"https://bluebutton.cms.gov/resources/codesystem/adjudication"}]}},{"category":{"coding":[{"code":"https://bluebutton.cms.gov/resources/variables/line_prcsg_ind_cd","display":"Line Processing Indicator Code","system":"https://bluebutton.cms.gov/resources/codesystem/adjudication"}]}}],"extension":[{"url":"https://bluebutton.cms.gov/assets/ig/StructureDefinition-bluebutton-inpatient-rev-cntr-ndc-qty-extension","valueQuantity":{"value":0}}],"locationCodeableConcept":{"coding":[{"code":"21","display":"Inpatient Hospital","system":"https://bluebutton.cms.gov/resources/variables/line_place_of_srvc_cd"}]},"sequence":2,"service":{"coding":[{"code":"118001005","system":"http://snomed.info/sct","version":"v1"}]}},{"adjudication":[{"amount":{"code":"USD","system":"urn:iso:std:iso:4217","value":1318.3760000000002},"category":{"coding":[{"code":"https://bluebutton.cms.gov/resources/variables/line_coinsrnc_amt","display":"Line Beneficiary Coinsurance Amount","system":"https://bluebutton.cms.gov/resources/codesystem/adjudication"}]}},{"amount":{"code":"USD","system":"urn:iso:std:iso:4217","value":5273.504000000001},"category":{"coding":[{"code":"https://bluebutton.cms.gov/resources/variables/line_prvdr_pmt_amt","display":"Line Provider Payment Amount","system":"https://bluebutton.cms.gov/resources/codesystem/adjudication"}]}},{"amount":{"code":"USD","system":"urn:iso:std:iso:4217","value":6591.88},"category":{"coding":[{"code":"https://bluebutton.cms.gov/resources/variables/line_sbmtd_chrg_amt","display":"Line Submitted Charge Amount","system":"https://bluebutton.cms.gov/resources/codesystem/adjudication"}]}},{"amount":{"code":"USD","system":"urn:iso:std:iso:4217","value":6591.88},"category":{"coding":[{"code":"https://bluebutton.cms.gov/resources/variables/line_alowd_chrg_amt","display":"Line Allowed Charge Amount","system":"https://bluebutton.cms.gov/resources/codesystem/adjudication"}]}},{"amount":{"code":"USD","system":"urn:iso:std:iso:4217","value":0},"category":{"coding":[{"code":"https://bluebutton.cms.gov/resources/variables/line_bene_ptb_ddctbl_amt","display":"Line Beneficiary Part B Deductible Amount","system":"https://bluebutton.cms.gov/resources/codesystem/adjudication"}]}},{"category":{"coding":[{"code":"https://bluebutton.cms.gov/resources/variables/line_prcsg_ind_cd","display":"Line Processing Indicator Code","system":"https://bluebutton.cms.gov/resources/codesystem/adjudication"}]}}],"extension":[{"url":"https://bluebutton.cms.gov/assets/ig/StructureDefinition-bluebutton-inpatient-rev-cntr-ndc-qty-extension","valueQuantity":{"value":0}}],"locationCodeableConcept":{"coding":[{"code":"21","display":"Inpatient Hospital","system":"https://bluebutton.cms.gov/resources/variables/line_place_of_srvc_cd"}]},"sequence":3,"service":{"coding":[{"code":"274804006","system":"http://snomed.info/sct","version":"v1"}]}},{"adjudication":[{"amount":{"code":"USD","system":"urn:iso:std:iso:4217","value":1028.388},"category":{"coding":[{"code":"https://bluebutton.cms.gov/resources/variables/line_coinsrnc_amt","display":"Line Beneficiary Coinsurance Amount","system":"https://bluebutton.cms.gov/resources/codesystem/adjudication"}]}},{"amount":{"code":"USD","system":"urn:iso:std:iso:4217","value":4113.552},"category":{"coding":[{"code":"https://bluebutton.cms.gov/resources/variables/line_prvdr_pmt_amt","display":"Line Provider Payment Amount","system":"https://bluebutton.cms.gov/resources/codesystem/adjudication"}]}},{"amount":{"code":"USD","system":"urn:iso:std:iso:4217","value":5141.94},"category":{"coding":[{"code":"https://bluebutton.cms.gov/resources/variables/line_sbmtd_chrg_amt","display":"Line Submitted Charge Amount","system":"https://bluebutton.cms.gov/resources/codesystem/adjudication"}]}},{"amount":{"code":"USD","system":"urn:iso:std:iso:4217","value":5141.94},"category":{"coding":[{"code":"https://bluebutton.cms.gov/resources/variables/line_alowd_chrg_amt","display":"Line Allowed Charge Amount","system":"https://bluebutton.cms.gov/resources/codesystem/adjudication"}]}},{"amount":{"code":"USD","system":"urn:iso:std:iso:4217","value":0},"category":{"coding":[{"code":"https://bluebutton.cms.gov/resources/variables/line_bene_ptb_ddctbl_amt","display":"Line Beneficiary Part B Deductible Amount","system":"https://bluebutton.cms.gov/resources/codesystem/adjudication"}]}},{"category":{"coding":[{"code":"https://bluebutton.cms.gov/resources/variables/line_prcsg_ind_cd","display":"Line Processing Indicator Code","system":"https://bluebutton.cms.gov/resources/codesystem/adjudication"}]}}],"extension":[{"url":"https://bluebutton.cms.gov/assets/ig/StructureDefinition-bluebutton-inpatient-rev-cntr-ndc-qty-extension","valueQuantity":{"value":0}}],"locationCodeableConcept":{"coding":[{"code":"21","display":"Inpatient Hospital","system":"https://bluebutton.cms.gov/resources/variables/line_place_of_srvc_cd"}]},"sequence":4,"service":{"coding":[{"code":"225158009","system":"http://snomed.info/sct","version":"v1"}]}}],"meta":{"lastUpdated":"2019-04-09T11:41:04.880658+00:00","profile":["https://bluebutton.cms.gov/assets/ig/StructureDefinition-bluebutton-inpatient-claim"],"versionId":"MTU1NDgxMDA2NDg4MDY1ODAwMA"},"organization":{"identifier":{"value":"98fb6748-cc45-442a-9093-83c34db1a3d0"}},"patient":{"reference":"Patient/00d2188b-1561-4950-a95e-e88e01038377"},"payment":{"amount":{"code":"USD","system":"urn:iso:std:iso:4217","value":12114.416000000001}},"provider":{"identifier":{"value":"34ded5d7-309b-49de-92d4-b372bcc5ca6c"}},"resourceType":"ExplanationOfBenefit","status":"active","totalCost":{"code":"USD","system":"urn:iso:std:iso:4217","value":15268.02},"type":{"coding":[{"code":"71","display":"Local carrier non-durable medical equipment, prosthetics, orthotics, and supplies (DMEPOS) claim","system":"https://bluebutton.cms.gov/resources/variables/nch_clm_type_cd"},{"code":"CARRIER","display":"EOB Type","system":"https://bluebutton.cms.gov/resources/codesystem/eob-type"},{"code":"professional","display":"Claim Type","system":"http://hl7.org/fhir/ex-claimtype"},{"code":"O","display":"Part B physician/supplier claim record (processed by local carriers; can include DMEPOS services)","system":"https://bluebutton.cms.gov/resources/variables/nch_near_line_rec_ident_cd"}]}}},{"resource":{"billablePeriod":{"end":"2016-03-10T07:37:52-05:00","extension":[{"url":"https://bluebutton.cms.gov/assets/ig/StructureDefinition-bluebutton-outpatient-claim-query-cd-extension","valueCoding":{"code":"3","display":"Final Bill","system":"https://bluebutton.cms.gov/assets/ig/ValueSet-claim-query-cd"}}],"start":"2015-03-10T07:37:52-04:00"},"careTeam":[{"provider":{"identifier":{"system":"http://hl7.org/fhir/sid/us-npi","value":"99999999"}},"role":{"coding":[{"code":"primary","display":"Primary Care Practitioner","system":"http://hl7.org/fhir/claimcareteamrole"}]},"sequence":1}],"contained":[{"id":"coverage","resourceType":"Coverage","type":{"text":"private"}}],"extension":[{"url":"https://bluebutton.cms.gov/assets/ig/StructureDefinition-bluebutton-outpatient-nch-profnl-cmpnt-chrg-amt-extension","valueMoney":{"code":"USD","system":"urn:iso:std:iso:4217","value":0}},{"url":"https://bluebutton.cms.gov/assets/ig/StructureDefinition-bluebutton-outpatient-nch-bene-ptb-ddctbl-amt-extension","valueMoney":{"code":"USD","system":"urn:iso:std:iso:4217","value":0}},{"url":"https://bluebutton.cms.gov/assets/ig/StructureDefinition-bluebutton-outpatient-nch-bene-ptb-coinsrnc-amt-extension","valueMoney":{"code":"USD","system":"urn:iso:std:iso:4217","value":0}},{"url":"https://bluebutton.cms.gov/assets/ig/StructureDefinition-bluebutton-outpatient-clm-op-prvdr-pmt-amt-extension","valueMoney":{"code":"USD","system":"urn:iso:std:iso:4217","value":0}},{"url":"https://bluebutton.cms.gov/assets/ig/StructureDefinition-bluebutton-outpatient-clm-op-bene-pmt-amt-extension","valueMoney":{"code":"USD","system":"urn:iso:std:iso:4217","value":0}},{"url":"https://bluebutton.cms.gov/assets/ig/StructureDefinition-bluebutton-outpatient-nch-bene-blood-ddctbl-lblty-am-extension","valueMoney":{"code":"USD","system":"urn:iso:std:iso:4217","value":0}},{"url":"https://bluebutton.cms.gov/assets/ig/StructureDefinition-bluebutton-outpatient-clm-mdcr-non-pmt-rsn-cd-extension","valueCoding":{"code":"N","display":"All other reasons for non-payment","system":"https://bluebutton.cms.gov/assets/ig/CodeSystem-clm-mdcr-non-pmt-rsn-cd"}},{"url":"https://bluebutton.cms.gov/assets/ig/StructureDefinition-bluebutton-outpatient-prpayamt-extension","valueMoney":{"code":"USD","system":"urn:iso:std:iso:4217","value":0}},{"url":"https://bluebutton.cms.gov/assets/ig/StructureDefinition-bluebutton-outpatient-fi-num-extension","valueIdentifier":{"system":"https://bluebutton.cms.gov/assets/ig/CodeSystem-fi-num","value":"002000"}}],"id":"78157b44-78f0-4989-be60-f67794b31be1","identifier":[{"system":"https://bluebutton.cms.gov/resources/variables/clm_id","value":"fa6b8e32-68e6-4fe1-924e-c5fe9d726908"},{"system":"https://bluebutton.cms.gov/resources/identifier/claim-group","value":"99999999999"}],"insurance":{"coverage":{"reference":"#coverage"}},"item":[{"extension":[{"url":"https://bluebutton.cms.gov/assets/ig/StructureDefinition-bluebutton-outpatient-rev-cntr-ndc-qty-extension","valueQuantity":{"value":0}}],"locationCodeableConcept":{"coding":[{"code":"21","display":"Inpatient Hospital","system":"https://bluebutton.cms.gov/resources/variables/line_place_of_srvc_cd"}]},"sequence":1}],"meta":{"lastUpdated":"2019-04-09T11:41:08.873538+00:00","profile":["https://bluebutton.cms.gov/assets/ig/StructureDefinition-bluebutton-outpatient-claim"],"versionId":"MTU1NDgxMDA2ODg3MzUzODAwMA"},"organization":{"identifier":{"value":"98fb6748-cc45-442a-9093-83c34db1a3d0"}},"patient":{"reference":"Patient/00d2188b-1561-4950-a95e-e88e01038377"},"payment":{"amount":{"code":"USD","system":"urn:iso:std:iso:4217","value":0}},"provider":{"identifier":{"value":"34ded5d7-309b-49de-92d4-b372bcc5ca6c"}},"resourceType":"ExplanationOfBenefit","status":"active","totalCost":{"code":"USD","system":"urn:iso:std:iso:4217","value":125},"type":{"coding":[{"code":"71","display":"Local carrier non-durable medical equipment, prosthetics, orthotics, and supplies (DMEPOS) claim","system":"https://bluebutton.cms.gov/resources/variables/nch_clm_type_cd"},{"code":"CARRIER","display":"EOB Type","system":"https://bluebutton.cms.gov/resources/codesystem/eob-type"},{"code":"professional","display":"Claim Type","system":"http://hl7.org/fhir/ex-claimtype"},{"code":"O","display":"Part B physician/supplier claim record (processed by local carriers; can include DMEPOS services)","system":"https://bluebutton.cms.gov/resources/variables/nch_near_line_rec_ident_cd"}]}}},{"resource":{"billablePeriod":{"end":"1984-06-17T07:52:52-04:00","start":"1983-06-17T07:52:52-04:00"},"careTeam":[{"provider":{"identifier":{"system":"http://hl7.org/fhir/sid/us-npi","value":"99999999"}},"role":{"coding":[{"code":"primary","display":"Primary Care Practitioner","system":"http://hl7.org/fhir/claimcareteamrole"}]},"sequence":1}],"claim":{"reference":"Claim/84f0b464-a809-4999-8216-6458f85abd67"},"contained":[{"id":"1","intent":"order","recipient":[{"identifier":{"system":"http://hl7.org/fhir/sid/us-npi","value":"99999999"}}],"requester":{"agent":{"identifier":{"system":"http://hl7.org/fhir/sid/us-npi","value":"99999999"}}},"resourceType":"ReferralRequest","status":"completed","subject":{"reference":"Patient/00d2188b-1561-4950-a95e-e88e01038377"}},{"id":"coverage","resourceType":"Coverage","type":{"text":"private"}}],"created":"1983-06-17T07:52:52-04:00","diagnosis":[{"diagnosisReference":{"reference":"Condition/6cc601f6-070b-419b-b7ac-d6d4ad5ba438"},"extension":[{"url":"https://bluebutton.cms.gov/assets/ig/StructureDefinition-bluebutton-inpatient-clm-poa-ind-sw1-extension","valueCoding":{"code":"Y","display":"Diagnosis present at time of admission","system":"https://bluebutton.cms.gov/assets/ig/CodeSystem-clm-poa-ind-sw1"}}],"sequence":1,"type":[{"coding":[{"code":"principal","system":"https://bluebutton.cms.gov/resources/codesystem/diagnosis-type"}]}]}],"id":"796e62d4-03ec-4f60-9687-3b978a552f60","identifier":[{"system":"https://bluebutton.cms.gov/resources/variables/clm_id","value":"84f0b464-a809-4999-8216-6458f85abd67"},{"system":"https://bluebutton.cms.gov/resources/identifier/claim-group","value":"99999999999"}],"insurance":{"coverage":{"reference":"#coverage"}},"item":[{"category":{"coding":[{"code":"1","display":"Medical care","system":"https://bluebutton.cms.gov/resources/variables/line_cms_type_srvc_cd"}]},"encounter":[{"reference":"Encounter/7735147e-84f1-439c-92f9-08cfa2ecaf9c"}],"locationCodeableConcept":{"coding":[{"code":"21","display":"Inpatient Hospital","system":"https://bluebutton.cms.gov/resources/variables/line_place_of_srvc_cd"}]},"sequence":1,"servicedPeriod":{"end":"1983-06-17T07:52:52-04:00","start":"1983-06-17T07:22:52-04:00"}},{"category":{"coding":[{"code":"1","display":"Medical care","system":"https://bluebutton.cms.gov/resources/variables/line_cms_type_srvc_cd"}]},"diagnosisLinkId":[1],"locationCodeableConcept":{"coding":[{"code":"21","display":"Inpatient Hospital","system":"https://bluebutton.cms.gov/resources/variables/line_place_of_srvc_cd"}]},"sequence":2,"servicedPeriod":{"end":"1983-06-17T07:52:52-04:00","start":"1983-06-17T07:22:52-04:00"}}],"meta":{"lastUpdated":"2019-04-09T11:41:04.880031+00:00","versionId":"MTU1NDgxMDA2NDg4MDAzMTAwMA"},"organization":{"identifier":{"value":"98fb6748-cc45-442a-9093-83c34db1a3d0"}},"patient":{"reference":"Patient/00d2188b-1561-4950-a95e-e88e01038377"},"payment":{"amount":{"code":"USD","system":"urn:iso:std:iso:4217","value":0}},"provider":{"identifier":{"value":"34ded5d7-309b-49de-92d4-b372bcc5ca6c"}},"referral":{"reference":"#1"},"resourceType":"ExplanationOfBenefit","status":"active","totalCost":{"code":"USD","system":"urn:iso:std:iso:4217","value":125},"type":{"coding":[{"code":"71","display":"Local carrier non-durable medical equipment, prosthetics, orthotics, and supplies (DMEPOS) claim","system":"https://bluebutton.cms.gov/resources/variables/nch_clm_type_cd"},{"code":"CARRIER","display":"EOB Type","system":"https://bluebutton.cms.gov/resources/codesystem/eob-type"},{"code":"professional","display":"Claim Type","system":"http://hl7.org/fhir/ex-claimtype"},{"code":"O","display":"Part B physician/supplier claim record (processed by local carriers; can include DMEPOS services)","system":"https://bluebutton.cms.gov/resources/variables/nch_near_line_rec_ident_cd"}]}}},{"resource":{"billablePeriod":{"end":"2017-03-04T07:15:52-05:00","extension":[{"url":"https://bluebutton.cms.gov/assets/ig/StructureDefinition-bluebutton-outpatient-claim-query-cd-extension","valueCoding":{"code":"3","display":"Final Bill","system":"https://bluebutton.cms.gov/assets/ig/ValueSet-claim-query-cd"}}],"start":"2016-03-04T07:15:52-05:00"},"careTeam":[{"provider":{"identifier":{"system":"http://hl7.org/fhir/sid/us-npi","value":"99999999"}},"role":{"coding":[{"code":"primary","display":"Primary Care Practitioner","system":"http://hl7.org/fhir/claimcareteamrole"}]},"sequence":1}],"contained":[{"id":"coverage","resourceType":"Coverage","type":{"text":"private"}}],"extension":[{"url":"https://bluebutton.cms.gov/assets/ig/StructureDefinition-bluebutton-outpatient-nch-profnl-cmpnt-chrg-amt-extension","valueMoney":{"code":"USD","system":"urn:iso:std:iso:4217","value":0}},{"url":"https://bluebutton.cms.gov/assets/ig/StructureDefinition-bluebutton-outpatient-nch-bene-ptb-ddctbl-amt-extension","valueMoney":{"code":"USD","system":"urn:iso:std:iso:4217","value":0}},{"url":"https://bluebutton.cms.gov/assets/ig/StructureDefinition-bluebutton-outpatient-nch-bene-ptb-coinsrnc-amt-extension","valueMoney":{"code":"USD","system":"urn:iso:std:iso:4217","value":0}},{"url":"https://bluebutton.cms.gov/assets/ig/StructureDefinition-bluebutton-outpatient-clm-op-prvdr-pmt-amt-extension","valueMoney":{"code":"USD","system":"urn:iso:std:iso:4217","value":0}},{"url":"https://bluebutton.cms.gov/assets/ig/StructureDefinition-bluebutton-outpatient-clm-op-bene-pmt-amt-extension","valueMoney":{"code":"USD","system":"urn:iso:std:iso:4217","value":0}},{"url":"https://bluebutton.cms.gov/assets/ig/StructureDefinition-bluebutton-outpatient-nch-bene-blood-ddctbl-lblty-am-extension","valueMoney":{"code":"USD","system":"urn:iso:std:iso:4217","value":0}},{"url":"https://bluebutton.cms.gov/assets/ig/StructureDefinition-bluebutton-outpatient-clm-mdcr-non-pmt-rsn-cd-extension","valueCoding":{"code":"N","display":"All other reasons for non-payment","system":"https://bluebutton.cms.gov/assets/ig/CodeSystem-clm-mdcr-non-pmt-rsn-cd"}},{"url":"https://bluebutton.cms.gov/assets/ig/StructureDefinition-bluebutton-outpatient-prpayamt-extension","valueMoney":{"code":"USD","system":"urn:iso:std:iso:4217","value":0}},{"url":"https://bluebutton.cms.gov/assets/ig/StructureDefinition-bluebutton-outpatient-fi-num-extension","valueIdentifier":{"system":"https://bluebutton.cms.gov/assets/ig/CodeSystem-fi-num","value":"002000"}}],"id":"824dd933-7f88-4d4e-a43c-425081881520","identifier":[{"system":"https://bluebutton.cms.gov/resources/variables/clm_id","value":"227f7643-bfd0-451e-b219-d4e0226f441b"},{"system":"https://bluebutton.cms.gov/resources/identifier/claim-group","value":"99999999999"}],"insurance":{"coverage":{"reference":"#coverage"}},"item":[{"extension":[{"url":"https://bluebutton.cms.gov/assets/ig/StructureDefinition-bluebutton-outpatient-rev-cntr-ndc-qty-extension","valueQuantity":{"value":0}}],"locationCodeableConcept":{"coding":[{"code":"21","display":"Inpatient Hospital","system":"https://bluebutton.cms.gov/resources/variables/line_place_of_srvc_cd"}]},"sequence":1},{"adjudication":[{"amount":{"code":"USD","system":"urn:iso:std:iso:4217","value":2337.414},"category":{"coding":[{"code":"https://bluebutton.cms.gov/resources/variables/line_coinsrnc_amt","display":"Line Beneficiary Coinsurance Amount","system":"https://bluebutton.cms.gov/resources/codesystem/adjudication"}]}},{"amount":{"code":"USD","system":"urn:iso:std:iso:4217","value":9349.656},"category":{"coding":[{"code":"https://bluebutton.cms.gov/resources/variables/line_prvdr_pmt_amt","display":"Line Provider Payment Amount","system":"https://bluebutton.cms.gov/resources/codesystem/adjudication"}]}},{"amount":{"code":"USD","system":"urn:iso:std:iso:4217","value":11687.07},"category":{"coding":[{"code":"https://bluebutton.cms.gov/resources/variables/line_sbmtd_chrg_amt","display":"Line Submitted Charge Amount","system":"https://bluebutton.cms.gov/resources/codesystem/adjudication"}]}},{"amount":{"code":"USD","system":"urn:iso:std:iso:4217","value":11687.07},"category":{"coding":[{"code":"https://bluebutton.cms.gov/resources/variables/line_alowd_chrg_amt","display":"Line Allowed Charge Amount","system":"https://bluebutton.cms.gov/resources/codesystem/adjudication"}]}},{"amount":{"code":"USD","system":"urn:iso:std:iso:4217","value":0},"category":{"coding":[{"code":"https://bluebutton.cms.gov/resources/variables/line_bene_ptb_ddctbl_amt","display":"Line Beneficiary Part B Deductible Amount","system":"https://bluebutton.cms.gov/resources/codesystem/adjudication"}]}},{"category":{"coding":[{"code":"https://bluebutton.cms.gov/resources/variables/line_prcsg_ind_cd","display":"Line Processing Indicator Code","system":"https://bluebutton.cms.gov/resources/codesystem/adjudication"}]}}],"extension":[{"url":"https://bluebutton.cms.gov/assets/ig/StructureDefinition-bluebutton-outpatient-rev-cntr-ndc-qty-extension","valueQuantity":{"value":0}}],"locationCodeableConcept":{"coding":[{"code":"21","display":"Inpatient Hospital","system":"https://bluebutton.cms.gov/resources/variables/line_place_of_srvc_cd"}]},"sequence":2,"service":{"coding":[{"code":"301807007","system":"http://snomed.info/sct","version":"v1"}],"extension":[{"url":"https://bluebutton.cms.gov/assets/ig/StructureDefinition-bluebutton-outpatient-rev-cntr-ide-ndc-upc-num-extension","valueCoding":{"code":"0624","display":"Dummy","system":"https://www.accessdata.fda.gov/scripts/cder/ndc"}}]}}],"meta":{"lastUpdated":"2019-04-09T11:41:08.876951+00:00","profile":["https://bluebutton.cms.gov/assets/ig/StructureDefinition-bluebutton-outpatient-claim"],"versionId":"MTU1NDgxMDA2ODg3Njk1MTAwMA"},"organization":{"identifier":{"value":"98fb6748-cc45-442a-9093-83c34db1a3d0"}},"patient":{"reference":"Patient/00d2188b-1561-4950-a95e-e88e01038377"},"payment":{"amount":{"code":"USD","system":"urn:iso:std:iso:4217","value":9349.656}},"provider":{"identifier":{"value":"34ded5d7-309b-49de-92d4-b372bcc5ca6c"}},"resourceType":"ExplanationOfBenefit","status":"active","totalCost":{"code":"USD","system":"urn:iso:std:iso:4217","value":11812.07},"type":{"coding":[{"code":"71","display":"Local carrier non-durable medical equipment, prosthetics, orthotics, and supplies (DMEPOS) claim","system":"https://bluebutton.cms.gov/resources/variables/nch_clm_type_cd"},{"code":"CARRIER","display":"EOB Type","system":"https://bluebutton.cms.gov/resources/codesystem/eob-type"},{"code":"professional","display":"Claim Type","system":"http://hl7.org/fhir/ex-claimtype"},{"code":"O","display":"Part B physician/supplier claim record (processed by local carriers; can include DMEPOS services)","system":"https://bluebutton.cms.gov/resources/variables/nch_near_line_rec_ident_cd"}]}}},{"resource":{"billablePeriod":{"end":"2016-05-01T08:16:52-04:00","extension":[{"url":"https://bluebutton.cms.gov/assets/ig/StructureDefinition-bluebutton-inpatient-claim-query-cd-extension","valueCoding":{"code":"3","display":"Final Bill","system":"https://bluebutton.cms.gov/assets/ig/ValueSet-claim-query-cd"}}],"start":"2015-05-01T08:16:52-04:00"},"careTeam":[{"provider":{"identifier":{"system":"http://hl7.org/fhir/sid/us-npi","value":"99999999"}},"role":{"coding":[{"code":"primary","display":"Primary Care Practitioner","system":"http://hl7.org/fhir/claimcareteamrole"}]},"sequence":1}],"contained":[{"id":"coverage","resourceType":"Coverage","type":{"text":"private"}}],"extension":[{"url":"https://bluebutton.cms.gov/assets/ig/StructureDefinition-bluebutton-inpatient-ime-op-clm-val-amt-extension","valueMoney":{"code":"USD","system":"urn:iso:std:iso:4217","value":400}},{"url":"https://bluebutton.cms.gov/assets/ig/StructureDefinition-bluebutton-inpatient-dsh-op-clm-val-amt-extension","valueMoney":{"code":"USD","system":"urn:iso:std:iso:4217","value":0}},{"url":"https://bluebutton.cms.gov/assets/ig/StructureDefinition-bluebutton-inpatient-clm-pass-thru-per-diem-amt-extension","valueMoney":{"code":"USD","system":"urn:iso:std:iso:4217","value":0}},{"url":"https://bluebutton.cms.gov/assets/ig/StructureDefinition-bluebutton-inpatient-nch-profnl-cmpnt-chrg-amt-extension","valueMoney":{"code":"USD","system":"urn:iso:std:iso:4217","value":0}},{"url":"https://bluebutton.cms.gov/assets/ig/StructureDefinition-bluebutton-inpatient-clm-tot-pps-cptl-amt-extension","valueMoney":{"code":"USD","system":"urn:iso:std:iso:4217","value":0}},{"url":"https://bluebutton.cms.gov/assets/ig/StructureDefinition-bluebutton-inpatient-nch-bene-ip-ddctbl-amt-extension","valueMoney":{"code":"USD","system":"urn:iso:std:iso:4217","value":0}},{"url":"https://bluebutton.cms.gov/assets/ig/StructureDefinition-bluebutton-inpatient-nch-bene-pta-coinsrnc-lblty-amt-extension","valueMoney":{"code":"USD","system":"urn:iso:std:iso:4217","value":0}},{"url":"https://bluebutton.cms.gov/assets/ig/StructureDefinition-bluebutton-inpatient-nch-ip-ncvrd-chrg-amt-extension","valueMoney":{"code":"USD","system":"urn:iso:std:iso:4217","value":0}},{"url":"https://bluebutton.cms.gov/assets/ig/StructureDefinition-bluebutton-inpatient-nch-ip-tot-ddctn-amt-extension","valueMoney":{"code":"USD","system":"urn:iso:std:iso:4217","value":0}},{"url":"https://bluebutton.cms.gov/assets/ig/StructureDefinition-bluebutton-inpatient-clm-pps-cptl-dsprprtnt-shr-amt-extension","valueMoney":{"code":"USD","system":"urn:iso:std:iso:4217","value":0}},{"url":"https://bluebutton.cms.gov/assets/ig/StructureDefinition-bluebutton-inpatient-clm-pps-cptl-excptn-amt-extension","valueMoney":{"code":"USD","system":"urn:iso:std:iso:4217","value":0}},{"url":"https://bluebutton.cms.gov/assets/ig/StructureDefinition-bluebutton-inpatient-clm-pps-cptl-fsp-amt-extension","valueMoney":{"code":"USD","system":"urn:iso:std:iso:4217","value":0}},{"url":"https://bluebutton.cms.gov/assets/ig/StructureDefinition-bluebutton-inpatient-clm-pps-cptl-ime-amt-extension","valueMoney":{"code":"USD","system":"urn:iso:std:iso:4217","value":400}},{"url":"https://bluebutton.cms.gov/assets/ig/StructureDefinition-bluebutton-inpatient-clm-pps-cptl-outlier-amt-extension","valueMoney":{"code":"USD","system":"urn:iso:std:iso:4217","value":0}},{"url":"https://bluebutton.cms.gov/assets/ig/StructureDefinition-bluebutton-inpatient-clm-pps-old-cptl-hld-hrmls-amt-extension","valueMoney":{"code":"USD","system":"urn:iso:std:iso:4217","value":0}},{"url":"https://bluebutton.cms.gov/assets/ig/StructureDefinition-bluebutton-inpatient-nch-drg-outlier-aprvd-pmt-amt-extension","valueMoney":{"code":"USD","system":"urn:iso:std:iso:4217","value":0}},{"url":"https://bluebutton.cms.gov/assets/ig/StructureDefinition-bluebutton-inpatient-nch-bene-blood-ddctbl-lblty-am-extension","valueMoney":{"code":"USD","system":"urn:iso:std:iso:4217","value":0}},{"url":"https://bluebutton.cms.gov/assets/ig/StructureDefinition-bluebutton-inpatient-clm-mdcr-non-pmt-rsn-cd-extension","valueCoding":{"code":"N","display":"All other reasons for non-payment","system":"https://bluebutton.cms.gov/assets/ig/CodeSystem-clm-mdcr-non-pmt-rsn-cd"}},{"url":"https://bluebutton.cms.gov/assets/ig/StructureDefinition-bluebutton-inpatient-prpayamt-extension","valueMoney":{"code":"USD","system":"urn:iso:std:iso:4217","value":0}},{"url":"https://bluebutton.cms.gov/assets/ig/StructureDefinition-bluebutton-inpatient-fi-num-extension","valueIdentifier":{"system":"https://bluebutton.cms.gov/assets/ig/CodeSystem-fi-num","value":"002000"}}],"id":"8371b6e0-fbc8-415e-bb83-9f7aef275c02","identifier":[{"system":"https://bluebutton.cms.gov/resources/variables/clm_id","value":"d705737c-10fe-4327-b3b4-cc7e688dd60d"},{"system":"https://bluebutton.cms.gov/resources/identifier/claim-group","value":"99999999999"}],"insurance":{"coverage":{"reference":"#coverage"}},"item":[{"extension":[{"url":"https://bluebutton.cms.gov/assets/ig/StructureDefinition-bluebutton-inpatient-rev-cntr-ndc-qty-extension","valueQuantity":{"value":0}}],"locationCodeableConcept":{"coding":[{"code":"21","display":"Inpatient Hospital","system":"https://bluebutton.cms.gov/resources/variables/line_place_of_srvc_cd"}]},"sequence":1},{"adjudication":[{"amount":{"code":"USD","system":"urn:iso:std:iso:4217","value":2487.376},"category":{"coding":[{"code":"https://bluebutton.cms.gov/resources/variables/line_coinsrnc_amt","display":"Line Beneficiary Coinsurance Amount","system":"https://bluebutton.cms.gov/resources/codesystem/adjudication"}]}},{"amount":{"code":"USD","system":"urn:iso:std:iso:4217","value":9949.504},"category":{"coding":[{"code":"https://bluebutton.cms.gov/resources/variables/line_prvdr_pmt_amt","display":"Line Provider Payment Amount","system":"https://bluebutton.cms.gov/resources/codesystem/adjudication"}]}},{"amount":{"code":"USD","system":"urn:iso:std:iso:4217","value":12436.88},"category":{"coding":[{"code":"https://bluebutton.cms.gov/resources/variables/line_sbmtd_chrg_amt","display":"Line Submitted Charge Amount","system":"https://bluebutton.cms.gov/resources/codesystem/adjudication"}]}},{"amount":{"code":"USD","system":"urn:iso:std:iso:4217","value":12436.88},"category":{"coding":[{"code":"https://bluebutton.cms.gov/resources/variables/line_alowd_chrg_amt","display":"Line Allowed Charge Amount","system":"https://bluebutton.cms.gov/resources/codesystem/adjudication"}]}},{"amount":{"code":"USD","system":"urn:iso:std:iso:4217","value":0},"category":{"coding":[{"code":"https://bluebutton.cms.gov/resources/variables/line_bene_ptb_ddctbl_amt","display":"Line Beneficiary Part B Deductible Amount","system":"https://bluebutton.cms.gov/resources/codesystem/adjudication"}]}},{"category":{"coding":[{"code":"https://bluebutton.cms.gov/resources/variables/line_prcsg_ind_cd","display":"Line Processing Indicator Code","system":"https://bluebutton.cms.gov/resources/codesystem/adjudication"}]}}],"extension":[{"url":"https://bluebutton.cms.gov/assets/ig/StructureDefinition-bluebutton-inpatient-rev-cntr-ndc-qty-extension","valueQuantity":{"value":0}}],"locationCodeableConcept":{"coding":[{"code":"21","display":"Inpatient Hospital","system":"https://bluebutton.cms.gov/resources/variables/line_place_of_srvc_cd"}]},"sequence":2,"service":{"coding":[{"code":"73761001","system":"http://snomed.info/sct","version":"v1"}]}}],"meta":{"lastUpdated":"2019-04-09T11:41:08.877017+00:00","profile":["https://bluebutton.cms.gov/assets/ig/StructureDefinition-bluebutton-inpatient-claim"],"versionId":"MTU1NDgxMDA2ODg3NzAxNzAwMA"},"organization":{"identifier":{"value":"98fb6748-cc45-442a-9093-83c34db1a3d0"}},"patient":{"reference":"Patient/00d2188b-1561-4950-a95e-e88e01038377"},"payment":{"amount":{"code":"USD","system":"urn:iso:std:iso:4217","value":9949.504}},"provider":{"identifier":{"value":"34ded5d7-309b-49de-92d4-b372bcc5ca6c"}},"resourceType":"ExplanationOfBenefit","status":"active","totalCost":{"code":"USD","system":"urn:iso:std:iso:4217","value":12561.88},"type":{"coding":[{"code":"71","display":"Local carrier non-durable medical equipment, prosthetics, orthotics, and supplies (DMEPOS) claim","system":"https://bluebutton.cms.gov/resources/variables/nch_clm_type_cd"},{"code":"CARRIER","display":"EOB Type","system":"https://bluebutton.cms.gov/resources/codesystem/eob-type"},{"code":"professional","display":"Claim Type","system":"http://hl7.org/fhir/ex-claimtype"},{"code":"O","display":"Part B physician/supplier claim record (processed by local carriers; can include DMEPOS services)","system":"https://bluebutton.cms.gov/resources/variables/nch_near_line_rec_ident_cd"}]}}},{"resource":{"billablePeriod":{"end":"1985-06-22T07:37:52-04:00","start":"1984-06-22T07:37:52-04:00"},"careTeam":[{"provider":{"identifier":{"system":"http://hl7.org/fhir/sid/us-npi","value":"99999999"}},"role":{"coding":[{"code":"primary","display":"Primary Care Practitioner","system":"http://hl7.org/fhir/claimcareteamrole"}]},"sequence":1}],"claim":{"reference":"Claim/934b2863-91ce-4fd6-97ca-65c34e8156a0"},"contained":[{"id":"1","intent":"order","recipient":[{"identifier":{"system":"http://hl7.org/fhir/sid/us-npi","value":"99999999"}}],"requester":{"agent":{"identifier":{"system":"http://hl7.org/fhir/sid/us-npi","value":"99999999"}}},"resourceType":"ReferralRequest","status":"completed","subject":{"reference":"Patient/00d2188b-1561-4950-a95e-e88e01038377"}},{"id":"coverage","resourceType":"Coverage","type":{"text":"private"}}],"created":"1984-06-22T07:37:52-04:00","diagnosis":[{"diagnosisReference":{"reference":"Condition/9b6f23d4-b71f-45a8-9840-5227b80b689b"},"extension":[{"url":"https://bluebutton.cms.gov/assets/ig/StructureDefinition-bluebutton-inpatient-clm-poa-ind-sw1-extension","valueCoding":{"code":"Y","display":"Diagnosis present at time of admission","system":"https://bluebutton.cms.gov/assets/ig/CodeSystem-clm-poa-ind-sw1"}}],"sequence":1,"type":[{"coding":[{"code":"principal","system":"https://bluebutton.cms.gov/resources/codesystem/diagnosis-type"}]}]}],"id":"87425df3-220f-47ca-913a-bcb21b5797a6","identifier":[{"system":"https://bluebutton.cms.gov/resources/variables/clm_id","value":"934b2863-91ce-4fd6-97ca-65c34e8156a0"},{"system":"https://bluebutton.cms.gov/resources/identifier/claim-group","value":"99999999999"}],"insurance":{"coverage":{"reference":"#coverage"}},"item":[{"category":{"coding":[{"code":"1","display":"Medical care","system":"https://bluebutton.cms.gov/resources/variables/line_cms_type_srvc_cd"}]},"encounter":[{"reference":"Encounter/55c1881e-dd91-49f6-96ba-3e0bc95f7a6d"}],"locationCodeableConcept":{"coding":[{"code":"21","display":"Inpatient Hospital","system":"https://bluebutton.cms.gov/resources/variables/line_place_of_srvc_cd"}]},"sequence":1,"servicedPeriod":{"end":"1984-06-22T07:37:52-04:00","start":"1984-06-22T07:22:52-04:00"}},{"category":{"coding":[{"code":"1","display":"Medical care","system":"https://bluebutton.cms.gov/resources/variables/line_cms_type_srvc_cd"}]},"diagnosisLinkId":[1],"locationCodeableConcept":{"coding":[{"code":"21","display":"Inpatient Hospital","system":"https://bluebutton.cms.gov/resources/variables/line_place_of_srvc_cd"}]},"sequence":2,"servicedPeriod":{"end":"1984-06-22T07:37:52-04:00","start":"1984-06-22T07:22:52-04:00"}}],"meta":{"lastUpdated":"2019-04-09T11:41:04.897068+00:00","versionId":"MTU1NDgxMDA2NDg5NzA2ODAwMA"},"organization":{"identifier":{"value":"98fb6748-cc45-442a-9093-83c34db1a3d0"}},"patient":{"reference":"Patient/00d2188b-1561-4950-a95e-e88e01038377"},"payment":{"amount":{"code":"USD","system":"urn:iso:std:iso:4217","value":0}},"provider":{"identifier":{"value":"34ded5d7-309b-49de-92d4-b372bcc5ca6c"}},"referral":{"reference":"#1"},"resourceType":"ExplanationOfBenefit","status":"active","totalCost":{"code":"USD","system":"urn:iso:std:iso:4217","value":125},"type":{"coding":[{"code":"71","display":"Local carrier non-durable medical equipment, prosthetics, orthotics, and supplies (DMEPOS) claim","system":"https://bluebutton.cms.gov/resources/variables/nch_clm_type_cd"},{"code":"CARRIER","display":"EOB Type","system":"https://bluebutton.cms.gov/resources/codesystem/eob-type"},{"code":"professional","display":"Claim Type","system":"http://hl7.org/fhir/ex-claimtype"},{"code":"O","display":"Part B physician/supplier claim record (processed by local carriers; can include DMEPOS services)","system":"https://bluebutton.cms.gov/resources/variables/nch_near_line_rec_ident_cd"}]}}},{"resource":{"billablePeriod":{"end":"2014-05-24T07:37:52-04:00","start":"2013-05-24T07:37:52-04:00"},"careTeam":[{"provider":{"identifier":{"system":"http://hl7.org/fhir/sid/us-npi","value":"99999999"}},"role":{"coding":[{"code":"primary","display":"Primary Care Practitioner","system":"http://hl7.org/fhir/claimcareteamrole"}]},"sequence":1}],"claim":{"reference":"Claim/8d3d97cb-2cb4-49d4-8d71-cafd0c2c8c1c"},"contained":[{"id":"1","intent":"order","recipient":[{"identifier":{"system":"http://hl7.org/fhir/sid/us-npi","value":"99999999"}}],"requester":{"agent":{"identifier":{"system":"http://hl7.org/fhir/sid/us-npi","value":"99999999"}}},"resourceType":"ReferralRequest","status":"completed","subject":{"reference":"Patient/00d2188b-1561-4950-a95e-e88e01038377"}},{"id":"coverage","resourceType":"Coverage","type":{"text":"private"}}],"created":"2013-05-24T07:37:52-04:00","id":"89f0099f-01fc-45b6-aef7-c9ec8c88f8ed","identifier":[{"system":"https://bluebutton.cms.gov/resources/variables/clm_id","value":"8d3d97cb-2cb4-49d4-8d71-cafd0c2c8c1c"},{"system":"https://bluebutton.cms.gov/resources/identifier/claim-group","value":"99999999999"}],"insurance":{"coverage":{"reference":"#coverage"}},"item":[{"category":{"coding":[{"code":"1","display":"Medical care","system":"https://bluebutton.cms.gov/resources/variables/line_cms_type_srvc_cd"}]},"encounter":[{"reference":"Encounter/cd0b9665-07fd-402d-8f79-2f8e54b71278"}],"locationCodeableConcept":{"coding":[{"code":"21","display":"Inpatient Hospital","system":"https://bluebutton.cms.gov/resources/variables/line_place_of_srvc_cd"}]},"sequence":1,"servicedPeriod":{"end":"2013-05-24T07:37:52-04:00","start":"2013-05-24T07:22:52-04:00"}},{"adjudication":[{"amount":{"code":"USD","system":"urn:iso:std:iso:4217","value":28.104000000000003},"category":{"coding":[{"code":"https://bluebutton.cms.gov/resources/variables/line_coinsrnc_amt","display":"Line Beneficiary Coinsurance Amount","system":"https://bluebutton.cms.gov/resources/codesystem/adjudication"}]}},{"amount":{"code":"USD","system":"urn:iso:std:iso:4217","value":112.41600000000001},"category":{"coding":[{"code":"https://bluebutton.cms.gov/resources/variables/line_prvdr_pmt_amt","display":"Line Provider Payment Amount","system":"https://bluebutton.cms.gov/resources/codesystem/adjudication"}]}},{"amount":{"code":"USD","system":"urn:iso:std:iso:4217","value":140.52},"category":{"coding":[{"code":"https://bluebutton.cms.gov/resources/variables/line_sbmtd_chrg_amt","display":"Line Submitted Charge Amount","system":"https://bluebutton.cms.gov/resources/codesystem/adjudication"}]}},{"amount":{"code":"USD","system":"urn:iso:std:iso:4217","value":140.52},"category":{"coding":[{"code":"https://bluebutton.cms.gov/resources/variables/line_alowd_chrg_amt","display":"Line Allowed Charge Amount","system":"https://bluebutton.cms.gov/resources/codesystem/adjudication"}]}},{"amount":{"code":"USD","system":"urn:iso:std:iso:4217","value":0},"category":{"coding":[{"code":"https://bluebutton.cms.gov/resources/variables/line_bene_ptb_ddctbl_amt","display":"Line Beneficiary Part B Deductible Amount","system":"https://bluebutton.cms.gov/resources/codesystem/adjudication"}]}},{"category":{"coding":[{"code":"https://bluebutton.cms.gov/resources/variables/line_prcsg_ind_cd","display":"Line Processing Indicator Code","system":"https://bluebutton.cms.gov/resources/codesystem/adjudication"}]},"reason":{"coding":[{"code":"A","display":"Allowed","system":"https://bluebutton.cms.gov/resources/variables/line_prcsg_ind_cd"}]}}],"category":{"coding":[{"code":"1","display":"Medical care","system":"https://bluebutton.cms.gov/resources/variables/line_cms_type_srvc_cd"}]},"informationLinkId":[1],"locationCodeableConcept":{"coding":[{"code":"21","display":"Inpatient Hospital","system":"https://bluebutton.cms.gov/resources/variables/line_place_of_srvc_cd"}]},"net":{"code":"USD","system":"urn:iso:std:iso:4217","value":140.52},"sequence":2,"servicedPeriod":{"end":"2013-05-24T07:37:52-04:00","start":"2013-05-24T07:22:52-04:00"}}],"meta":{"lastUpdated":"2019-04-09T11:41:07.852987+00:00","versionId":"MTU1NDgxMDA2Nzg1Mjk4NzAwMA"},"organization":{"identifier":{"value":"98fb6748-cc45-442a-9093-83c34db1a3d0"}},"patient":{"reference":"Patient/00d2188b-1561-4950-a95e-e88e01038377"},"payment":{"amount":{"code":"USD","system":"urn:iso:std:iso:4217","value":112.41600000000001}},"provider":{"identifier":{"value":"34ded5d7-309b-49de-92d4-b372bcc5ca6c"}},"referral":{"reference":"#1"},"resourceType":"ExplanationOfBenefit","status":"active","totalCost":{"code":"USD","system":"urn:iso:std:iso:4217","value":265.52},"type":{"coding":[{"code":"71","display":"Local carrier non-durable medical equipment, prosthetics, orthotics, and supplies (DMEPOS) claim","system":"https://bluebutton.cms.gov/resources/variables/nch_clm_type_cd"},{"code":"CARRIER","display":"EOB Type","system":"https://bluebutton.cms.gov/resources/codesystem/eob-type"},{"code":"professional","display":"Claim Type","system":"http://hl7.org/fhir/ex-claimtype"},{"code":"O","display":"Part B physician/supplier claim record (processed by local carriers; can include DMEPOS services)","system":"https://bluebutton.cms.gov/resources/variables/nch_near_line_rec_ident_cd"}]}}},{"resource":{"billablePeriod":{"end":"2010-04-10T08:16:52-04:00","extension":[{"url":"https://bluebutton.cms.gov/assets/ig/StructureDefinition-bluebutton-outpatient-claim-query-cd-extension","valueCoding":{"code":"3","display":"Final Bill","system":"https://bluebutton.cms.gov/assets/ig/ValueSet-claim-query-cd"}}],"start":"2009-04-10T08:16:52-04:00"},"careTeam":[{"provider":{"identifier":{"system":"http://hl7.org/fhir/sid/us-npi","value":"99999999"}},"role":{"coding":[{"code":"primary","display":"Primary Care Practitioner","system":"http://hl7.org/fhir/claimcareteamrole"}]},"sequence":1}],"contained":[{"id":"coverage","resourceType":"Coverage","type":{"text":"private"}}],"extension":[{"url":"https://bluebutton.cms.gov/assets/ig/StructureDefinition-bluebutton-outpatient-nch-profnl-cmpnt-chrg-amt-extension","valueMoney":{"code":"USD","system":"urn:iso:std:iso:4217","value":0}},{"url":"https://bluebutton.cms.gov/assets/ig/StructureDefinition-bluebutton-outpatient-nch-bene-ptb-ddctbl-amt-extension","valueMoney":{"code":"USD","system":"urn:iso:std:iso:4217","value":0}},{"url":"https://bluebutton.cms.gov/assets/ig/StructureDefinition-bluebutton-outpatient-nch-bene-ptb-coinsrnc-amt-extension","valueMoney":{"code":"USD","system":"urn:iso:std:iso:4217","value":0}},{"url":"https://bluebutton.cms.gov/assets/ig/StructureDefinition-bluebutton-outpatient-clm-op-prvdr-pmt-amt-extension","valueMoney":{"code":"USD","system":"urn:iso:std:iso:4217","value":0}},{"url":"https://bluebutton.cms.gov/assets/ig/StructureDefinition-bluebutton-outpatient-clm-op-bene-pmt-amt-extension","valueMoney":{"code":"USD","system":"urn:iso:std:iso:4217","value":0}},{"url":"https://bluebutton.cms.gov/assets/ig/StructureDefinition-bluebutton-outpatient-nch-bene-blood-ddctbl-lblty-am-extension","valueMoney":{"code":"USD","system":"urn:iso:std:iso:4217","value":0}},{"url":"https://bluebutton.cms.gov/assets/ig/StructureDefinition-bluebutton-outpatient-clm-mdcr-non-pmt-rsn-cd-extension","valueCoding":{"code":"N","display":"All other reasons for non-payment","system":"https://bluebutton.cms.gov/assets/ig/CodeSystem-clm-mdcr-non-pmt-rsn-cd"}},{"url":"https://bluebutton.cms.gov/assets/ig/StructureDefinition-bluebutton-outpatient-prpayamt-extension","valueMoney":{"code":"USD","system":"urn:iso:std:iso:4217","value":0}},{"url":"https://bluebutton.cms.gov/assets/ig/StructureDefinition-bluebutton-outpatient-fi-num-extension","valueIdentifier":{"system":"https://bluebutton.cms.gov/assets/ig/CodeSystem-fi-num","value":"002000"}}],"id":"8b9d2b60-9738-4544-9acd-dcd1086caf18","identifier":[{"system":"https://bluebutton.cms.gov/resources/variables/clm_id","value":"fcd5be6e-3407-43c4-9678-25f6caf8533d"},{"system":"https://bluebutton.cms.gov/resources/identifier/claim-group","value":"99999999999"}],"insurance":{"coverage":{"reference":"#coverage"}},"item":[{"extension":[{"url":"https://bluebutton.cms.gov/assets/ig/StructureDefinition-bluebutton-outpatient-rev-cntr-ndc-qty-extension","valueQuantity":{"value":0}}],"locationCodeableConcept":{"coding":[{"code":"21","display":"Inpatient Hospital","system":"https://bluebutton.cms.gov/resources/variables/line_place_of_srvc_cd"}]},"sequence":1},{"adjudication":[{"amount":{"code":"USD","system":"urn:iso:std:iso:4217","value":1814.902},"category":{"coding":[{"code":"https://bluebutton.cms.gov/resources/variables/line_coinsrnc_amt","display":"Line Beneficiary Coinsurance Amount","system":"https://bluebutton.cms.gov/resources/codesystem/adjudication"}]}},{"amount":{"code":"USD","system":"urn:iso:std:iso:4217","value":7259.608},"category":{"coding":[{"code":"https://bluebutton.cms.gov/resources/variables/line_prvdr_pmt_amt","display":"Line Provider Payment Amount","system":"https://bluebutton.cms.gov/resources/codesystem/adjudication"}]}},{"amount":{"code":"USD","system":"urn:iso:std:iso:4217","value":9074.51},"category":{"coding":[{"code":"https://bluebutton.cms.gov/resources/variables/line_sbmtd_chrg_amt","display":"Line Submitted Charge Amount","system":"https://bluebutton.cms.gov/resources/codesystem/adjudication"}]}},{"amount":{"code":"USD","system":"urn:iso:std:iso:4217","value":9074.51},"category":{"coding":[{"code":"https://bluebutton.cms.gov/resources/variables/line_alowd_chrg_amt","display":"Line Allowed Charge Amount","system":"https://bluebutton.cms.gov/resources/codesystem/adjudication"}]}},{"amount":{"code":"USD","system":"urn:iso:std:iso:4217","value":0},"category":{"coding":[{"code":"https://bluebutton.cms.gov/resources/variables/line_bene_ptb_ddctbl_amt","display":"Line Beneficiary Part B Deductible Amount","system":"https://bluebutton.cms.gov/resources/codesystem/adjudication"}]}},{"category":{"coding":[{"code":"https://bluebutton.cms.gov/resources/variables/line_prcsg_ind_cd","display":"Line Processing Indicator Code","system":"https://bluebutton.cms.gov/resources/codesystem/adjudication"}]}}],"extension":[{"url":"https://bluebutton.cms.gov/assets/ig/StructureDefinition-bluebutton-outpatient-rev-cntr-ndc-qty-extension","valueQuantity":{"value":0}}],"locationCodeableConcept":{"coding":[{"code":"21","display":"Inpatient Hospital","system":"https://bluebutton.cms.gov/resources/variables/line_place_of_srvc_cd"}]},"sequence":2,"service":{"coding":[{"code":"169553002","system":"http://snomed.info/sct","version":"v1"}],"extension":[{"url":"https://bluebutton.cms.gov/assets/ig/StructureDefinition-bluebutton-outpatient-rev-cntr-ide-ndc-upc-num-extension","valueCoding":{"code":"0624","display":"Dummy","system":"https://www.accessdata.fda.gov/scripts/cder/ndc"}}]}}],"meta":{"lastUpdated":"2019-04-09T11:41:05.803676+00:00","profile":["https://bluebutton.cms.gov/assets/ig/StructureDefinition-bluebutton-outpatient-claim"],"versionId":"MTU1NDgxMDA2NTgwMzY3NjAwMA"},"organization":{"identifier":{"value":"98fb6748-cc45-442a-9093-83c34db1a3d0"}},"patient":{"reference":"Patient/00d2188b-1561-4950-a95e-e88e01038377"},"payment":{"amount":{"code":"USD","system":"urn:iso:std:iso:4217","value":7259.608}},"provider":{"identifier":{"value":"34ded5d7-309b-49de-92d4-b372bcc5ca6c"}},"resourceType":"ExplanationOfBenefit","status":"active","totalCost":{"code":"USD","system":"urn:iso:std:iso:4217","value":9199.51},"type":{"coding":[{"code":"71","display":"Local carrier non-durable medical equipment, prosthetics, orthotics, and supplies (DMEPOS) claim","system":"https://bluebutton.cms.gov/resources/variables/nch_clm_type_cd"},{"code":"CARRIER","display":"EOB Type","system":"https://bluebutton.cms.gov/resources/codesystem/eob-type"},{"code":"professional","display":"Claim Type","system":"http://hl7.org/fhir/ex-claimtype"},{"code":"O","display":"Part B physician/supplier claim record (processed by local carriers; can include DMEPOS services)","system":"https://bluebutton.cms.gov/resources/variables/nch_near_line_rec_ident_cd"}]}}},{"resource":{"billablePeriod":{"end":"2013-03-25T07:37:52-04:00","extension":[{"url":"https://bluebutton.cms.gov/assets/ig/StructureDefinition-bluebutton-outpatient-claim-query-cd-extension","valueCoding":{"code":"3","display":"Final Bill","system":"https://bluebutton.cms.gov/assets/ig/ValueSet-claim-query-cd"}}],"start":"2012-03-25T07:37:52-04:00"},"careTeam":[{"provider":{"identifier":{"system":"http://hl7.org/fhir/sid/us-npi","value":"99999999"}},"role":{"coding":[{"code":"primary","display":"Primary Care Practitioner","system":"http://hl7.org/fhir/claimcareteamrole"}]},"sequence":1}],"contained":[{"id":"coverage","resourceType":"Coverage","type":{"text":"private"}}],"extension":[{"url":"https://bluebutton.cms.gov/assets/ig/StructureDefinition-bluebutton-outpatient-nch-profnl-cmpnt-chrg-amt-extension","valueMoney":{"code":"USD","system":"urn:iso:std:iso:4217","value":0}},{"url":"https://bluebutton.cms.gov/assets/ig/StructureDefinition-bluebutton-outpatient-nch-bene-ptb-ddctbl-amt-extension","valueMoney":{"code":"USD","system":"urn:iso:std:iso:4217","value":0}},{"url":"https://bluebutton.cms.gov/assets/ig/StructureDefinition-bluebutton-outpatient-nch-bene-ptb-coinsrnc-amt-extension","valueMoney":{"code":"USD","system":"urn:iso:std:iso:4217","value":0}},{"url":"https://bluebutton.cms.gov/assets/ig/StructureDefinition-bluebutton-outpatient-clm-op-prvdr-pmt-amt-extension","valueMoney":{"code":"USD","system":"urn:iso:std:iso:4217","value":0}},{"url":"https://bluebutton.cms.gov/assets/ig/StructureDefinition-bluebutton-outpatient-clm-op-bene-pmt-amt-extension","valueMoney":{"code":"USD","system":"urn:iso:std:iso:4217","value":0}},{"url":"https://bluebutton.cms.gov/assets/ig/StructureDefinition-bluebutton-outpatient-nch-bene-blood-ddctbl-lblty-am-extension","valueMoney":{"code":"USD","system":"urn:iso:std:iso:4217","value":0}},{"url":"https://bluebutton.cms.gov/assets/ig/StructureDefinition-bluebutton-outpatient-clm-mdcr-non-pmt-rsn-cd-extension","valueCoding":{"code":"N","display":"All other reasons for non-payment","system":"https://bluebutton.cms.gov/assets/ig/CodeSystem-clm-mdcr-non-pmt-rsn-cd"}},{"url":"https://bluebutton.cms.gov/assets/ig/StructureDefinition-bluebutton-outpatient-prpayamt-extension","valueMoney":{"code":"USD","system":"urn:iso:std:iso:4217","value":0}},{"url":"https://bluebutton.cms.gov/assets/ig/StructureDefinition-bluebutton-outpatient-fi-num-extension","valueIdentifier":{"system":"https://bluebutton.cms.gov/assets/ig/CodeSystem-fi-num","value":"002000"}}],"id":"a5e21ff9-6138-4d0e-8c3d-120c2806e12b","identifier":[{"system":"https://bluebutton.cms.gov/resources/variables/clm_id","value":"e369e6fb-8f65-4e44-ad87-e4417751a515"},{"system":"https://bluebutton.cms.gov/resources/identifier/claim-group","value":"99999999999"}],"insurance":{"coverage":{"reference":"#coverage"}},"item":[{"extension":[{"url":"https://bluebutton.cms.gov/assets/ig/StructureDefinition-bluebutton-outpatient-rev-cntr-ndc-qty-extension","valueQuantity":{"value":0}}],"locationCodeableConcept":{"coding":[{"code":"21","display":"Inpatient Hospital","system":"https://bluebutton.cms.gov/resources/variables/line_place_of_srvc_cd"}]},"sequence":1}],"meta":{"lastUpdated":"2019-04-09T11:41:07.846670+00:00","profile":["https://bluebutton.cms.gov/assets/ig/StructureDefinition-bluebutton-outpatient-claim"],"versionId":"MTU1NDgxMDA2Nzg0NjY3MDAwMA"},"organization":{"identifier":{"value":"98fb6748-cc45-442a-9093-83c34db1a3d0"}},"patient":{"reference":"Patient/00d2188b-1561-4950-a95e-e88e01038377"},"payment":{"amount":{"code":"USD","system":"urn:iso:std:iso:4217","value":0}},"provider":{"identifier":{"value":"34ded5d7-309b-49de-92d4-b372bcc5ca6c"}},"resourceType":"ExplanationOfBenefit","status":"active","totalCost":{"code":"USD","system":"urn:iso:std:iso:4217","value":125},"type":{"coding":[{"code":"71","display":"Local carrier non-durable medical equipment, prosthetics, orthotics, and supplies (DMEPOS) claim","system":"https://bluebutton.cms.gov/resources/variables/nch_clm_type_cd"},{"code":"CARRIER","display":"EOB Type","system":"https://bluebutton.cms.gov/resources/codesystem/eob-type"},{"code":"professional","display":"Claim Type","system":"http://hl7.org/fhir/ex-claimtype"},{"code":"O","display":"Part B physician/supplier claim record (processed by local carriers; can include DMEPOS services)","system":"https://bluebutton.cms.gov/resources/variables/nch_near_line_rec_ident_cd"}]}}},{"resource":{"billablePeriod":{"end":"2017-03-18T07:52:52-04:00","start":"2016-03-18T07:52:52-04:00"},"careTeam":[{"provider":{"identifier":{"system":"http://hl7.org/fhir/sid/us-npi","value":"99999999"}},"role":{"coding":[{"code":"primary","display":"Primary Care Practitioner","system":"http://hl7.org/fhir/claimcareteamrole"}]},"sequence":1}],"claim":{"reference":"Claim/fc8d521f-3e3e-4aa9-a054-dc4d91515449"},"contained":[{"id":"1","intent":"order","recipient":[{"identifier":{"system":"http://hl7.org/fhir/sid/us-npi","value":"99999999"}}],"requester":{"agent":{"identifier":{"system":"http://hl7.org/fhir/sid/us-npi","value":"99999999"}}},"resourceType":"ReferralRequest","status":"completed","subject":{"reference":"Patient/00d2188b-1561-4950-a95e-e88e01038377"}},{"id":"coverage","resourceType":"Coverage","type":{"text":"private"}}],"created":"2016-03-18T07:52:52-04:00","id":"c804d050-22ae-47a9-af2e-15f56caa2e7d","identifier":[{"system":"https://bluebutton.cms.gov/resources/variables/clm_id","value":"fc8d521f-3e3e-4aa9-a054-dc4d91515449"},{"system":"https://bluebutton.cms.gov/resources/identifier/claim-group","value":"99999999999"}],"insurance":{"coverage":{"reference":"#coverage"}},"item":[{"category":{"coding":[{"code":"1","display":"Medical care","system":"https://bluebutton.cms.gov/resources/variables/line_cms_type_srvc_cd"}]},"encounter":[{"reference":"Encounter/5d765d8b-ca9b-4560-ba21-112ef26dc25c"}],"locationCodeableConcept":{"coding":[{"code":"21","display":"Inpatient Hospital","system":"https://bluebutton.cms.gov/resources/variables/line_place_of_srvc_cd"}]},"sequence":1,"servicedPeriod":{"end":"2016-03-18T07:52:52-04:00","start":"2016-03-18T07:22:52-04:00"}},{"adjudication":[{"amount":{"code":"USD","system":"urn:iso:std:iso:4217","value":28.104000000000003},"category":{"coding":[{"code":"https://bluebutton.cms.gov/resources/variables/line_coinsrnc_amt","display":"Line Beneficiary Coinsurance Amount","system":"https://bluebutton.cms.gov/resources/codesystem/adjudication"}]}},{"amount":{"code":"USD","system":"urn:iso:std:iso:4217","value":112.41600000000001},"category":{"coding":[{"code":"https://bluebutton.cms.gov/resources/variables/line_prvdr_pmt_amt","display":"Line Provider Payment Amount","system":"https://bluebutton.cms.gov/resources/codesystem/adjudication"}]}},{"amount":{"code":"USD","system":"urn:iso:std:iso:4217","value":140.52},"category":{"coding":[{"code":"https://bluebutton.cms.gov/resources/variables/line_sbmtd_chrg_amt","display":"Line Submitted Charge Amount","system":"https://bluebutton.cms.gov/resources/codesystem/adjudication"}]}},{"amount":{"code":"USD","system":"urn:iso:std:iso:4217","value":140.52},"category":{"coding":[{"code":"https://bluebutton.cms.gov/resources/variables/line_alowd_chrg_amt","display":"Line Allowed Charge Amount","system":"https://bluebutton.cms.gov/resources/codesystem/adjudication"}]}},{"amount":{"code":"USD","system":"urn:iso:std:iso:4217","value":0},"category":{"coding":[{"code":"https://bluebutton.cms.gov/resources/variables/line_bene_ptb_ddctbl_amt","display":"Line Beneficiary Part B Deductible Amount","system":"https://bluebutton.cms.gov/resources/codesystem/adjudication"}]}},{"category":{"coding":[{"code":"https://bluebutton.cms.gov/resources/variables/line_prcsg_ind_cd","display":"Line Processing Indicator Code","system":"https://bluebutton.cms.gov/resources/codesystem/adjudication"}]},"reason":{"coding":[{"code":"A","display":"Allowed","system":"https://bluebutton.cms.gov/resources/variables/line_prcsg_ind_cd"}]}}],"category":{"coding":[{"code":"1","display":"Medical care","system":"https://bluebutton.cms.gov/resources/variables/line_cms_type_srvc_cd"}]},"informationLinkId":[1],"locationCodeableConcept":{"coding":[{"code":"21","display":"Inpatient Hospital","system":"https://bluebutton.cms.gov/resources/variables/line_place_of_srvc_cd"}]},"net":{"code":"USD","system":"urn:iso:std:iso:4217","value":140.52},"sequence":2,"servicedPeriod":{"end":"2016-03-18T07:52:52-04:00","start":"2016-03-18T07:22:52-04:00"}},{"adjudication":[{"amount":{"code":"USD","system":"urn:iso:std:iso:4217","value":28.104000000000003},"category":{"coding":[{"code":"https://bluebutton.cms.gov/resources/variables/line_coinsrnc_amt","display":"Line Beneficiary Coinsurance Amount","system":"https://bluebutton.cms.gov/resources/codesystem/adjudication"}]}},{"amount":{"code":"USD","system":"urn:iso:std:iso:4217","value":112.41600000000001},"category":{"coding":[{"code":"https://bluebutton.cms.gov/resources/variables/line_prvdr_pmt_amt","display":"Line Provider Payment Amount","system":"https://bluebutton.cms.gov/resources/codesystem/adjudication"}]}},{"amount":{"code":"USD","system":"urn:iso:std:iso:4217","value":140.52},"category":{"coding":[{"code":"https://bluebutton.cms.gov/resources/variables/line_sbmtd_chrg_amt","display":"Line Submitted Charge Amount","system":"https://bluebutton.cms.gov/resources/codesystem/adjudication"}]}},{"amount":{"code":"USD","system":"urn:iso:std:iso:4217","value":140.52},"category":{"coding":[{"code":"https://bluebutton.cms.gov/resources/variables/line_alowd_chrg_amt","display":"Line Allowed Charge Amount","system":"https://bluebutton.cms.gov/resources/codesystem/adjudication"}]}},{"amount":{"code":"USD","system":"urn:iso:std:iso:4217","value":0},"category":{"coding":[{"code":"https://bluebutton.cms.gov/resources/variables/line_bene_ptb_ddctbl_amt","display":"Line Beneficiary Part B Deductible Amount","system":"https://bluebutton.cms.gov/resources/codesystem/adjudication"}]}},{"category":{"coding":[{"code":"https://bluebutton.cms.gov/resources/variables/line_prcsg_ind_cd","display":"Line Processing Indicator Code","system":"https://bluebutton.cms.gov/resources/codesystem/adjudication"}]},"reason":{"coding":[{"code":"A","display":"Allowed","system":"https://bluebutton.cms.gov/resources/variables/line_prcsg_ind_cd"}]}}],"category":{"coding":[{"code":"1","display":"Medical care","system":"https://bluebutton.cms.gov/resources/variables/line_cms_type_srvc_cd"}]},"informationLinkId":[2],"locationCodeableConcept":{"coding":[{"code":"21","display":"Inpatient Hospital","system":"https://bluebutton.cms.gov/resources/variables/line_place_of_srvc_cd"}]},"net":{"code":"USD","system":"urn:iso:std:iso:4217","value":140.52},"sequence":3,"servicedPeriod":{"end":"2016-03-18T07:52:52-04:00","start":"2016-03-18T07:22:52-04:00"}},{"adjudication":[{"amount":{"code":"USD","system":"urn:iso:std:iso:4217","value":72.866},"category":{"coding":[{"code":"https://bluebutton.cms.gov/resources/variables/line_coinsrnc_amt","display":"Line Beneficiary Coinsurance Amount","system":"https://bluebutton.cms.gov/resources/codesystem/adjudication"}]}},{"amount":{"code":"USD","system":"urn:iso:std:iso:4217","value":291.464},"category":{"coding":[{"code":"https://bluebutton.cms.gov/resources/variables/line_prvdr_pmt_amt","display":"Line Provider Payment Amount","system":"https://bluebutton.cms.gov/resources/codesystem/adjudication"}]}},{"amount":{"code":"USD","system":"urn:iso:std:iso:4217","value":364.33},"category":{"coding":[{"code":"https://bluebutton.cms.gov/resources/variables/line_sbmtd_chrg_amt","display":"Line Submitted Charge Amount","system":"https://bluebutton.cms.gov/resources/codesystem/adjudication"}]}},{"amount":{"code":"USD","system":"urn:iso:std:iso:4217","value":364.33},"category":{"coding":[{"code":"https://bluebutton.cms.gov/resources/variables/line_alowd_chrg_amt","display":"Line Allowed Charge Amount","system":"https://bluebutton.cms.gov/resources/codesystem/adjudication"}]}},{"amount":{"code":"USD","system":"urn:iso:std:iso:4217","value":0},"category":{"coding":[{"code":"https://bluebutton.cms.gov/resources/variables/line_bene_ptb_ddctbl_amt","display":"Line Beneficiary Part B Deductible Amount","system":"https://bluebutton.cms.gov/resources/codesystem/adjudication"}]}},{"category":{"coding":[{"code":"https://bluebutton.cms.gov/resources/variables/line_prcsg_ind_cd","display":"Line Processing Indicator Code","system":"https://bluebutton.cms.gov/resources/codesystem/adjudication"}]},"reason":{"coding":[{"code":"A","display":"Allowed","system":"https://bluebutton.cms.gov/resources/variables/line_prcsg_ind_cd"}]}}],"category":{"coding":[{"code":"1","display":"Medical care","system":"https://bluebutton.cms.gov/resources/variables/line_cms_type_srvc_cd"}]},"locationCodeableConcept":{"coding":[{"code":"21","display":"Inpatient Hospital","system":"https://bluebutton.cms.gov/resources/variables/line_place_of_srvc_cd"}]},"net":{"code":"USD","system":"urn:iso:std:iso:4217","value":364.33},"sequence":4,"service":{"coding":[{"code":"428191000124101","system":"http://snomed.info/sct","version":"v1"}]},"servicedPeriod":{"end":"2016-03-18T07:52:52-04:00","start":"2016-03-18T07:22:52-04:00"}}],"meta":{"lastUpdated":"2019-04-09T11:41:08.889382+00:00","versionId":"MTU1NDgxMDA2ODg4OTM4MjAwMA"},"organization":{"identifier":{"value":"98fb6748-cc45-442a-9093-83c34db1a3d0"}},"patient":{"reference":"Patient/00d2188b-1561-4950-a95e-e88e01038377"},"payment":{"amount":{"code":"USD","system":"urn:iso:std:iso:4217","value":516.296}},"provider":{"identifier":{"value":"34ded5d7-309b-49de-92d4-b372bcc5ca6c"}},"referral":{"reference":"#1"},"resourceType":"ExplanationOfBenefit","status":"active","totalCost":{"code":"USD","system":"urn:iso:std:iso:4217","value":770.37},"type":{"coding":[{"code":"71","display":"Local carrier non-durable medical equipment, prosthetics, orthotics, and supplies (DMEPOS) claim","system":"https://bluebutton.cms.gov/resources/variables/nch_clm_type_cd"},{"code":"CARRIER","display":"EOB Type","system":"https://bluebutton.cms.gov/resources/codesystem/eob-type"},{"code":"professional","display":"Claim Type","system":"http://hl7.org/fhir/ex-claimtype"},{"code":"O","display":"Part B physician/supplier claim record (processed by local carriers; can include DMEPOS services)","system":"https://bluebutton.cms.gov/resources/variables/nch_near_line_rec_ident_cd"}]}}},{"resource":{"billablePeriod":{"end":"2016-03-13T07:37:52-04:00","start":"2015-03-13T07:37:52-04:00"},"careTeam":[{"provider":{"identifier":{"system":"http://hl7.org/fhir/sid/us-npi","value":"99999999"}},"role":{"coding":[{"code":"primary","display":"Primary Care Practitioner","system":"http://hl7.org/fhir/claimcareteamrole"}]},"sequence":1}],"claim":{"reference":"Claim/ff1bc0d1-d815-42e7-bf98-5646c8cc7f14"},"contained":[{"id":"1","intent":"order","recipient":[{"identifier":{"system":"http://hl7.org/fhir/sid/us-npi","value":"99999999"}}],"requester":{"agent":{"identifier":{"system":"http://hl7.org/fhir/sid/us-npi","value":"99999999"}}},"resourceType":"ReferralRequest","status":"completed","subject":{"reference":"Patient/00d2188b-1561-4950-a95e-e88e01038377"}},{"id":"coverage","resourceType":"Coverage","type":{"text":"private"}}],"created":"2015-03-13T07:37:52-04:00","id":"cd8578a9-c49a-472c-b665-aec00872a22f","identifier":[{"system":"https://bluebutton.cms.gov/resources/variables/clm_id","value":"ff1bc0d1-d815-42e7-bf98-5646c8cc7f14"},{"system":"https://bluebutton.cms.gov/resources/identifier/claim-group","value":"99999999999"}],"insurance":{"coverage":{"reference":"#coverage"}},"item":[{"category":{"coding":[{"code":"1","display":"Medical care","system":"https://bluebutton.cms.gov/resources/variables/line_cms_type_srvc_cd"}]},"encounter":[{"reference":"Encounter/c5f3a94d-dc2a-40dd-9d79-08b1033142d5"}],"locationCodeableConcept":{"coding":[{"code":"21","display":"Inpatient Hospital","system":"https://bluebutton.cms.gov/resources/variables/line_place_of_srvc_cd"}]},"sequence":1,"servicedPeriod":{"end":"2015-03-13T07:37:52-04:00","start":"2015-03-13T07:22:52-04:00"}},{"adjudication":[{"amount":{"code":"USD","system":"urn:iso:std:iso:4217","value":28.104000000000003},"category":{"coding":[{"code":"https://bluebutton.cms.gov/resources/variables/line_coinsrnc_amt","display":"Line Beneficiary Coinsurance Amount","system":"https://bluebutton.cms.gov/resources/codesystem/adjudication"}]}},{"amount":{"code":"USD","system":"urn:iso:std:iso:4217","value":112.41600000000001},"category":{"coding":[{"code":"https://bluebutton.cms.gov/resources/variables/line_prvdr_pmt_amt","display":"Line Provider Payment Amount","system":"https://bluebutton.cms.gov/resources/codesystem/adjudication"}]}},{"amount":{"code":"USD","system":"urn:iso:std:iso:4217","value":140.52},"category":{"coding":[{"code":"https://bluebutton.cms.gov/resources/variables/line_sbmtd_chrg_amt","display":"Line Submitted Charge Amount","system":"https://bluebutton.cms.gov/resources/codesystem/adjudication"}]}},{"amount":{"code":"USD","system":"urn:iso:std:iso:4217","value":140.52},"category":{"coding":[{"code":"https://bluebutton.cms.gov/resources/variables/line_alowd_chrg_amt","display":"Line Allowed Charge Amount","system":"https://bluebutton.cms.gov/resources/codesystem/adjudication"}]}},{"amount":{"code":"USD","system":"urn:iso:std:iso:4217","value":0},"category":{"coding":[{"code":"https://bluebutton.cms.gov/resources/variables/line_bene_ptb_ddctbl_amt","display":"Line Beneficiary Part B Deductible Amount","system":"https://bluebutton.cms.gov/resources/codesystem/adjudication"}]}},{"category":{"coding":[{"code":"https://bluebutton.cms.gov/resources/variables/line_prcsg_ind_cd","display":"Line Processing Indicator Code","system":"https://bluebutton.cms.gov/resources/codesystem/adjudication"}]},"reason":{"coding":[{"code":"A","display":"Allowed","system":"https://bluebutton.cms.gov/resources/variables/line_prcsg_ind_cd"}]}}],"category":{"coding":[{"code":"1","display":"Medical care","system":"https://bluebutton.cms.gov/resources/variables/line_cms_type_srvc_cd"}]},"informationLinkId":[1],"locationCodeableConcept":{"coding":[{"code":"21","display":"Inpatient Hospital","system":"https://bluebutton.cms.gov/resources/variables/line_place_of_srvc_cd"}]},"net":{"code":"USD","system":"urn:iso:std:iso:4217","value":140.52},"sequence":2,"servicedPeriod":{"end":"2015-03-13T07:37:52-04:00","start":"2015-03-13T07:22:52-04:00"}}],"meta":{"lastUpdated":"2019-04-09T11:41:07.863609+00:00","versionId":"MTU1NDgxMDA2Nzg2MzYwOTAwMA"},"organization":{"identifier":{"value":"98fb6748-cc45-442a-9093-83c34db1a3d0"}},"patient":{"reference":"Patient/00d2188b-1561-4950-a95e-e88e01038377"},"payment":{"amount":{"code":"USD","system":"urn:iso:std:iso:4217","value":112.41600000000001}},"provider":{"identifier":{"value":"34ded5d7-309b-49de-92d4-b372bcc5ca6c"}},"referral":{"reference":"#1"},"resourceType":"ExplanationOfBenefit","status":"active","totalCost":{"code":"USD","system":"urn:iso:std:iso:4217","value":265.52},"type":{"coding":[{"code":"71","display":"Local carrier non-durable medical equipment, prosthetics, orthotics, and supplies (DMEPOS) claim","system":"https://bluebutton.cms.gov/resources/variables/nch_clm_type_cd"},{"code":"CARRIER","display":"EOB Type","system":"https://bluebutton.cms.gov/resources/codesystem/eob-type"},{"code":"professional","display":"Claim Type","system":"http://hl7.org/fhir/ex-claimtype"},{"code":"O","display":"Part B physician/supplier claim record (processed by local carriers; can include DMEPOS services)","system":"https://bluebutton.cms.gov/resources/variables/nch_near_line_rec_ident_cd"}]}}},{"resource":{"billablePeriod":{"end":"2014-04-12T07:58:52-04:00","extension":[{"url":"https://bluebutton.cms.gov/assets/ig/StructureDefinition-bluebutton-outpatient-claim-query-cd-extension","valueCoding":{"code":"3","display":"Final Bill","system":"https://bluebutton.cms.gov/assets/ig/ValueSet-claim-query-cd"}}],"start":"2013-04-12T07:58:52-04:00"},"careTeam":[{"provider":{"identifier":{"system":"http://hl7.org/fhir/sid/us-npi","value":"99999999"}},"role":{"coding":[{"code":"primary","display":"Primary Care Practitioner","system":"http://hl7.org/fhir/claimcareteamrole"}]},"sequence":1}],"contained":[{"id":"coverage","resourceType":"Coverage","type":{"text":"private"}}],"extension":[{"url":"https://bluebutton.cms.gov/assets/ig/StructureDefinition-bluebutton-outpatient-nch-profnl-cmpnt-chrg-amt-extension","valueMoney":{"code":"USD","system":"urn:iso:std:iso:4217","value":0}},{"url":"https://bluebutton.cms.gov/assets/ig/StructureDefinition-bluebutton-outpatient-nch-bene-ptb-ddctbl-amt-extension","valueMoney":{"code":"USD","system":"urn:iso:std:iso:4217","value":0}},{"url":"https://bluebutton.cms.gov/assets/ig/StructureDefinition-bluebutton-outpatient-nch-bene-ptb-coinsrnc-amt-extension","valueMoney":{"code":"USD","system":"urn:iso:std:iso:4217","value":0}},{"url":"https://bluebutton.cms.gov/assets/ig/StructureDefinition-bluebutton-outpatient-clm-op-prvdr-pmt-amt-extension","valueMoney":{"code":"USD","system":"urn:iso:std:iso:4217","value":0}},{"url":"https://bluebutton.cms.gov/assets/ig/StructureDefinition-bluebutton-outpatient-clm-op-bene-pmt-amt-extension","valueMoney":{"code":"USD","system":"urn:iso:std:iso:4217","value":0}},{"url":"https://bluebutton.cms.gov/assets/ig/StructureDefinition-bluebutton-outpatient-nch-bene-blood-ddctbl-lblty-am-extension","valueMoney":{"code":"USD","system":"urn:iso:std:iso:4217","value":0}},{"url":"https://bluebutton.cms.gov/assets/ig/StructureDefinition-bluebutton-outpatient-clm-mdcr-non-pmt-rsn-cd-extension","valueCoding":{"code":"N","display":"All other reasons for non-payment","system":"https://bluebutton.cms.gov/assets/ig/CodeSystem-clm-mdcr-non-pmt-rsn-cd"}},{"url":"https://bluebutton.cms.gov/assets/ig/StructureDefinition-bluebutton-outpatient-prpayamt-extension","valueMoney":{"code":"USD","system":"urn:iso:std:iso:4217","value":0}},{"url":"https://bluebutton.cms.gov/assets/ig/StructureDefinition-bluebutton-outpatient-fi-num-extension","valueIdentifier":{"system":"https://bluebutton.cms.gov/assets/ig/CodeSystem-fi-num","value":"002000"}}],"id":"d01c24dc-d9aa-4187-88e7-038937336d1e","identifier":[{"system":"https://bluebutton.cms.gov/resources/variables/clm_id","value":"fa16bc4b-b61a-41ad-a65d-fe9196b6df88"},{"system":"https://bluebutton.cms.gov/resources/identifier/claim-group","value":"99999999999"}],"insurance":{"coverage":{"reference":"#coverage"}},"item":[{"extension":[{"url":"https://bluebutton.cms.gov/assets/ig/StructureDefinition-bluebutton-outpatient-rev-cntr-ndc-qty-extension","valueQuantity":{"value":0}}],"locationCodeableConcept":{"coding":[{"code":"21","display":"Inpatient Hospital","system":"https://bluebutton.cms.gov/resources/variables/line_place_of_srvc_cd"}]},"sequence":1},{"adjudication":[{"amount":{"code":"USD","system":"urn:iso:std:iso:4217","value":2629.3080000000004},"category":{"coding":[{"code":"https://bluebutton.cms.gov/resources/variables/line_coinsrnc_amt","display":"Line Beneficiary Coinsurance Amount","system":"https://bluebutton.cms.gov/resources/codesystem/adjudication"}]}},{"amount":{"code":"USD","system":"urn:iso:std:iso:4217","value":10517.232000000002},"category":{"coding":[{"code":"https://bluebutton.cms.gov/resources/variables/line_prvdr_pmt_amt","display":"Line Provider Payment Amount","system":"https://bluebutton.cms.gov/resources/codesystem/adjudication"}]}},{"amount":{"code":"USD","system":"urn:iso:std:iso:4217","value":13146.54},"category":{"coding":[{"code":"https://bluebutton.cms.gov/resources/variables/line_sbmtd_chrg_amt","display":"Line Submitted Charge Amount","system":"https://bluebutton.cms.gov/resources/codesystem/adjudication"}]}},{"amount":{"code":"USD","system":"urn:iso:std:iso:4217","value":13146.54},"category":{"coding":[{"code":"https://bluebutton.cms.gov/resources/variables/line_alowd_chrg_amt","display":"Line Allowed Charge Amount","system":"https://bluebutton.cms.gov/resources/codesystem/adjudication"}]}},{"amount":{"code":"USD","system":"urn:iso:std:iso:4217","value":0},"category":{"coding":[{"code":"https://bluebutton.cms.gov/resources/variables/line_bene_ptb_ddctbl_amt","display":"Line Beneficiary Part B Deductible Amount","system":"https://bluebutton.cms.gov/resources/codesystem/adjudication"}]}},{"category":{"coding":[{"code":"https://bluebutton.cms.gov/resources/variables/line_prcsg_ind_cd","display":"Line Processing Indicator Code","system":"https://bluebutton.cms.gov/resources/codesystem/adjudication"}]}}],"extension":[{"url":"https://bluebutton.cms.gov/assets/ig/StructureDefinition-bluebutton-outpatient-rev-cntr-ndc-qty-extension","valueQuantity":{"value":0}}],"locationCodeableConcept":{"coding":[{"code":"21","display":"Inpatient Hospital","system":"https://bluebutton.cms.gov/resources/variables/line_place_of_srvc_cd"}]},"sequence":2,"service":{"coding":[{"code":"755621000000101","system":"http://snomed.info/sct","version":"v1"}],"extension":[{"url":"https://bluebutton.cms.gov/assets/ig/StructureDefinition-bluebutton-outpatient-rev-cntr-ide-ndc-upc-num-extension","valueCoding":{"code":"0624","display":"Dummy","system":"https://www.accessdata.fda.gov/scripts/cder/ndc"}}]}}],"meta":{"lastUpdated":"2019-04-09T11:41:07.846955+00:00","profile":["https://bluebutton.cms.gov/assets/ig/StructureDefinition-bluebutton-outpatient-claim"],"versionId":"MTU1NDgxMDA2Nzg0Njk1NTAwMA"},"organization":{"identifier":{"value":"98fb6748-cc45-442a-9093-83c34db1a3d0"}},"patient":{"reference":"Patient/00d2188b-1561-4950-a95e-e88e01038377"},"payment":{"amount":{"code":"USD","system":"urn:iso:std:iso:4217","value":10517.232000000002}},"provider":{"identifier":{"value":"34ded5d7-309b-49de-92d4-b372bcc5ca6c"}},"resourceType":"ExplanationOfBenefit","status":"active","totalCost":{"code":"USD","system":"urn:iso:std:iso:4217","value":13271.54},"type":{"coding":[{"code":"71","display":"Local carrier non-durable medical equipment, prosthetics, orthotics, and supplies (DMEPOS) claim","system":"https://bluebutton.cms.gov/resources/variables/nch_clm_type_cd"},{"code":"CARRIER","display":"EOB Type","system":"https://bluebutton.cms.gov/resources/codesystem/eob-type"},{"code":"professional","display":"Claim Type","system":"http://hl7.org/fhir/ex-claimtype"},{"code":"O","display":"Part B physician/supplier claim record (processed by local carriers; can include DMEPOS services)","system":"https://bluebutton.cms.gov/resources/variables/nch_near_line_rec_ident_cd"}]}}},{"resource":{"billablePeriod":{"end":"2010-05-15T07:37:52-04:00","start":"2009-05-15T07:37:52-04:00"},"careTeam":[{"provider":{"identifier":{"system":"http://hl7.org/fhir/sid/us-npi","value":"99999999"}},"role":{"coding":[{"code":"primary","display":"Primary Care Practitioner","system":"http://hl7.org/fhir/claimcareteamrole"}]},"sequence":1}],"claim":{"reference":"Claim/b99786f9-5545-45eb-ab82-6f510d099e12"},"contained":[{"id":"1","intent":"order","recipient":[{"identifier":{"system":"http://hl7.org/fhir/sid/us-npi","value":"99999999"}}],"requester":{"agent":{"identifier":{"system":"http://hl7.org/fhir/sid/us-npi","value":"99999999"}}},"resourceType":"ReferralRequest","status":"completed","subject":{"reference":"Patient/00d2188b-1561-4950-a95e-e88e01038377"}},{"id":"coverage","resourceType":"Coverage","type":{"text":"private"}}],"created":"2009-05-15T07:37:52-04:00","id":"e5efe9a0-aa66-4898-b299-7fb5dba0724f","identifier":[{"system":"https://bluebutton.cms.gov/resources/variables/clm_id","value":"b99786f9-5545-45eb-ab82-6f510d099e12"},{"system":"https://bluebutton.cms.gov/resources/identifier/claim-group","value":"99999999999"}],"insurance":{"coverage":{"reference":"#coverage"}},"item":[{"category":{"coding":[{"code":"1","display":"Medical care","system":"https://bluebutton.cms.gov/resources/variables/line_cms_type_srvc_cd"}]},"encounter":[{"reference":"Encounter/dfac7f81-11da-4118-8d82-10d664486b37"}],"locationCodeableConcept":{"coding":[{"code":"21","display":"Inpatient Hospital","system":"https://bluebutton.cms.gov/resources/variables/line_place_of_srvc_cd"}]},"sequence":1,"servicedPeriod":{"end":"2009-05-15T07:37:52-04:00","start":"2009-05-15T07:22:52-04:00"}},{"adjudication":[{"amount":{"code":"USD","system":"urn:iso:std:iso:4217","value":28.104000000000003},"category":{"coding":[{"code":"https://bluebutton.cms.gov/resources/variables/line_coinsrnc_amt","display":"Line Beneficiary Coinsurance Amount","system":"https://bluebutton.cms.gov/resources/codesystem/adjudication"}]}},{"amount":{"code":"USD","system":"urn:iso:std:iso:4217","value":112.41600000000001},"category":{"coding":[{"code":"https://bluebutton.cms.gov/resources/variables/line_prvdr_pmt_amt","display":"Line Provider Payment Amount","system":"https://bluebutton.cms.gov/resources/codesystem/adjudication"}]}},{"amount":{"code":"USD","system":"urn:iso:std:iso:4217","value":140.52},"category":{"coding":[{"code":"https://bluebutton.cms.gov/resources/variables/line_sbmtd_chrg_amt","display":"Line Submitted Charge Amount","system":"https://bluebutton.cms.gov/resources/codesystem/adjudication"}]}},{"amount":{"code":"USD","system":"urn:iso:std:iso:4217","value":140.52},"category":{"coding":[{"code":"https://bluebutton.cms.gov/resources/variables/line_alowd_chrg_amt","display":"Line Allowed Charge Amount","system":"https://bluebutton.cms.gov/resources/codesystem/adjudication"}]}},{"amount":{"code":"USD","system":"urn:iso:std:iso:4217","value":0},"category":{"coding":[{"code":"https://bluebutton.cms.gov/resources/variables/line_bene_ptb_ddctbl_amt","display":"Line Beneficiary Part B Deductible Amount","system":"https://bluebutton.cms.gov/resources/codesystem/adjudication"}]}},{"category":{"coding":[{"code":"https://bluebutton.cms.gov/resources/variables/line_prcsg_ind_cd","display":"Line Processing Indicator Code","system":"https://bluebutton.cms.gov/resources/codesystem/adjudication"}]},"reason":{"coding":[{"code":"A","display":"Allowed","system":"https://bluebutton.cms.gov/resources/variables/line_prcsg_ind_cd"}]}}],"category":{"coding":[{"code":"1","display":"Medical care","system":"https://bluebutton.cms.gov/resources/variables/line_cms_type_srvc_cd"}]},"informationLinkId":[1],"locationCodeableConcept":{"coding":[{"code":"21","display":"Inpatient Hospital","system":"https://bluebutton.cms.gov/resources/variables/line_place_of_srvc_cd"}]},"net":{"code":"USD","system":"urn:iso:std:iso:4217","value":140.52},"sequence":2,"servicedPeriod":{"end":"2009-05-15T07:37:52-04:00","start":"2009-05-15T07:22:52-04:00"}}],"meta":{"lastUpdated":"2019-04-09T11:41:05.816479+00:00","versionId":"MTU1NDgxMDA2NTgxNjQ3OTAwMA"},"organization":{"identifier":{"value":"98fb6748-cc45-442a-9093-83c34db1a3d0"}},"patient":{"reference":"Patient/00d2188b-1561-4950-a95e-e88e01038377"},"payment":{"amount":{"code":"USD","system":"urn:iso:std:iso:4217","value":112.41600000000001}},"provider":{"identifier":{"value":"34ded5d7-309b-49de-92d4-b372bcc5ca6c"}},"referral":{"reference":"#1"},"resourceType":"ExplanationOfBenefit","status":"active","totalCost":{"code":"USD","system":"urn:iso:std:iso:4217","value":265.52},"type":{"coding":[{"code":"71","display":"Local carrier non-durable medical equipment, prosthetics, orthotics, and supplies (DMEPOS) claim","system":"https://bluebutton.cms.gov/resources/variables/nch_clm_type_cd"},{"code":"CARRIER","display":"EOB Type","system":"https://bluebutton.cms.gov/resources/codesystem/eob-type"},{"code":"professional","display":"Claim Type","system":"http://hl7.org/fhir/ex-claimtype"},{"code":"O","display":"Part B physician/supplier claim record (processed by local carriers; can include DMEPOS services)","system":"https://bluebutton.cms.gov/resources/variables/nch_near_line_rec_ident_cd"}]}}},{"resource":{"billablePeriod":{"end":"2010-02-13T07:07:52-05:00","extension":[{"url":"https://bluebutton.cms.gov/assets/ig/StructureDefinition-bluebutton-inpatient-claim-query-cd-extension","valueCoding":{"code":"3","display":"Final Bill","system":"https://bluebutton.cms.gov/assets/ig/ValueSet-claim-query-cd"}}],"start":"2009-02-13T07:07:52-05:00"},"careTeam":[{"provider":{"identifier":{"system":"http://hl7.org/fhir/sid/us-npi","value":"99999999"}},"role":{"coding":[{"code":"primary","display":"Primary Care Practitioner","system":"http://hl7.org/fhir/claimcareteamrole"}]},"sequence":1}],"contained":[{"id":"coverage","resourceType":"Coverage","type":{"text":"private"}}],"extension":[{"url":"https://bluebutton.cms.gov/assets/ig/StructureDefinition-bluebutton-inpatient-ime-op-clm-val-amt-extension","valueMoney":{"code":"USD","system":"urn:iso:std:iso:4217","value":400}},{"url":"https://bluebutton.cms.gov/assets/ig/StructureDefinition-bluebutton-inpatient-dsh-op-clm-val-amt-extension","valueMoney":{"code":"USD","system":"urn:iso:std:iso:4217","value":0}},{"url":"https://bluebutton.cms.gov/assets/ig/StructureDefinition-bluebutton-inpatient-clm-pass-thru-per-diem-amt-extension","valueMoney":{"code":"USD","system":"urn:iso:std:iso:4217","value":0}},{"url":"https://bluebutton.cms.gov/assets/ig/StructureDefinition-bluebutton-inpatient-nch-profnl-cmpnt-chrg-amt-extension","valueMoney":{"code":"USD","system":"urn:iso:std:iso:4217","value":0}},{"url":"https://bluebutton.cms.gov/assets/ig/StructureDefinition-bluebutton-inpatient-clm-tot-pps-cptl-amt-extension","valueMoney":{"code":"USD","system":"urn:iso:std:iso:4217","value":0}},{"url":"https://bluebutton.cms.gov/assets/ig/StructureDefinition-bluebutton-inpatient-nch-bene-ip-ddctbl-amt-extension","valueMoney":{"code":"USD","system":"urn:iso:std:iso:4217","value":0}},{"url":"https://bluebutton.cms.gov/assets/ig/StructureDefinition-bluebutton-inpatient-nch-bene-pta-coinsrnc-lblty-amt-extension","valueMoney":{"code":"USD","system":"urn:iso:std:iso:4217","value":0}},{"url":"https://bluebutton.cms.gov/assets/ig/StructureDefinition-bluebutton-inpatient-nch-ip-ncvrd-chrg-amt-extension","valueMoney":{"code":"USD","system":"urn:iso:std:iso:4217","value":0}},{"url":"https://bluebutton.cms.gov/assets/ig/StructureDefinition-bluebutton-inpatient-nch-ip-tot-ddctn-amt-extension","valueMoney":{"code":"USD","system":"urn:iso:std:iso:4217","value":0}},{"url":"https://bluebutton.cms.gov/assets/ig/StructureDefinition-bluebutton-inpatient-clm-pps-cptl-dsprprtnt-shr-amt-extension","valueMoney":{"code":"USD","system":"urn:iso:std:iso:4217","value":0}},{"url":"https://bluebutton.cms.gov/assets/ig/StructureDefinition-bluebutton-inpatient-clm-pps-cptl-excptn-amt-extension","valueMoney":{"code":"USD","system":"urn:iso:std:iso:4217","value":0}},{"url":"https://bluebutton.cms.gov/assets/ig/StructureDefinition-bluebutton-inpatient-clm-pps-cptl-fsp-amt-extension","valueMoney":{"code":"USD","system":"urn:iso:std:iso:4217","value":0}},{"url":"https://bluebutton.cms.gov/assets/ig/StructureDefinition-bluebutton-inpatient-clm-pps-cptl-ime-amt-extension","valueMoney":{"code":"USD","system":"urn:iso:std:iso:4217","value":400}},{"url":"https://bluebutton.cms.gov/assets/ig/StructureDefinition-bluebutton-inpatient-clm-pps-cptl-outlier-amt-extension","valueMoney":{"code":"USD","system":"urn:iso:std:iso:4217","value":0}},{"url":"https://bluebutton.cms.gov/assets/ig/StructureDefinition-bluebutton-inpatient-clm-pps-old-cptl-hld-hrmls-amt-extension","valueMoney":{"code":"USD","system":"urn:iso:std:iso:4217","value":0}},{"url":"https://bluebutton.cms.gov/assets/ig/StructureDefinition-bluebutton-inpatient-nch-drg-outlier-aprvd-pmt-amt-extension","valueMoney":{"code":"USD","system":"urn:iso:std:iso:4217","value":0}},{"url":"https://bluebutton.cms.gov/assets/ig/StructureDefinition-bluebutton-inpatient-nch-bene-blood-ddctbl-lblty-am-extension","valueMoney":{"code":"USD","system":"urn:iso:std:iso:4217","value":0}},{"url":"https://bluebutton.cms.gov/assets/ig/StructureDefinition-bluebutton-inpatient-clm-mdcr-non-pmt-rsn-cd-extension","valueCoding":{"code":"N","display":"All other reasons for non-payment","system":"https://bluebutton.cms.gov/assets/ig/CodeSystem-clm-mdcr-non-pmt-rsn-cd"}},{"url":"https://bluebutton.cms.gov/assets/ig/StructureDefinition-bluebutton-inpatient-prpayamt-extension","valueMoney":{"code":"USD","system":"urn:iso:std:iso:4217","value":0}},{"url":"https://bluebutton.cms.gov/assets/ig/StructureDefinition-bluebutton-inpatient-fi-num-extension","valueIdentifier":{"system":"https://bluebutton.cms.gov/assets/ig/CodeSystem-fi-num","value":"002000"}}],"id":"f1aaa7ca-843d-469d-ae03-2b551ec97404","identifier":[{"system":"https://bluebutton.cms.gov/resources/variables/clm_id","value":"9d024bd7-51b9-420b-a5f3-b30e10964e53"},{"system":"https://bluebutton.cms.gov/resources/identifier/claim-group","value":"99999999999"}],"insurance":{"coverage":{"reference":"#coverage"}},"item":[{"extension":[{"url":"https://bluebutton.cms.gov/assets/ig/StructureDefinition-bluebutton-inpatient-rev-cntr-ndc-qty-extension","valueQuantity":{"value":0}}],"locationCodeableConcept":{"coding":[{"code":"21","display":"Inpatient Hospital","system":"https://bluebutton.cms.gov/resources/variables/line_place_of_srvc_cd"}]},"sequence":1},{"adjudication":[{"amount":{"code":"USD","system":"urn:iso:std:iso:4217","value":1860.3380000000002},"category":{"coding":[{"code":"https://bluebutton.cms.gov/resources/variables/line_coinsrnc_amt","display":"Line Beneficiary Coinsurance Amount","system":"https://bluebutton.cms.gov/resources/codesystem/adjudication"}]}},{"amount":{"code":"USD","system":"urn:iso:std:iso:4217","value":7441.352000000001},"category":{"coding":[{"code":"https://bluebutton.cms.gov/resources/variables/line_prvdr_pmt_amt","display":"Line Provider Payment Amount","system":"https://bluebutton.cms.gov/resources/codesystem/adjudication"}]}},{"amount":{"code":"USD","system":"urn:iso:std:iso:4217","value":9301.69},"category":{"coding":[{"code":"https://bluebutton.cms.gov/resources/variables/line_sbmtd_chrg_amt","display":"Line Submitted Charge Amount","system":"https://bluebutton.cms.gov/resources/codesystem/adjudication"}]}},{"amount":{"code":"USD","system":"urn:iso:std:iso:4217","value":9301.69},"category":{"coding":[{"code":"https://bluebutton.cms.gov/resources/variables/line_alowd_chrg_amt","display":"Line Allowed Charge Amount","system":"https://bluebutton.cms.gov/resources/codesystem/adjudication"}]}},{"amount":{"code":"USD","system":"urn:iso:std:iso:4217","value":0},"category":{"coding":[{"code":"https://bluebutton.cms.gov/resources/variables/line_bene_ptb_ddctbl_amt","display":"Line Beneficiary Part B Deductible Amount","system":"https://bluebutton.cms.gov/resources/codesystem/adjudication"}]}},{"category":{"coding":[{"code":"https://bluebutton.cms.gov/resources/variables/line_prcsg_ind_cd","display":"Line Processing Indicator Code","system":"https://bluebutton.cms.gov/resources/codesystem/adjudication"}]}}],"extension":[{"url":"https://bluebutton.cms.gov/assets/ig/StructureDefinition-bluebutton-inpatient-rev-cntr-ndc-qty-extension","valueQuantity":{"value":0}}],"locationCodeableConcept":{"coding":[{"code":"21","display":"Inpatient Hospital","system":"https://bluebutton.cms.gov/resources/variables/line_place_of_srvc_cd"}]},"sequence":2,"service":{"coding":[{"code":"274804006","system":"http://snomed.info/sct","version":"v1"}]}},{"adjudication":[{"amount":{"code":"USD","system":"urn:iso:std:iso:4217","value":1092.8799999999999},"category":{"coding":[{"code":"https://bluebutton.cms.gov/resources/variables/line_coinsrnc_amt","display":"Line Beneficiary Coinsurance Amount","system":"https://bluebutton.cms.gov/resources/codesystem/adjudication"}]}},{"amount":{"code":"USD","system":"urn:iso:std:iso:4217","value":4371.5199999999995},"category":{"coding":[{"code":"https://bluebutton.cms.gov/resources/variables/line_prvdr_pmt_amt","display":"Line Provider Payment Amount","system":"https://bluebutton.cms.gov/resources/codesystem/adjudication"}]}},{"amount":{"code":"USD","system":"urn:iso:std:iso:4217","value":5464.4},"category":{"coding":[{"code":"https://bluebutton.cms.gov/resources/variables/line_sbmtd_chrg_amt","display":"Line Submitted Charge Amount","system":"https://bluebutton.cms.gov/resources/codesystem/adjudication"}]}},{"amount":{"code":"USD","system":"urn:iso:std:iso:4217","value":5464.4},"category":{"coding":[{"code":"https://bluebutton.cms.gov/resources/variables/line_alowd_chrg_amt","display":"Line Allowed Charge Amount","system":"https://bluebutton.cms.gov/resources/codesystem/adjudication"}]}},{"amount":{"code":"USD","system":"urn:iso:std:iso:4217","value":0},"category":{"coding":[{"code":"https://bluebutton.cms.gov/resources/variables/line_bene_ptb_ddctbl_amt","display":"Line Beneficiary Part B Deductible Amount","system":"https://bluebutton.cms.gov/resources/codesystem/adjudication"}]}},{"category":{"coding":[{"code":"https://bluebutton.cms.gov/resources/variables/line_prcsg_ind_cd","display":"Line Processing Indicator Code","system":"https://bluebutton.cms.gov/resources/codesystem/adjudication"}]}}],"extension":[{"url":"https://bluebutton.cms.gov/assets/ig/StructureDefinition-bluebutton-inpatient-rev-cntr-ndc-qty-extension","valueQuantity":{"value":0}}],"locationCodeableConcept":{"coding":[{"code":"21","display":"Inpatient Hospital","system":"https://bluebutton.cms.gov/resources/variables/line_place_of_srvc_cd"}]},"sequence":3,"service":{"coding":[{"code":"225158009","system":"http://snomed.info/sct","version":"v1"}]}}],"meta":{"lastUpdated":"2019-04-09T11:41:04.874140+00:00","profile":["https://bluebutton.cms.gov/assets/ig/StructureDefinition-bluebutton-inpatient-claim"],"versionId":"MTU1NDgxMDA2NDg3NDE0MDAwMA"},"organization":{"identifier":{"value":"98fb6748-cc45-442a-9093-83c34db1a3d0"}},"patient":{"reference":"Patient/00d2188b-1561-4950-a95e-e88e01038377"},"payment":{"amount":{"code":"USD","system":"urn:iso:std:iso:4217","value":11812.872}},"provider":{"identifier":{"value":"34ded5d7-309b-49de-92d4-b372bcc5ca6c"}},"resourceType":"ExplanationOfBenefit","status":"active","totalCost":{"code":"USD","system":"urn:iso:std:iso:4217","value":14891.09},"type":{"coding":[{"code":"71","display":"Local carrier non-durable medical equipment, prosthetics, orthotics, and supplies (DMEPOS) claim","system":"https://bluebutton.cms.gov/resources/variables/nch_clm_type_cd"},{"code":"CARRIER","display":"EOB Type","system":"https://bluebutton.cms.gov/resources/codesystem/eob-type"},{"code":"professional","display":"Claim Type","system":"http://hl7.org/fhir/ex-claimtype"},{"code":"O","display":"Part B physician/supplier claim record (processed by local carriers; can include DMEPOS services)","system":"https://bluebutton.cms.gov/resources/variables/nch_near_line_rec_ident_cd"}]}}},{"resource":{"billablePeriod":{"end":"2016-03-10T07:37:52-05:00","extension":[{"url":"https://bluebutton.cms.gov/assets/ig/StructureDefinition-bluebutton-inpatient-claim-query-cd-extension","valueCoding":{"code":"3","display":"Final Bill","system":"https://bluebutton.cms.gov/assets/ig/ValueSet-claim-query-cd"}}],"start":"2015-03-10T07:37:52-04:00"},"careTeam":[{"provider":{"identifier":{"system":"http://hl7.org/fhir/sid/us-npi","value":"99999999"}},"role":{"coding":[{"code":"primary","display":"Primary Care Practitioner","system":"http://hl7.org/fhir/claimcareteamrole"}]},"sequence":1}],"contained":[{"id":"coverage","resourceType":"Coverage","type":{"text":"private"}}],"diagnosis":[{"diagnosisReference":{"reference":"Condition/0a28f363-adf6-4b4a-b8e8-f430c0f2b766"},"extension":[{"url":"https://bluebutton.cms.gov/assets/ig/StructureDefinition-bluebutton-inpatient-clm-poa-ind-sw1-extension","valueCoding":{"code":"Y","display":"Diagnosis present at time of admission","system":"https://bluebutton.cms.gov/assets/ig/CodeSystem-clm-poa-ind-sw1"}}],"sequence":1,"type":[{"coding":[{"code":"principal","system":"https://bluebutton.cms.gov/resources/codesystem/diagnosis-type"}]}]}],"extension":[{"url":"https://bluebutton.cms.gov/assets/ig/StructureDefinition-bluebutton-inpatient-ime-op-clm-val-amt-extension","valueMoney":{"code":"USD","system":"urn:iso:std:iso:4217","value":400}},{"url":"https://bluebutton.cms.gov/assets/ig/StructureDefinition-bluebutton-inpatient-dsh-op-clm-val-amt-extension","valueMoney":{"code":"USD","system":"urn:iso:std:iso:4217","value":0}},{"url":"https://bluebutton.cms.gov/assets/ig/StructureDefinition-bluebutton-inpatient-clm-pass-thru-per-diem-amt-extension","valueMoney":{"code":"USD","system":"urn:iso:std:iso:4217","value":0}},{"url":"https://bluebutton.cms.gov/assets/ig/StructureDefinition-bluebutton-inpatient-nch-profnl-cmpnt-chrg-amt-extension","valueMoney":{"code":"USD","system":"urn:iso:std:iso:4217","value":0}},{"url":"https://bluebutton.cms.gov/assets/ig/StructureDefinition-bluebutton-inpatient-clm-tot-pps-cptl-amt-extension","valueMoney":{"code":"USD","system":"urn:iso:std:iso:4217","value":0}},{"url":"https://bluebutton.cms.gov/assets/ig/StructureDefinition-bluebutton-inpatient-nch-bene-ip-ddctbl-amt-extension","valueMoney":{"code":"USD","system":"urn:iso:std:iso:4217","value":0}},{"url":"https://bluebutton.cms.gov/assets/ig/StructureDefinition-bluebutton-inpatient-nch-bene-pta-coinsrnc-lblty-amt-extension","valueMoney":{"code":"USD","system":"urn:iso:std:iso:4217","value":0}},{"url":"https://bluebutton.cms.gov/assets/ig/StructureDefinition-bluebutton-inpatient-nch-ip-ncvrd-chrg-amt-extension","valueMoney":{"code":"USD","system":"urn:iso:std:iso:4217","value":0}},{"url":"https://bluebutton.cms.gov/assets/ig/StructureDefinition-bluebutton-inpatient-nch-ip-tot-ddctn-amt-extension","valueMoney":{"code":"USD","system":"urn:iso:std:iso:4217","value":0}},{"url":"https://bluebutton.cms.gov/assets/ig/StructureDefinition-bluebutton-inpatient-clm-pps-cptl-dsprprtnt-shr-amt-extension","valueMoney":{"code":"USD","system":"urn:iso:std:iso:4217","value":0}},{"url":"https://bluebutton.cms.gov/assets/ig/StructureDefinition-bluebutton-inpatient-clm-pps-cptl-excptn-amt-extension","valueMoney":{"code":"USD","system":"urn:iso:std:iso:4217","value":0}},{"url":"https://bluebutton.cms.gov/assets/ig/StructureDefinition-bluebutton-inpatient-clm-pps-cptl-fsp-amt-extension","valueMoney":{"code":"USD","system":"urn:iso:std:iso:4217","value":0}},{"url":"https://bluebutton.cms.gov/assets/ig/StructureDefinition-bluebutton-inpatient-clm-pps-cptl-ime-amt-extension","valueMoney":{"code":"USD","system":"urn:iso:std:iso:4217","value":400}},{"url":"https://bluebutton.cms.gov/assets/ig/StructureDefinition-bluebutton-inpatient-clm-pps-cptl-outlier-amt-extension","valueMoney":{"code":"USD","system":"urn:iso:std:iso:4217","value":0}},{"url":"https://bluebutton.cms.gov/assets/ig/StructureDefinition-bluebutton-inpatient-clm-pps-old-cptl-hld-hrmls-amt-extension","valueMoney":{"code":"USD","system":"urn:iso:std:iso:4217","value":0}},{"url":"https://bluebutton.cms.gov/assets/ig/StructureDefinition-bluebutton-inpatient-nch-drg-outlier-aprvd-pmt-amt-extension","valueMoney":{"code":"USD","system":"urn:iso:std:iso:4217","value":0}},{"url":"https://bluebutton.cms.gov/assets/ig/StructureDefinition-bluebutton-inpatient-nch-bene-blood-ddctbl-lblty-am-extension","valueMoney":{"code":"USD","system":"urn:iso:std:iso:4217","value":0}},{"url":"https://bluebutton.cms.gov/assets/ig/StructureDefinition-bluebutton-inpatient-clm-mdcr-non-pmt-rsn-cd-extension","valueCoding":{"code":"N","display":"All other reasons for non-payment","system":"https://bluebutton.cms.gov/assets/ig/CodeSystem-clm-mdcr-non-pmt-rsn-cd"}},{"url":"https://bluebutton.cms.gov/assets/ig/StructureDefinition-bluebutton-inpatient-prpayamt-extension","valueMoney":{"code":"USD","system":"urn:iso:std:iso:4217","value":0}},{"url":"https://bluebutton.cms.gov/assets/ig/StructureDefinition-bluebutton-inpatient-fi-num-extension","valueIdentifier":{"system":"https://bluebutton.cms.gov/assets/ig/CodeSystem-fi-num","value":"002000"}}],"id":"fad5abcb-d5bc-4be0-af45-2053481d2cd9","identifier":[{"system":"https://bluebutton.cms.gov/resources/variables/clm_id","value":"6d4ebfbf-e729-4edd-868e-ad4b0057b41a"},{"system":"https://bluebutton.cms.gov/resources/identifier/claim-group","value":"99999999999"}],"insurance":{"coverage":{"reference":"#coverage"}},"item":[{"extension":[{"url":"https://bluebutton.cms.gov/assets/ig/StructureDefinition-bluebutton-inpatient-rev-cntr-ndc-qty-extension","valueQuantity":{"value":0}}],"locationCodeableConcept":{"coding":[{"code":"21","display":"Inpatient Hospital","system":"https://bluebutton.cms.gov/resources/variables/line_place_of_srvc_cd"}]},"sequence":1},{"extension":[{"url":"https://bluebutton.cms.gov/assets/ig/StructureDefinition-bluebutton-inpatient-rev-cntr-ndc-qty-extension","valueQuantity":{"value":0}}],"locationCodeableConcept":{"coding":[{"code":"21","display":"Inpatient Hospital","system":"https://bluebutton.cms.gov/resources/variables/line_place_of_srvc_cd"}]},"sequence":2}],"meta":{"lastUpdated":"2019-04-09T11:41:08.873663+00:00","profile":["https://bluebutton.cms.gov/assets/ig/StructureDefinition-bluebutton-inpatient-claim"],"versionId":"MTU1NDgxMDA2ODg3MzY2MzAwMA"},"organization":{"identifier":{"value":"98fb6748-cc45-442a-9093-83c34db1a3d0"}},"patient":{"reference":"Patient/00d2188b-1561-4950-a95e-e88e01038377"},"payment":{"amount":{"code":"USD","system":"urn:iso:std:iso:4217","value":0}},"provider":{"identifier":{"value":"34ded5d7-309b-49de-92d4-b372bcc5ca6c"}},"resourceType":"ExplanationOfBenefit","status":"active","totalCost":{"code":"USD","system":"urn:iso:std:iso:4217","value":125},"type":{"coding":[{"code":"71","display":"Local carrier non-durable medical equipment, prosthetics, orthotics, and supplies (DMEPOS) claim","system":"https://bluebutton.cms.gov/resources/variables/nch_clm_type_cd"},{"code":"CARRIER","display":"EOB Type","system":"https://bluebutton.cms.gov/resources/codesystem/eob-type"},{"code":"professional","display":"Claim Type","system":"http://hl7.org/fhir/ex-claimtype"},{"code":"O","display":"Part B physician/supplier claim record (processed by local carriers; can include DMEPOS services)","system":"https://bluebutton.cms.gov/resources/variables/nch_near_line_rec_ident_cd"}]}}},{"resource":{"billablePeriod":{"end":"2012-05-20T07:37:52-04:00","start":"2011-05-20T07:37:52-04:00"},"careTeam":[{"provider":{"identifier":{"system":"http://hl7.org/fhir/sid/us-npi","value":"99999999"}},"role":{"coding":[{"code":"primary","display":"Primary Care Practitioner","system":"http://hl7.org/fhir/claimcareteamrole"}]},"sequence":1}],"claim":{"reference":"Claim/216995aa-f9c2-46db-883c-df99b3d22f09"},"contained":[{"id":"1","intent":"order","recipient":[{"identifier":{"system":"http://hl7.org/fhir/sid/us-npi","value":"99999999"}}],"requester":{"agent":{"identifier":{"system":"http://hl7.org/fhir/sid/us-npi","value":"99999999"}}},"resourceType":"ReferralRequest","status":"completed","subject":{"reference":"Patient/00d2188b-1561-4950-a95e-e88e01038377"}},{"id":"coverage","resourceType":"Coverage","type":{"text":"private"}}],"created":"2011-05-20T07:37:52-04:00","id":"fb31eace-fa3c-4c44-a258-6600ba87c7eb","identifier":[{"system":"https://bluebutton.cms.gov/resources/variables/clm_id","value":"216995aa-f9c2-46db-883c-df99b3d22f09"},{"system":"https://bluebutton.cms.gov/resources/identifier/claim-group","value":"99999999999"}],"insurance":{"coverage":{"reference":"#coverage"}},"item":[{"category":{"coding":[{"code":"1","display":"Medical care","system":"https://bluebutton.cms.gov/resources/variables/line_cms_type_srvc_cd"}]},"encounter":[{"reference":"Encounter/729bac78-192c-487d-81f5-fd91cc0d45ef"}],"locationCodeableConcept":{"coding":[{"code":"21","display":"Inpatient Hospital","system":"https://bluebutton.cms.gov/resources/variables/line_place_of_srvc_cd"}]},"sequence":1,"servicedPeriod":{"end":"2011-05-20T07:37:52-04:00","start":"2011-05-20T07:22:52-04:00"}},{"adjudication":[{"amount":{"code":"USD","system":"urn:iso:std:iso:4217","value":28.104000000000003},"category":{"coding":[{"code":"https://bluebutton.cms.gov/resources/variables/line_coinsrnc_amt","display":"Line Beneficiary Coinsurance Amount","system":"https://bluebutton.cms.gov/resources/codesystem/adjudication"}]}},{"amount":{"code":"USD","system":"urn:iso:std:iso:4217","value":112.41600000000001},"category":{"coding":[{"code":"https://bluebutton.cms.gov/resources/variables/line_prvdr_pmt_amt","display":"Line Provider Payment Amount","system":"https://bluebutton.cms.gov/resources/codesystem/adjudication"}]}},{"amount":{"code":"USD","system":"urn:iso:std:iso:4217","value":140.52},"category":{"coding":[{"code":"https://bluebutton.cms.gov/resources/variables/line_sbmtd_chrg_amt","display":"Line Submitted Charge Amount","system":"https://bluebutton.cms.gov/resources/codesystem/adjudication"}]}},{"amount":{"code":"USD","system":"urn:iso:std:iso:4217","value":140.52},"category":{"coding":[{"code":"https://bluebutton.cms.gov/resources/variables/line_alowd_chrg_amt","display":"Line Allowed Charge Amount","system":"https://bluebutton.cms.gov/resources/codesystem/adjudication"}]}},{"amount":{"code":"USD","system":"urn:iso:std:iso:4217","value":0},"category":{"coding":[{"code":"https://bluebutton.cms.gov/resources/variables/line_bene_ptb_ddctbl_amt","display":"Line Beneficiary Part B Deductible Amount","system":"https://bluebutton.cms.gov/resources/codesystem/adjudication"}]}},{"category":{"coding":[{"code":"https://bluebutton.cms.gov/resources/variables/line_prcsg_ind_cd","display":"Line Processing Indicator Code","system":"https://bluebutton.cms.gov/resources/codesystem/adjudication"}]},"reason":{"coding":[{"code":"A","display":"Allowed","system":"https://bluebutton.cms.gov/resources/variables/line_prcsg_ind_cd"}]}}],"category":{"coding":[{"code":"1","display":"Medical care","system":"https://bluebutton.cms.gov/resources/variables/line_cms_type_srvc_cd"}]},"informationLinkId":[1],"locationCodeableConcept":{"coding":[{"code":"21","display":"Inpatient Hospital","system":"https://bluebutton.cms.gov/resources/variables/line_place_of_srvc_cd"}]},"net":{"code":"USD","system":"urn:iso:std:iso:4217","value":140.52},"sequence":2,"servicedPeriod":{"end":"2011-05-20T07:37:52-04:00","start":"2011-05-20T07:22:52-04:00"}}],"meta":{"lastUpdated":"2019-04-09T11:41:06.813540+00:00","versionId":"MTU1NDgxMDA2NjgxMzU0MDAwMA"},"organization":{"identifier":{"value":"98fb6748-cc45-442a-9093-83c34db1a3d0"}},"patient":{"reference":"Patient/00d2188b-1561-4950-a95e-e88e01038377"},"payment":{"amount":{"code":"USD","system":"urn:iso:std:iso:4217","value":112.41600000000001}},"provider":{"identifier":{"value":"34ded5d7-309b-49de-92d4-b372bcc5ca6c"}},"referral":{"reference":"#1"},"resourceType":"ExplanationOfBenefit","status":"active","totalCost":{"code":"USD","system":"urn:iso:std:iso:4217","value":265.52},"type":{"coding":[{"code":"71","display":"Local carrier non-durable medical equipment, prosthetics, orthotics, and supplies (DMEPOS) claim","system":"https://bluebutton.cms.gov/resources/variables/nch_clm_type_cd"},{"code":"CARRIER","display":"EOB Type","system":"https://bluebutton.cms.gov/resources/codesystem/eob-type"},{"code":"professional","display":"Claim Type","system":"http://hl7.org/fhir/ex-claimtype"},{"code":"O","display":"Part B physician/supplier claim record (processed by local carriers; can include DMEPOS services)","system":"https://bluebutton.cms.gov/resources/variables/nch_near_line_rec_ident_cd"}]}}},{"resource":{"billablePeriod":{"end":"2010-02-20T07:07:52-05:00","extension":[{"url":"https://bluebutton.cms.gov/assets/ig/StructureDefinition-bluebutton-inpatient-claim-query-cd-extension","valueCoding":{"code":"3","display":"Final Bill","system":"https://bluebutton.cms.gov/assets/ig/ValueSet-claim-query-cd"}}],"start":"2009-02-20T07:07:52-05:00"},"careTeam":[{"provider":{"identifier":{"system":"http://hl7.org/fhir/sid/us-npi","value":"99999999"}},"role":{"coding":[{"code":"primary","display":"Primary Care Practitioner","system":"http://hl7.org/fhir/claimcareteamrole"}]},"sequence":1}],"contained":[{"id":"coverage","resourceType":"Coverage","type":{"text":"private"}}],"extension":[{"url":"https://bluebutton.cms.gov/assets/ig/StructureDefinition-bluebutton-inpatient-ime-op-clm-val-amt-extension","valueMoney":{"code":"USD","system":"urn:iso:std:iso:4217","value":400}},{"url":"https://bluebutton.cms.gov/assets/ig/StructureDefinition-bluebutton-inpatient-dsh-op-clm-val-amt-extension","valueMoney":{"code":"USD","system":"urn:iso:std:iso:4217","value":0}},{"url":"https://bluebutton.cms.gov/assets/ig/StructureDefinition-bluebutton-inpatient-clm-pass-thru-per-diem-amt-extension","valueMoney":{"code":"USD","system":"urn:iso:std:iso:4217","value":0}},{"url":"https://bluebutton.cms.gov/assets/ig/StructureDefinition-bluebutton-inpatient-nch-profnl-cmpnt-chrg-amt-extension","valueMoney":{"code":"USD","system":"urn:iso:std:iso:4217","value":0}},{"url":"https://bluebutton.cms.gov/assets/ig/StructureDefinition-bluebutton-inpatient-clm-tot-pps-cptl-amt-extension","valueMoney":{"code":"USD","system":"urn:iso:std:iso:4217","value":0}},{"url":"https://bluebutton.cms.gov/assets/ig/StructureDefinition-bluebutton-inpatient-nch-bene-ip-ddctbl-amt-extension","valueMoney":{"code":"USD","system":"urn:iso:std:iso:4217","value":0}},{"url":"https://bluebutton.cms.gov/assets/ig/StructureDefinition-bluebutton-inpatient-nch-bene-pta-coinsrnc-lblty-amt-extension","valueMoney":{"code":"USD","system":"urn:iso:std:iso:4217","value":0}},{"url":"https://bluebutton.cms.gov/assets/ig/StructureDefinition-bluebutton-inpatient-nch-ip-ncvrd-chrg-amt-extension","valueMoney":{"code":"USD","system":"urn:iso:std:iso:4217","value":0}},{"url":"https://bluebutton.cms.gov/assets/ig/StructureDefinition-bluebutton-inpatient-nch-ip-tot-ddctn-amt-extension","valueMoney":{"code":"USD","system":"urn:iso:std:iso:4217","value":0}},{"url":"https://bluebutton.cms.gov/assets/ig/StructureDefinition-bluebutton-inpatient-clm-pps-cptl-dsprprtnt-shr-amt-extension","valueMoney":{"code":"USD","system":"urn:iso:std:iso:4217","value":0}},{"url":"https://bluebutton.cms.gov/assets/ig/StructureDefinition-bluebutton-inpatient-clm-pps-cptl-excptn-amt-extension","valueMoney":{"code":"USD","system":"urn:iso:std:iso:4217","value":0}},{"url":"https://bluebutton.cms.gov/assets/ig/StructureDefinition-bluebutton-inpatient-clm-pps-cptl-fsp-amt-extension","valueMoney":{"code":"USD","system":"urn:iso:std:iso:4217","value":0}},{"url":"https://bluebutton.cms.gov/assets/ig/StructureDefinition-bluebutton-inpatient-clm-pps-cptl-ime-amt-extension","valueMoney":{"code":"USD","system":"urn:iso:std:iso:4217","value":400}},{"url":"https://bluebutton.cms.gov/assets/ig/StructureDefinition-bluebutton-inpatient-clm-pps-cptl-outlier-amt-extension","valueMoney":{"code":"USD","system":"urn:iso:std:iso:4217","value":0}},{"url":"https://bluebutton.cms.gov/assets/ig/StructureDefinition-bluebutton-inpatient-clm-pps-old-cptl-hld-hrmls-amt-extension","valueMoney":{"code":"USD","system":"urn:iso:std:iso:4217","value":0}},{"url":"https://bluebutton.cms.gov/assets/ig/StructureDefinition-bluebutton-inpatient-nch-drg-outlier-aprvd-pmt-amt-extension","valueMoney":{"code":"USD","system":"urn:iso:std:iso:4217","value":0}},{"url":"https://bluebutton.cms.gov/assets/ig/StructureDefinition-bluebutton-inpatient-nch-bene-blood-ddctbl-lblty-am-extension","valueMoney":{"code":"USD","system":"urn:iso:std:iso:4217","value":0}},{"url":"https://bluebutton.cms.gov/assets/ig/StructureDefinition-bluebutton-inpatient-clm-mdcr-non-pmt-rsn-cd-extension","valueCoding":{"code":"N","display":"All other reasons for non-payment","system":"https://bluebutton.cms.gov/assets/ig/CodeSystem-clm-mdcr-non-pmt-rsn-cd"}},{"url":"https://bluebutton.cms.gov/assets/ig/StructureDefinition-bluebutton-inpatient-prpayamt-extension","valueMoney":{"code":"USD","system":"urn:iso:std:iso:4217","value":0}},{"url":"https://bluebutton.cms.gov/assets/ig/StructureDefinition-bluebutton-inpatient-fi-num-extension","valueIdentifier":{"system":"https://bluebutton.cms.gov/assets/ig/CodeSystem-fi-num","value":"002000"}}],"id":"fe81303a-ed3f-4c97-8ef9-2c1271df8eb2","identifier":[{"system":"https://bluebutton.cms.gov/resources/variables/clm_id","value":"7debab62-c723-4192-b489-7f319a3bab99"},{"system":"https://bluebutton.cms.gov/resources/identifier/claim-group","value":"99999999999"}],"insurance":{"coverage":{"reference":"#coverage"}},"item":[{"extension":[{"url":"https://bluebutton.cms.gov/assets/ig/StructureDefinition-bluebutton-inpatient-rev-cntr-ndc-qty-extension","valueQuantity":{"value":0}}],"locationCodeableConcept":{"coding":[{"code":"21","display":"Inpatient Hospital","system":"https://bluebutton.cms.gov/resources/variables/line_place_of_srvc_cd"}]},"sequence":1},{"adjudication":[{"amount":{"code":"USD","system":"urn:iso:std:iso:4217","value":1181.788},"category":{"coding":[{"code":"https://bluebutton.cms.gov/resources/variables/line_coinsrnc_amt","display":"Line Beneficiary Coinsurance Amount","system":"https://bluebutton.cms.gov/resources/codesystem/adjudication"}]}},{"amount":{"code":"USD","system":"urn:iso:std:iso:4217","value":4727.152},"category":{"coding":[{"code":"https://bluebutton.cms.gov/resources/variables/line_prvdr_pmt_amt","display":"Line Provider Payment Amount","system":"https://bluebutton.cms.gov/resources/codesystem/adjudication"}]}},{"amount":{"code":"USD","system":"urn:iso:std:iso:4217","value":5908.94},"category":{"coding":[{"code":"https://bluebutton.cms.gov/resources/variables/line_sbmtd_chrg_amt","display":"Line Submitted Charge Amount","system":"https://bluebutton.cms.gov/resources/codesystem/adjudication"}]}},{"amount":{"code":"USD","system":"urn:iso:std:iso:4217","value":5908.94},"category":{"coding":[{"code":"https://bluebutton.cms.gov/resources/variables/line_alowd_chrg_amt","display":"Line Allowed Charge Amount","system":"https://bluebutton.cms.gov/resources/codesystem/adjudication"}]}},{"amount":{"code":"USD","system":"urn:iso:std:iso:4217","value":0},"category":{"coding":[{"code":"https://bluebutton.cms.gov/resources/variables/line_bene_ptb_ddctbl_amt","display":"Line Beneficiary Part B Deductible Amount","system":"https://bluebutton.cms.gov/resources/codesystem/adjudication"}]}},{"category":{"coding":[{"code":"https://bluebutton.cms.gov/resources/variables/line_prcsg_ind_cd","display":"Line Processing Indicator Code","system":"https://bluebutton.cms.gov/resources/codesystem/adjudication"}]}}],"extension":[{"url":"https://bluebutton.cms.gov/assets/ig/StructureDefinition-bluebutton-inpatient-rev-cntr-ndc-qty-extension","valueQuantity":{"value":0}}],"locationCodeableConcept":{"coding":[{"code":"21","display":"Inpatient Hospital","system":"https://bluebutton.cms.gov/resources/variables/line_place_of_srvc_cd"}]},"sequence":2,"service":{"coding":[{"code":"274804006","system":"http://snomed.info/sct","version":"v1"}]}},{"adjudication":[{"amount":{"code":"USD","system":"urn:iso:std:iso:4217","value":1308.888},"category":{"coding":[{"code":"https://bluebutton.cms.gov/resources/variables/line_coinsrnc_amt","display":"Line Beneficiary Coinsurance Amount","system":"https://bluebutton.cms.gov/resources/codesystem/adjudication"}]}},{"amount":{"code":"USD","system":"urn:iso:std:iso:4217","value":5235.552},"category":{"coding":[{"code":"https://bluebutton.cms.gov/resources/variables/line_prvdr_pmt_amt","display":"Line Provider Payment Amount","system":"https://bluebutton.cms.gov/resources/codesystem/adjudication"}]}},{"amount":{"code":"USD","system":"urn:iso:std:iso:4217","value":6544.44},"category":{"coding":[{"code":"https://bluebutton.cms.gov/resources/variables/line_sbmtd_chrg_amt","display":"Line Submitted Charge Amount","system":"https://bluebutton.cms.gov/resources/codesystem/adjudication"}]}},{"amount":{"code":"USD","system":"urn:iso:std:iso:4217","value":6544.44},"category":{"coding":[{"code":"https://bluebutton.cms.gov/resources/variables/line_alowd_chrg_amt","display":"Line Allowed Charge Amount","system":"https://bluebutton.cms.gov/resources/codesystem/adjudication"}]}},{"amount":{"code":"USD","system":"urn:iso:std:iso:4217","value":0},"category":{"coding":[{"code":"https://bluebutton.cms.gov/resources/variables/line_bene_ptb_ddctbl_amt","display":"Line Beneficiary Part B Deductible Amount","system":"https://bluebutton.cms.gov/resources/codesystem/adjudication"}]}},{"category":{"coding":[{"code":"https://bluebutton.cms.gov/resources/variables/line_prcsg_ind_cd","display":"Line Processing Indicator Code","system":"https://bluebutton.cms.gov/resources/codesystem/adjudication"}]}}],"extension":[{"url":"https://bluebutton.cms.gov/assets/ig/StructureDefinition-bluebutton-inpatient-rev-cntr-ndc-qty-extension","valueQuantity":{"value":0}}],"locationCodeableConcept":{"coding":[{"code":"21","display":"Inpatient Hospital","system":"https://bluebutton.cms.gov/resources/variables/line_place_of_srvc_cd"}]},"sequence":3,"service":{"coding":[{"code":"225158009","system":"http://snomed.info/sct","version":"v1"}]}}],"meta":{"lastUpdated":"2019-04-09T11:41:04.887830+00:00","profile":["https://bluebutton.cms.gov/assets/ig/StructureDefinition-bluebutton-inpatient-claim"],"versionId":"MTU1NDgxMDA2NDg4NzgzMDAwMA"},"organization":{"identifier":{"value":"98fb6748-cc45-442a-9093-83c34db1a3d0"}},"patient":{"reference":"Patient/00d2188b-1561-4950-a95e-e88e01038377"},"payment":{"amount":{"code":"USD","system":"urn:iso:std:iso:4217","value":9962.704}},"provider":{"identifier":{"value":"34ded5d7-309b-49de-92d4-b372bcc5ca6c"}},"resourceType":"ExplanationOfBenefit","status":"active","totalCost":{"code":"USD","system":"urn:iso:std:iso:4217","value":12578.38},"type":{"coding":[{"code":"71","display":"Local carrier non-durable medical equipment, prosthetics, orthotics, and supplies (DMEPOS) claim","system":"https://bluebutton.cms.gov/resources/variables/nch_clm_type_cd"},{"code":"CARRIER","display":"EOB Type","system":"https://bluebutton.cms.gov/resources/codesystem/eob-type"},{"code":"professional","display":"Claim Type","system":"http://hl7.org/fhir/ex-claimtype"},{"code":"O","display":"Part B physician/supplier claim record (processed by local carriers; can include DMEPOS services)","system":"https://bluebutton.cms.gov/resources/variables/nch_near_line_rec_ident_cd"}]}}},{"resource":{"billablePeriod":{"end":"1967-07-01T07:37:52-04:00","extension":[{"url":"https://bluebutton.cms.gov/assets/ig/StructureDefinition-bluebutton-inpatient-claim-query-cd-extension","valueCoding":{"code":"3","display":"Final Bill","system":"https://bluebutton.cms.gov/assets/ig/ValueSet-claim-query-cd"}}],"start":"1966-07-01T07:37:52-04:00"},"careTeam":[{"provider":{"identifier":{"system":"http://hl7.org/fhir/sid/us-npi","value":"99999999"}},"role":{"coding":[{"code":"primary","display":"Primary Care Practitioner","system":"http://hl7.org/fhir/claimcareteamrole"}]},"sequence":1}],"contained":[{"id":"coverage","resourceType":"Coverage","type":{"text":"private"}}],"extension":[{"url":"https://bluebutton.cms.gov/assets/ig/StructureDefinition-bluebutton-inpatient-ime-op-clm-val-amt-extension","valueMoney":{"code":"USD","system":"urn:iso:std:iso:4217","value":400}},{"url":"https://bluebutton.cms.gov/assets/ig/StructureDefinition-bluebutton-inpatient-dsh-op-clm-val-amt-extension","valueMoney":{"code":"USD","system":"urn:iso:std:iso:4217","value":0}},{"url":"https://bluebutton.cms.gov/assets/ig/StructureDefinition-bluebutton-inpatient-clm-pass-thru-per-diem-amt-extension","valueMoney":{"code":"USD","system":"urn:iso:std:iso:4217","value":0}},{"url":"https://bluebutton.cms.gov/assets/ig/StructureDefinition-bluebutton-inpatient-nch-profnl-cmpnt-chrg-amt-extension","valueMoney":{"code":"USD","system":"urn:iso:std:iso:4217","value":0}},{"url":"https://bluebutton.cms.gov/assets/ig/StructureDefinition-bluebutton-inpatient-clm-tot-pps-cptl-amt-extension","valueMoney":{"code":"USD","system":"urn:iso:std:iso:4217","value":0}},{"url":"https://bluebutton.cms.gov/assets/ig/StructureDefinition-bluebutton-inpatient-nch-bene-ip-ddctbl-amt-extension","valueMoney":{"code":"USD","system":"urn:iso:std:iso:4217","value":0}},{"url":"https://bluebutton.cms.gov/assets/ig/StructureDefinition-bluebutton-inpatient-nch-bene-pta-coinsrnc-lblty-amt-extension","valueMoney":{"code":"USD","system":"urn:iso:std:iso:4217","value":0}},{"url":"https://bluebutton.cms.gov/assets/ig/StructureDefinition-bluebutton-inpatient-nch-ip-ncvrd-chrg-amt-extension","valueMoney":{"code":"USD","system":"urn:iso:std:iso:4217","value":0}},{"url":"https://bluebutton.cms.gov/assets/ig/StructureDefinition-bluebutton-inpatient-nch-ip-tot-ddctn-amt-extension","valueMoney":{"code":"USD","system":"urn:iso:std:iso:4217","value":0}},{"url":"https://bluebutton.cms.gov/assets/ig/StructureDefinition-bluebutton-inpatient-clm-pps-cptl-dsprprtnt-shr-amt-extension","valueMoney":{"code":"USD","system":"urn:iso:std:iso:4217","value":0}},{"url":"https://bluebutton.cms.gov/assets/ig/StructureDefinition-bluebutton-inpatient-clm-pps-cptl-excptn-amt-extension","valueMoney":{"code":"USD","system":"urn:iso:std:iso:4217","value":0}},{"url":"https://bluebutton.cms.gov/assets/ig/StructureDefinition-bluebutton-inpatient-clm-pps-cptl-fsp-amt-extension","valueMoney":{"code":"USD","system":"urn:iso:std:iso:4217","value":0}},{"url":"https://bluebutton.cms.gov/assets/ig/StructureDefinition-bluebutton-inpatient-clm-pps-cptl-ime-amt-extension","valueMoney":{"code":"USD","system":"urn:iso:std:iso:4217","value":400}},{"url":"https://bluebutton.cms.gov/assets/ig/StructureDefinition-bluebutton-inpatient-clm-pps-cptl-outlier-amt-extension","valueMoney":{"code":"USD","system":"urn:iso:std:iso:4217","value":0}},{"url":"https://bluebutton.cms.gov/assets/ig/StructureDefinition-bluebutton-inpatient-clm-pps-old-cptl-hld-hrmls-amt-extension","valueMoney":{"code":"USD","system":"urn:iso:std:iso:4217","value":0}},{"url":"https://bluebutton.cms.gov/assets/ig/StructureDefinition-bluebutton-inpatient-nch-drg-outlier-aprvd-pmt-amt-extension","valueMoney":{"code":"USD","system":"urn:iso:std:iso:4217","value":0}},{"url":"https://bluebutton.cms.gov/assets/ig/StructureDefinition-bluebutton-inpatient-nch-bene-blood-ddctbl-lblty-am-extension","valueMoney":{"code":"USD","system":"urn:iso:std:iso:4217","value":0}},{"url":"https://bluebutton.cms.gov/assets/ig/StructureDefinition-bluebutton-inpatient-clm-mdcr-non-pmt-rsn-cd-extension","valueCoding":{"code":"N","display":"All other reasons for non-payment","system":"https://bluebutton.cms.gov/assets/ig/CodeSystem-clm-mdcr-non-pmt-rsn-cd"}},{"url":"https://bluebutton.cms.gov/assets/ig/StructureDefinition-bluebutton-inpatient-prpayamt-extension","valueMoney":{"code":"USD","system":"urn:iso:std:iso:4217","value":0}},{"url":"https://bluebutton.cms.gov/assets/ig/StructureDefinition-bluebutton-inpatient-fi-num-extension","valueIdentifier":{"system":"https://bluebutton.cms.gov/assets/ig/CodeSystem-fi-num","value":"002000"}}],"id":"ff9c6e83-8b29-42ab-9286-335067ed85a7","identifier":[{"system":"https://bluebutton.cms.gov/resources/variables/clm_id","value":"2cc464f7-d165-448c-9e37-15b79ca9e7e8"},{"system":"https://bluebutton.cms.gov/resources/identifier/claim-group","value":"99999999999"}],"insurance":{"coverage":{"reference":"#coverage"}},"item":[{"extension":[{"url":"https://bluebutton.cms.gov/assets/ig/StructureDefinition-bluebutton-inpatient-rev-cntr-ndc-qty-extension","valueQuantity":{"value":0}}],"locationCodeableConcept":{"coding":[{"code":"21","display":"Inpatient Hospital","system":"https://bluebutton.cms.gov/resources/variables/line_place_of_srvc_cd"}]},"sequence":1}],"meta":{"lastUpdated":"2019-04-09T11:41:04.874021+00:00","profile":["https://bluebutton.cms.gov/assets/ig/StructureDefinition-bluebutton-inpatient-claim"],"versionId":"MTU1NDgxMDA2NDg3NDAyMTAwMA"},"organization":{"identifier":{"value":"98fb6748-cc45-442a-9093-83c34db1a3d0"}},"patient":{"reference":"Patient/00d2188b-1561-4950-a95e-e88e01038377"},"payment":{"amount":{"code":"USD","system":"urn:iso:std:iso:4217","value":0}},"provider":{"identifier":{"value":"34ded5d7-309b-49de-92d4-b372bcc5ca6c"}},"resourceType":"ExplanationOfBenefit","status":"active","totalCost":{"code":"USD","system":"urn:iso:std:iso:4217","value":125},"type":{"coding":[{"code":"71","display":"Local carrier non-durable medical equipment, prosthetics, orthotics, and supplies (DMEPOS) claim","system":"https://bluebutton.cms.gov/resources/variables/nch_clm_type_cd"},{"code":"CARRIER","display":"EOB Type","system":"https://bluebutton.cms.gov/resources/codesystem/eob-type"},{"code":"professional","display":"Claim Type","system":"http://hl7.org/fhir/ex-claimtype"},{"code":"O","display":"Part B physician/supplier claim record (processed by local carriers; can include DMEPOS services)","system":"https://bluebutton.cms.gov/resources/variables/nch_near_line_rec_ident_cd"}]}}},{"resource":{"date":"2018-03-30T07:22:52-04:00","encounter":{"reference":"Encounter/56deea73-2286-4a69-8f70-4fbda8ec9752"},"id":"0bc38f0d-8032-4d5b-8589-b4702560fa40","meta":{"lastUpdated":"2019-04-09T11:41:09.908721+00:00","versionId":"MTU1NDgxMDA2OTkwODcyMTAwMA"},"notGiven":false,"patient":{"reference":"Patient/00d2188b-1561-4950-a95e-e88e01038377"},"primarySource":true,"resourceType":"Immunization","status":"completed","vaccineCode":{"coding":[{"code":"140","display":"Influenza, seasonal, injectable, preservative free","system":"http://hl7.org/fhir/sid/cvx"}],"text":"Influenza, seasonal, injectable, preservative free"}}},{"resource":{"date":"2017-03-24T07:22:52-04:00","encounter":{"reference":"Encounter/1cccc2b5-6a1b-4471-995c-acbc13cab470"},"id":"0c600d67-24d7-4dbb-b5cb-ee78f0014ccb","meta":{"lastUpdated":"2019-04-09T11:41:09.899094+00:00","versionId":"MTU1NDgxMDA2OTg5OTA5NDAwMA"},"notGiven":false,"patient":{"reference":"Patient/00d2188b-1561-4950-a95e-e88e01038377"},"primarySource":true,"resourceType":"Immunization","status":"completed","vaccineCode":{"coding":[{"code":"121","display":"zoster","system":"http://hl7.org/fhir/sid/cvx"}],"text":"zoster"}}},{"resource":{"date":"2016-03-18T07:22:52-04:00","encounter":{"reference":"Encounter/5d765d8b-ca9b-4560-ba21-112ef26dc25c"},"id":"2473fbe2-6f03-492c-a40d-3fcc67a93ac5","meta":{"lastUpdated":"2019-04-09T11:41:08.879021+00:00","versionId":"MTU1NDgxMDA2ODg3OTAyMTAwMA"},"notGiven":false,"patient":{"reference":"Patient/00d2188b-1561-4950-a95e-e88e01038377"},"primarySource":true,"resourceType":"Immunization","status":"completed","vaccineCode":{"coding":[{"code":"140","display":"Influenza, seasonal, injectable, preservative free","system":"http://hl7.org/fhir/sid/cvx"}],"text":"Influenza, seasonal, injectable, preservative free"}}},{"resource":{"date":"2013-05-24T07:22:52-04:00","encounter":{"reference":"Encounter/cd0b9665-07fd-402d-8f79-2f8e54b71278"},"id":"6fc78655-0da5-435d-99d8-1f3047c1b605","meta":{"lastUpdated":"2019-04-09T11:41:07.852986+00:00","versionId":"MTU1NDgxMDA2Nzg1Mjk4NjAwMA"},"notGiven":false,"patient":{"reference":"Patient/00d2188b-1561-4950-a95e-e88e01038377"},"primarySource":true,"resourceType":"Immunization","status":"completed","vaccineCode":{"coding":[{"code":"140","display":"Influenza, seasonal, injectable, preservative free","system":"http://hl7.org/fhir/sid/cvx"}],"text":"Influenza, seasonal, injectable, preservative free"}}},{"resource":{"date":"2016-03-18T07:22:52-04:00","encounter":{"reference":"Encounter/5d765d8b-ca9b-4560-ba21-112ef26dc25c"},"id":"923a0e2e-74d3-4bec-8513-523750ea7f41","meta":{"lastUpdated":"2019-04-09T11:41:08.899781+00:00","versionId":"MTU1NDgxMDA2ODg5OTc4MTAwMA"},"notGiven":false,"patient":{"reference":"Patient/00d2188b-1561-4950-a95e-e88e01038377"},"primarySource":true,"resourceType":"Immunization","status":"completed","vaccineCode":{"coding":[{"code":"121","display":"zoster","system":"http://hl7.org/fhir/sid/cvx"}],"text":"zoster"}}},{"resource":{"date":"2009-05-15T07:22:52-04:00","encounter":{"reference":"Encounter/dfac7f81-11da-4118-8d82-10d664486b37"},"id":"967111fa-7574-4300-b269-a25c17131763","meta":{"lastUpdated":"2019-04-09T11:41:05.816486+00:00","versionId":"MTU1NDgxMDA2NTgxNjQ4NjAwMA"},"notGiven":false,"patient":{"reference":"Patient/00d2188b-1561-4950-a95e-e88e01038377"},"primarySource":true,"resourceType":"Immunization","status":"completed","vaccineCode":{"coding":[{"code":"140","display":"Influenza, seasonal, injectable, preservative free","system":"http://hl7.org/fhir/sid/cvx"}],"text":"Influenza, seasonal, injectable, preservative free"}}},{"resource":{"date":"2015-03-13T07:22:52-04:00","encounter":{"reference":"Encounter/c5f3a94d-dc2a-40dd-9d79-08b1033142d5"},"id":"9a9cdb6f-cd75-4869-ad56-dfe734c4c326","meta":{"lastUpdated":"2019-04-09T11:41:07.864777+00:00","versionId":"MTU1NDgxMDA2Nzg2NDc3NzAwMA"},"notGiven":false,"patient":{"reference":"Patient/00d2188b-1561-4950-a95e-e88e01038377"},"primarySource":true,"resourceType":"Immunization","status":"completed","vaccineCode":{"coding":[{"code":"140","display":"Influenza, seasonal, injectable, preservative free","system":"http://hl7.org/fhir/sid/cvx"}],"text":"Influenza, seasonal, injectable, preservative free"}}},{"resource":{"date":"2011-05-20T07:22:52-04:00","encounter":{"reference":"Encounter/729bac78-192c-487d-81f5-fd91cc0d45ef"},"id":"b4f0f4bf-70ae-44bd-a701-c21341304a37","meta":{"lastUpdated":"2019-04-09T11:41:06.813542+00:00","versionId":"MTU1NDgxMDA2NjgxMzU0MjAwMA"},"notGiven":false,"patient":{"reference":"Patient/00d2188b-1561-4950-a95e-e88e01038377"},"primarySource":true,"resourceType":"Immunization","status":"completed","vaccineCode":{"coding":[{"code":"140","display":"Influenza, seasonal, injectable, preservative free","system":"http://hl7.org/fhir/sid/cvx"}],"text":"Influenza, seasonal, injectable, preservative free"}}},{"resource":{"date":"2017-03-24T07:22:52-04:00","encounter":{"reference":"Encounter/1cccc2b5-6a1b-4471-995c-acbc13cab470"},"id":"c87f958d-26fe-4768-bc8c-7f63aeecd032","meta":{"lastUpdated":"2019-04-09T11:41:09.899265+00:00","versionId":"MTU1NDgxMDA2OTg5OTI2NTAwMA"},"notGiven":false,"patient":{"reference":"Patient/00d2188b-1561-4950-a95e-e88e01038377"},"primarySource":true,"resourceType":"Immunization","status":"completed","vaccineCode":{"coding":[{"code":"140","display":"Influenza, seasonal, injectable, preservative free","system":"http://hl7.org/fhir/sid/cvx"}],"text":"Influenza, seasonal, injectable, preservative free"}}},{"resource":{"date":"2017-03-24T07:22:52-04:00","encounter":{"reference":"Encounter/1cccc2b5-6a1b-4471-995c-acbc13cab470"},"id":"dd0e8fa7-1d09-430e-8220-742e8d501ce6","meta":{"lastUpdated":"2019-04-09T11:41:09.899787+00:00","versionId":"MTU1NDgxMDA2OTg5OTc4NzAwMA"},"notGiven":false,"patient":{"reference":"Patient/00d2188b-1561-4950-a95e-e88e01038377"},"primarySource":true,"resourceType":"Immunization","status":"completed","vaccineCode":{"coding":[{"code":"113","display":"Td (adult) preservative free","system":"http://hl7.org/fhir/sid/cvx"}],"text":"Td (adult) preservative free"}}},{"resource":{"authoredOn":"2011-03-31T07:22:52-04:00","context":{"reference":"Encounter/805996b5-8739-48ac-b2d0-cbd7c05e95e8"},"id":"4d92f249-b081-46be-bcdf-27ca19ef7819","intent":"order","medicationCodeableConcept":{"coding":[{"code":"757594","display":"Jolivette 28 Day Pack","system":"http://www.nlm.nih.gov/research/umls/rxnorm"}],"text":"Jolivette 28 Day Pack"},"meta":{"lastUpdated":"2019-04-09T11:41:06.816865+00:00","versionId":"MTU1NDgxMDA2NjgxNjg2NTAwMA"},"requester":{"agent":{"reference":"Practitioner/34ded5d7-309b-49de-92d4-b372bcc5ca6c"},"onBehalfOf":{"reference":"Organization/98fb6748-cc45-442a-9093-83c34db1a3d0"}},"resourceType":"MedicationRequest","status":"stopped","subject":{"reference":"Patient/00d2188b-1561-4950-a95e-e88e01038377"}}},{"resource":{"authoredOn":"2012-03-25T07:22:52-04:00","context":{"reference":"Encounter/80541812-00e8-4851-9865-181954e1b41a"},"id":"89ad33a0-215a-42f7-877a-d629ac7fe450","intent":"order","medicationCodeableConcept":{"coding":[{"code":"757594","display":"Jolivette 28 Day Pack","system":"http://www.nlm.nih.gov/research/umls/rxnorm"}],"text":"Jolivette 28 Day Pack"},"meta":{"lastUpdated":"2019-04-09T11:41:07.862090+00:00","versionId":"MTU1NDgxMDA2Nzg2MjA5MDAwMA"},"requester":{"agent":{"reference":"Practitioner/34ded5d7-309b-49de-92d4-b372bcc5ca6c"},"onBehalfOf":{"reference":"Organization/98fb6748-cc45-442a-9093-83c34db1a3d0"}},"resourceType":"MedicationRequest","status":"stopped","subject":{"reference":"Patient/00d2188b-1561-4950-a95e-e88e01038377"}}},{"resource":{"authoredOn":"2014-03-15T07:22:52-04:00","context":{"reference":"Encounter/b898210f-5f7f-4e83-8c18-c49475e5e13c"},"id":"b11a58be-d297-4293-a51d-df1b87a1621e","intent":"order","medicationCodeableConcept":{"coding":[{"code":"1367439","display":"NuvaRing 0.12/0.015 MG per 24HR 21 Day Vaginal Ring","system":"http://www.nlm.nih.gov/research/umls/rxnorm"}],"text":"NuvaRing 0.12/0.015 MG per 24HR 21 Day Vaginal Ring"},"meta":{"lastUpdated":"2019-04-09T11:41:07.872585+00:00","versionId":"MTU1NDgxMDA2Nzg3MjU4NTAwMA"},"requester":{"agent":{"reference":"Practitioner/34ded5d7-309b-49de-92d4-b372bcc5ca6c"},"onBehalfOf":{"reference":"Organization/98fb6748-cc45-442a-9093-83c34db1a3d0"}},"resourceType":"MedicationRequest","status":"stopped","subject":{"reference":"Patient/00d2188b-1561-4950-a95e-e88e01038377"}}},{"resource":{"authoredOn":"1968-05-20T07:22:52-04:00","context":{"reference":"Encounter/dab03318-c3b8-450a-9f30-5b47ed528254"},"dosageInstruction":[{"asNeededBoolean":true,"sequence":1}],"id":"b3762eb7-3bd3-423b-aeaa-eeffca9390ff","intent":"order","medicationCodeableConcept":{"coding":[{"code":"477045","display":"Chlorpheniramine Maleate 2 MG/ML Oral Solution","system":"http://www.nlm.nih.gov/research/umls/rxnorm"}],"text":"Chlorpheniramine Maleate 2 MG/ML Oral Solution"},"meta":{"lastUpdated":"2019-04-09T11:41:04.883066+00:00","versionId":"MTU1NDgxMDA2NDg4MzA2NjAwMA"},"requester":{"agent":{"reference":"Practitioner/34ded5d7-309b-49de-92d4-b372bcc5ca6c"},"onBehalfOf":{"reference":"Organization/98fb6748-cc45-442a-9093-83c34db1a3d0"}},"resourceType":"MedicationRequest","status":"active","subject":{"reference":"Patient/00d2188b-1561-4950-a95e-e88e01038377"}}},{"resource":{"authoredOn":"2011-09-12T07:22:52-04:00","context":{"reference":"Encounter/a65469a2-fc5f-495c-bc47-1427d11543c1"},"id":"b7f98065-c85e-4c96-a519-5c16def07ba5","intent":"order","medicationCodeableConcept":{"coding":[{"code":"562251","display":"Amoxicillin 250 MG / Clavulanate 125 MG Oral Tablet","system":"http://www.nlm.nih.gov/research/umls/rxnorm"}],"text":"Amoxicillin 250 MG / Clavulanate 125 MG Oral Tablet"},"meta":{"lastUpdated":"2019-04-09T11:41:06.813545+00:00","versionId":"MTU1NDgxMDA2NjgxMzU0NTAwMA"},"reasonReference":[{"reference":"Condition/35bb006e-9e08-4dbe-b17c-e717c9671515"}],"requester":{"agent":{"reference":"Practitioner/34ded5d7-309b-49de-92d4-b372bcc5ca6c"},"onBehalfOf":{"reference":"Organization/98fb6748-cc45-442a-9093-83c34db1a3d0"}},"resourceType":"MedicationRequest","status":"stopped","subject":{"reference":"Patient/00d2188b-1561-4950-a95e-e88e01038377"}}},{"resource":{"authoredOn":"2010-04-05T07:22:52-04:00","context":{"reference":"Encounter/58b8c3b5-4ede-4a17-8c64-e5902bb6df28"},"id":"c10b87bf-ca7f-4180-8680-a8290dabd5bf","intent":"order","medicationCodeableConcept":{"coding":[{"code":"757594","display":"Jolivette 28 Day Pack","system":"http://www.nlm.nih.gov/research/umls/rxnorm"}],"text":"Jolivette 28 Day Pack"},"meta":{"lastUpdated":"2019-04-09T11:41:05.824880+00:00","versionId":"MTU1NDgxMDA2NTgyNDg4MDAwMA"},"requester":{"agent":{"reference":"Practitioner/34ded5d7-309b-49de-92d4-b372bcc5ca6c"},"onBehalfOf":{"reference":"Organization/98fb6748-cc45-442a-9093-83c34db1a3d0"}},"resourceType":"MedicationRequest","status":"stopped","subject":{"reference":"Patient/00d2188b-1561-4950-a95e-e88e01038377"}}},{"resource":{"authoredOn":"1984-06-22T07:22:52-04:00","context":{"reference":"Encounter/55c1881e-dd91-49f6-96ba-3e0bc95f7a6d"},"id":"ddc70347-b70c-41a4-91cf-e407e2260d1d","intent":"order","medicationCodeableConcept":{"coding":[{"code":"316049","display":"Hydrochlorothiazide 25 MG","system":"http://www.nlm.nih.gov/research/umls/rxnorm"}],"text":"Hydrochlorothiazide 25 MG"},"meta":{"lastUpdated":"2019-04-09T11:41:04.892326+00:00","versionId":"MTU1NDgxMDA2NDg5MjMyNjAwMA"},"reasonReference":[{"reference":"Condition/6cc601f6-070b-419b-b7ac-d6d4ad5ba438"}],"requester":{"agent":{"reference":"Practitioner/34ded5d7-309b-49de-92d4-b372bcc5ca6c"},"onBehalfOf":{"reference":"Organization/98fb6748-cc45-442a-9093-83c34db1a3d0"}},"resourceType":"MedicationRequest","status":"active","subject":{"reference":"Patient/00d2188b-1561-4950-a95e-e88e01038377"}}},{"resource":{"authoredOn":"2015-03-10T07:22:52-04:00","context":{"reference":"Encounter/fff41eba-f562-4806-8fb7-6f47c755c89e"},"id":"e0a2f0ef-4f33-41da-a326-55948efa8e36","intent":"order","medicationCodeableConcept":{"coding":[{"code":"757594","display":"Jolivette 28 Day Pack","system":"http://www.nlm.nih.gov/research/umls/rxnorm"}],"text":"Jolivette 28 Day Pack"},"meta":{"lastUpdated":"2019-04-09T11:41:08.888406+00:00","versionId":"MTU1NDgxMDA2ODg4ODQwNjAwMA"},"requester":{"agent":{"reference":"Practitioner/34ded5d7-309b-49de-92d4-b372bcc5ca6c"},"onBehalfOf":{"reference":"Organization/98fb6748-cc45-442a-9093-83c34db1a3d0"}},"resourceType":"MedicationRequest","status":"stopped","subject":{"reference":"Patient/00d2188b-1561-4950-a95e-e88e01038377"}}},{"resource":{"authoredOn":"2009-04-10T07:22:52-04:00","context":{"reference":"Encounter/009c96e9-f4e3-414b-863a-32d8c04a37fe"},"id":"e496613a-b9aa-405b-9c35-a584424af77b","intent":"order","medicationCodeableConcept":{"coding":[{"code":"389221","display":"Etonogestrel 68 MG Drug Implant","system":"http://www.nlm.nih.gov/research/umls/rxnorm"}],"text":"Etonogestrel 68 MG Drug Implant"},"meta":{"lastUpdated":"2019-04-09T11:41:05.825562+00:00","versionId":"MTU1NDgxMDA2NTgyNTU2MjAwMA"},"requester":{"agent":{"reference":"Practitioner/34ded5d7-309b-49de-92d4-b372bcc5ca6c"},"onBehalfOf":{"reference":"Organization/98fb6748-cc45-442a-9093-83c34db1a3d0"}},"resourceType":"MedicationRequest","status":"stopped","subject":{"reference":"Patient/00d2188b-1561-4950-a95e-e88e01038377"}}},{"resource":{"category":[{"coding":[{"code":"laboratory","display":"laboratory","system":"http://hl7.org/fhir/observation-category"}]}],"code":{"coding":[{"code":"2069-3","display":"Chloride","system":"http://loinc.org"}],"text":"Chloride"},"context":{"reference":"Encounter/729bac78-192c-487d-81f5-fd91cc0d45ef"},"effectiveDateTime":"2011-05-20T07:22:52-04:00","id":"006c2d61-1961-43b8-bcde-6b896ac6113d","issued":"2011-05-20T07:22:52.702-04:00","meta":{"lastUpdated":"2019-04-09T11:41:06.810003+00:00","versionId":"MTU1NDgxMDA2NjgxMDAwMzAwMA"},"resourceType":"Observation","status":"final","subject":{"reference":"Patient/00d2188b-1561-4950-a95e-e88e01038377"},"valueQuantity":{"code":"mmol/L","system":"http://unitsofmeasure.org","unit":"mmol/L","value":110.95456942970496}}},{"resource":{"category":[{"coding":[{"code":"vital-signs","display":"vital-signs","system":"http://hl7.org/fhir/observation-category"}]}],"code":{"coding":[{"code":"29463-7","display":"Body Weight","system":"http://loinc.org"}],"text":"Body Weight"},"context":{"reference":"Encounter/cd0b9665-07fd-402d-8f79-2f8e54b71278"},"effectiveDateTime":"2013-05-24T07:22:52-04:00","id":"02679965-b287-4c9d-b0e5-5c7aaa6cbff6","issued":"2013-05-24T07:22:52.702-04:00","meta":{"lastUpdated":"2019-04-09T11:41:07.852979+00:00","versionId":"MTU1NDgxMDA2Nzg1Mjk3OTAwMA"},"resourceType":"Observation","status":"final","subject":{"reference":"Patient/00d2188b-1561-4950-a95e-e88e01038377"},"valueQuantity":{"code":"kg","system":"http://unitsofmeasure.org","unit":"kg","value":101.48390818059721}}},{"resource":{"category":[{"coding":[{"code":"vital-signs","display":"vital-signs","system":"http://hl7.org/fhir/observation-category"}]}],"code":{"coding":[{"code":"72514-3","display":"Pain severity - 0-10 verbal numeric rating [Score] - Reported","system":"http://loinc.org"}],"text":"Pain severity - 0-10 verbal numeric rating [Score] - Reported"},"context":{"reference":"Encounter/56deea73-2286-4a69-8f70-4fbda8ec9752"},"effectiveDateTime":"2018-03-30T07:22:52-04:00","id":"04123ef2-1e05-422d-9da6-5dce2fbc99f5","issued":"2018-03-30T07:22:52.702-04:00","meta":{"lastUpdated":"2019-04-09T11:41:09.906586+00:00","versionId":"MTU1NDgxMDA2OTkwNjU4NjAwMA"},"resourceType":"Observation","status":"final","subject":{"reference":"Patient/00d2188b-1561-4950-a95e-e88e01038377"},"valueQuantity":{"code":"{score}","system":"http://unitsofmeasure.org","unit":"{score}","value":1.6016957571245807}}},{"resource":{"category":[{"coding":[{"code":"laboratory","display":"laboratory","system":"http://hl7.org/fhir/observation-category"}]}],"code":{"coding":[{"code":"2085-9","display":"High Density Lipoprotein Cholesterol","system":"http://loinc.org"}],"text":"High Density Lipoprotein Cholesterol"},"context":{"reference":"Encounter/56deea73-2286-4a69-8f70-4fbda8ec9752"},"effectiveDateTime":"2018-03-30T07:22:52-04:00","id":"043048a2-f10b-4ad6-b7c2-34ac40754d6d","issued":"2018-03-30T07:22:52.702-04:00","meta":{"lastUpdated":"2019-04-09T11:41:09.908716+00:00","versionId":"MTU1NDgxMDA2OTkwODcxNjAwMA"},"resourceType":"Observation","status":"final","subject":{"reference":"Patient/00d2188b-1561-4950-a95e-e88e01038377"},"valueQuantity":{"code":"mg/dL","system":"http://unitsofmeasure.org","unit":"mg/dL","value":65.9409539715076}}},{"resource":{"category":[{"coding":[{"code":"laboratory","display":"laboratory","system":"http://hl7.org/fhir/observation-category"}]}],"code":{"coding":[{"code":"33914-3","display":"Estimated Glomerular Filtration Rate","system":"http://loinc.org"}],"text":"Estimated Glomerular Filtration Rate"},"context":{"reference":"Encounter/5d765d8b-ca9b-4560-ba21-112ef26dc25c"},"effectiveDateTime":"2016-03-18T07:22:52-04:00","id":"04a1095b-449b-4202-baff-f31480b495e1","issued":"2016-03-18T07:22:52.702-04:00","meta":{"lastUpdated":"2019-04-09T11:41:08.889375+00:00","versionId":"MTU1NDgxMDA2ODg4OTM3NTAwMA"},"resourceType":"Observation","status":"final","subject":{"reference":"Patient/00d2188b-1561-4950-a95e-e88e01038377"},"valueQuantity":{"code":"mL/min/{1.73_m2}","system":"http://unitsofmeasure.org","unit":"mL/min/{1.73_m2}","value":134.8356804115538}}},{"resource":{"category":[{"coding":[{"code":"laboratory","display":"laboratory","system":"http://hl7.org/fhir/observation-category"}]}],"code":{"coding":[{"code":"33914-3","display":"Estimated Glomerular Filtration Rate","system":"http://loinc.org"}],"text":"Estimated Glomerular Filtration Rate"},"context":{"reference":"Encounter/1cccc2b5-6a1b-4471-995c-acbc13cab470"},"effectiveDateTime":"2017-03-24T07:22:52-04:00","id":"0a8a7f9f-deb5-442b-961c-6d12bdda93ec","issued":"2017-03-24T07:22:52.702-04:00","meta":{"lastUpdated":"2019-04-09T11:41:08.895135+00:00","versionId":"MTU1NDgxMDA2ODg5NTEzNTAwMA"},"resourceType":"Observation","status":"final","subject":{"reference":"Patient/00d2188b-1561-4950-a95e-e88e01038377"},"valueQuantity":{"code":"mL/min/{1.73_m2}","system":"http://unitsofmeasure.org","unit":"mL/min/{1.73_m2}","value":88.92839738387761}}},{"resource":{"category":[{"coding":[{"code":"vital-signs","display":"vital-signs","system":"http://hl7.org/fhir/observation-category"}]}],"code":{"coding":[{"code":"55284-4","display":"Blood Pressure","system":"http://loinc.org"}],"text":"Blood Pressure"},"component":[{"code":{"coding":[{"code":"8462-4","display":"Diastolic Blood Pressure","system":"http://loinc.org"}],"text":"Diastolic Blood Pressure"},"valueQuantity":{"code":"mmHg","system":"http://unitsofmeasure.org","unit":"mmHg","value":112.90522114807757}},{"code":{"coding":[{"code":"8480-6","display":"Systolic Blood Pressure","system":"http://loinc.org"}],"text":"Systolic Blood Pressure"},"valueQuantity":{"code":"mmHg","system":"http://unitsofmeasure.org","unit":"mmHg","value":147.83529282590655}}],"context":{"reference":"Encounter/56deea73-2286-4a69-8f70-4fbda8ec9752"},"effectiveDateTime":"2018-03-30T07:22:52-04:00","id":"0ca81ff5-52dc-45dd-9071-6dc8b9fec051","issued":"2018-03-30T07:22:52.702-04:00","meta":{"lastUpdated":"2019-04-09T11:41:09.909093+00:00","versionId":"MTU1NDgxMDA2OTkwOTA5MzAwMA"},"resourceType":"Observation","status":"final","subject":{"reference":"Patient/00d2188b-1561-4950-a95e-e88e01038377"}}},{"resource":{"category":[{"coding":[{"code":"vital-signs","display":"vital-signs","system":"http://hl7.org/fhir/observation-category"}]}],"code":{"coding":[{"code":"39156-5","display":"Body Mass Index","system":"http://loinc.org"}],"text":"Body Mass Index"},"context":{"reference":"Encounter/5d765d8b-ca9b-4560-ba21-112ef26dc25c"},"effectiveDateTime":"2016-03-18T07:22:52-04:00","id":"0d9c055a-2f74-47b9-bf31-f7df3fb6ecb1","issued":"2016-03-18T07:22:52.702-04:00","meta":{"lastUpdated":"2019-04-09T11:41:08.879015+00:00","versionId":"MTU1NDgxMDA2ODg3OTAxNTAwMA"},"resourceType":"Observation","status":"final","subject":{"reference":"Patient/00d2188b-1561-4950-a95e-e88e01038377"},"valueQuantity":{"code":"kg/m2","system":"http://unitsofmeasure.org","unit":"kg/m2","value":39.71030372891943}}},{"resource":{"category":[{"coding":[{"code":"laboratory","display":"laboratory","system":"http://hl7.org/fhir/observation-category"}]}],"code":{"coding":[{"code":"2339-0","display":"Glucose","system":"http://loinc.org"}],"text":"Glucose"},"context":{"reference":"Encounter/1cccc2b5-6a1b-4471-995c-acbc13cab470"},"effectiveDateTime":"2017-03-24T07:22:52-04:00","id":"0ef62309-55af-4cc9-92ac-6c295d958217","issued":"2017-03-24T07:22:52.702-04:00","meta":{"lastUpdated":"2019-04-09T11:41:08.895131+00:00","versionId":"MTU1NDgxMDA2ODg5NTEzMTAwMA"},"resourceType":"Observation","status":"final","subject":{"reference":"Patient/00d2188b-1561-4950-a95e-e88e01038377"},"valueQuantity":{"code":"mg/dL","system":"http://unitsofmeasure.org","unit":"mg/dL","value":73.51968644043514}}},{"resource":{"category":[{"coding":[{"code":"laboratory","display":"laboratory","system":"http://hl7.org/fhir/observation-category"}]}],"code":{"coding":[{"code":"2571-8","display":"Triglycerides","system":"http://loinc.org"}],"text":"Triglycerides"},"context":{"reference":"Encounter/c5f3a94d-dc2a-40dd-9d79-08b1033142d5"},"effectiveDateTime":"2015-03-13T07:22:52-04:00","id":"10984f39-f672-4f1a-a9f6-d243f94da495","issued":"2015-03-13T07:22:52.702-04:00","meta":{"lastUpdated":"2019-04-09T11:41:07.863608+00:00","versionId":"MTU1NDgxMDA2Nzg2MzYwODAwMA"},"resourceType":"Observation","status":"final","subject":{"reference":"Patient/00d2188b-1561-4950-a95e-e88e01038377"},"valueQuantity":{"code":"mg/dL","system":"http://unitsofmeasure.org","unit":"mg/dL","value":105.19076091156751}}},{"resource":{"category":[{"coding":[{"code":"laboratory","display":"laboratory","system":"http://hl7.org/fhir/observation-category"}]}],"code":{"coding":[{"code":"6299-2","display":"Urea Nitrogen","system":"http://loinc.org"}],"text":"Urea Nitrogen"},"context":{"reference":"Encounter/1cccc2b5-6a1b-4471-995c-acbc13cab470"},"effectiveDateTime":"2017-03-24T07:22:52-04:00","id":"153cacf1-e4bd-4382-81ed-85d9b4ddd08a","issued":"2017-03-24T07:22:52.702-04:00","meta":{"lastUpdated":"2019-04-09T11:41:08.895134+00:00","versionId":"MTU1NDgxMDA2ODg5NTEzNDAwMA"},"resourceType":"Observation","status":"final","subject":{"reference":"Patient/00d2188b-1561-4950-a95e-e88e01038377"},"valueQuantity":{"code":"mg/dL","system":"http://unitsofmeasure.org","unit":"mg/dL","value":11.98071350940252}}},{"resource":{"category":[{"coding":[{"code":"vital-signs","display":"vital-signs","system":"http://hl7.org/fhir/observation-category"}]}],"code":{"coding":[{"code":"8302-2","display":"Body Height","system":"http://loinc.org"}],"text":"Body Height"},"context":{"reference":"Encounter/729bac78-192c-487d-81f5-fd91cc0d45ef"},"effectiveDateTime":"2011-05-20T07:22:52-04:00","id":"1595eb4a-d341-4e4d-9c95-2080a1f3b800","issued":"2011-05-20T07:22:52.702-04:00","meta":{"lastUpdated":"2019-04-09T11:41:06.807402+00:00","versionId":"MTU1NDgxMDA2NjgwNzQwMjAwMA"},"resourceType":"Observation","status":"final","subject":{"reference":"Patient/00d2188b-1561-4950-a95e-e88e01038377"},"valueQuantity":{"code":"cm","system":"http://unitsofmeasure.org","unit":"cm","value":161.1174941370305}}},{"resource":{"category":[{"coding":[{"code":"laboratory","display":"laboratory","system":"http://hl7.org/fhir/observation-category"}]}],"code":{"coding":[{"code":"6298-4","display":"Potassium","system":"http://loinc.org"}],"text":"Potassium"},"context":{"reference":"Encounter/56deea73-2286-4a69-8f70-4fbda8ec9752"},"effectiveDateTime":"2018-03-30T07:22:52-04:00","id":"1a924e79-b036-4c60-9833-3c37d133e2ec","issued":"2018-03-30T07:22:52.702-04:00","meta":{"lastUpdated":"2019-04-09T11:41:09.908719+00:00","versionId":"MTU1NDgxMDA2OTkwODcxOTAwMA"},"resourceType":"Observation","status":"final","subject":{"reference":"Patient/00d2188b-1561-4950-a95e-e88e01038377"},"valueQuantity":{"code":"mmol/L","system":"http://unitsofmeasure.org","unit":"mmol/L","value":4.703675674712196}}},{"resource":{"category":[{"coding":[{"code":"vital-signs","display":"vital-signs","system":"http://hl7.org/fhir/observation-category"}]}],"code":{"coding":[{"code":"8302-2","display":"Body Height","system":"http://loinc.org"}],"text":"Body Height"},"context":{"reference":"Encounter/56deea73-2286-4a69-8f70-4fbda8ec9752"},"effectiveDateTime":"2018-03-30T07:22:52-04:00","id":"1c94ae1a-5fdb-4ab0-b412-9ff878ae5679","issued":"2018-03-30T07:22:52.702-04:00","meta":{"lastUpdated":"2019-04-09T11:41:09.908717+00:00","versionId":"MTU1NDgxMDA2OTkwODcxNzAwMA"},"resourceType":"Observation","status":"final","subject":{"reference":"Patient/00d2188b-1561-4950-a95e-e88e01038377"},"valueQuantity":{"code":"cm","system":"http://unitsofmeasure.org","unit":"cm","value":161.1174941370305}}},{"resource":{"category":[{"coding":[{"code":"laboratory","display":"laboratory","system":"http://hl7.org/fhir/observation-category"}]}],"code":{"coding":[{"code":"49765-1","display":"Calcium","system":"http://loinc.org"}],"text":"Calcium"},"context":{"reference":"Encounter/729bac78-192c-487d-81f5-fd91cc0d45ef"},"effectiveDateTime":"2011-05-20T07:22:52-04:00","id":"1caa001b-ceff-4b3f-8073-9dd31ec5c3d0","issued":"2011-05-20T07:22:52.702-04:00","meta":{"lastUpdated":"2019-04-09T11:41:06.807589+00:00","versionId":"MTU1NDgxMDA2NjgwNzU4OTAwMA"},"resourceType":"Observation","status":"final","subject":{"reference":"Patient/00d2188b-1561-4950-a95e-e88e01038377"},"valueQuantity":{"code":"mg/dL","system":"http://unitsofmeasure.org","unit":"mg/dL","value":10.081026938962408}}},{"resource":{"category":[{"coding":[{"code":"vital-signs","display":"vital-signs","system":"http://hl7.org/fhir/observation-category"}]}],"code":{"coding":[{"code":"29463-7","display":"Body Weight","system":"http://loinc.org"}],"text":"Body Weight"},"context":{"reference":"Encounter/5d765d8b-ca9b-4560-ba21-112ef26dc25c"},"effectiveDateTime":"2016-03-18T07:22:52-04:00","id":"1cedc0a4-51ca-476f-a560-fd1282bfb5df","issued":"2016-03-18T07:22:52.702-04:00","meta":{"lastUpdated":"2019-04-09T11:41:08.879023+00:00","versionId":"MTU1NDgxMDA2ODg3OTAyMzAwMA"},"resourceType":"Observation","status":"final","subject":{"reference":"Patient/00d2188b-1561-4950-a95e-e88e01038377"},"valueQuantity":{"code":"kg","system":"http://unitsofmeasure.org","unit":"kg","value":103.0833695526437}}},{"resource":{"category":[{"coding":[{"code":"laboratory","display":"laboratory","system":"http://hl7.org/fhir/observation-category"}]}],"code":{"coding":[{"code":"2069-3","display":"Chloride","system":"http://loinc.org"}],"text":"Chloride"},"context":{"reference":"Encounter/cd0b9665-07fd-402d-8f79-2f8e54b71278"},"effectiveDateTime":"2013-05-24T07:22:52-04:00","id":"1d4fd220-0c42-46ae-892d-1ac85a3cc696","issued":"2013-05-24T07:22:52.702-04:00","meta":{"lastUpdated":"2019-04-09T11:41:07.863603+00:00","versionId":"MTU1NDgxMDA2Nzg2MzYwMzAwMA"},"resourceType":"Observation","status":"final","subject":{"reference":"Patient/00d2188b-1561-4950-a95e-e88e01038377"},"valueQuantity":{"code":"mmol/L","system":"http://unitsofmeasure.org","unit":"mmol/L","value":104.74956229214004}}},{"resource":{"category":[{"coding":[{"code":"laboratory","display":"laboratory","system":"http://hl7.org/fhir/observation-category"}]}],"code":{"coding":[{"code":"777-3","display":"Platelets [#/volume] in Blood by Automated count","system":"http://loinc.org"}],"text":"Platelets [#/volume] in Blood by Automated count"},"context":{"reference":"Encounter/729bac78-192c-487d-81f5-fd91cc0d45ef"},"effectiveDateTime":"2011-05-20T07:22:52-04:00","id":"1e12dc1e-d18a-44c5-a711-5a1d79cbac5e","issued":"2011-05-20T07:22:52.702-04:00","meta":{"lastUpdated":"2019-04-09T11:41:06.807980+00:00","versionId":"MTU1NDgxMDA2NjgwNzk4MDAwMA"},"resourceType":"Observation","status":"final","subject":{"reference":"Patient/00d2188b-1561-4950-a95e-e88e01038377"},"valueQuantity":{"code":"10*3/uL","system":"http://unitsofmeasure.org","unit":"10*3/uL","value":212.13728431602277}}},{"resource":{"category":[{"coding":[{"code":"vital-signs","display":"vital-signs","system":"http://hl7.org/fhir/observation-category"}]}],"code":{"coding":[{"code":"39156-5","display":"Body Mass Index","system":"http://loinc.org"}],"text":"Body Mass Index"},"context":{"reference":"Encounter/c5f3a94d-dc2a-40dd-9d79-08b1033142d5"},"effectiveDateTime":"2015-03-13T07:22:52-04:00","id":"1e230eb6-fe8d-462d-b64a-e07c01496eae","issued":"2015-03-13T07:22:52.702-04:00","meta":{"lastUpdated":"2019-04-09T11:41:07.864773+00:00","versionId":"MTU1NDgxMDA2Nzg2NDc3MzAwMA"},"resourceType":"Observation","status":"final","subject":{"reference":"Patient/00d2188b-1561-4950-a95e-e88e01038377"},"valueQuantity":{"code":"kg/m2","system":"http://unitsofmeasure.org","unit":"kg/m2","value":39.71030372891943}}},{"resource":{"category":[{"coding":[{"code":"survey","display":"survey","system":"http://hl7.org/fhir/observation-category"}]}],"code":{"coding":[{"code":"72166-2","display":"Tobacco smoking status NHIS","system":"http://loinc.org"}],"text":"Tobacco smoking status NHIS"},"context":{"reference":"Encounter/729bac78-192c-487d-81f5-fd91cc0d45ef"},"effectiveDateTime":"2011-05-20T07:22:52-04:00","id":"1f397990-170d-4324-b7ee-014866209f56","issued":"2011-05-20T07:22:52.702-04:00","meta":{"lastUpdated":"2019-04-09T11:41:06.808121+00:00","versionId":"MTU1NDgxMDA2NjgwODEyMTAwMA"},"resourceType":"Observation","status":"final","subject":{"reference":"Patient/00d2188b-1561-4950-a95e-e88e01038377"},"valueCodeableConcept":{"coding":[{"code":"266919005","display":"Never smoker","system":"http://snomed.info/sct"}],"text":"Never smoker"}}},{"resource":{"category":[{"coding":[{"code":"laboratory","display":"laboratory","system":"http://hl7.org/fhir/observation-category"}]}],"code":{"coding":[{"code":"38483-4","display":"Creatinine","system":"http://loinc.org"}],"text":"Creatinine"},"context":{"reference":"Encounter/5d765d8b-ca9b-4560-ba21-112ef26dc25c"},"effectiveDateTime":"2016-03-18T07:22:52-04:00","id":"2222876e-97ab-426d-8ac3-3c90258bf23b","issued":"2016-03-18T07:22:52.702-04:00","meta":{"lastUpdated":"2019-04-09T11:41:08.893083+00:00","versionId":"MTU1NDgxMDA2ODg5MzA4MzAwMA"},"resourceType":"Observation","status":"final","subject":{"reference":"Patient/00d2188b-1561-4950-a95e-e88e01038377"},"valueQuantity":{"code":"mg/dL","system":"http://unitsofmeasure.org","unit":"mg/dL","value":1.0952608014968395}}},{"resource":{"category":[{"coding":[{"code":"laboratory","display":"laboratory","system":"http://hl7.org/fhir/observation-category"}]}],"code":{"coding":[{"code":"777-3","display":"Platelets [#/volume] in Blood by Automated count","system":"http://loinc.org"}],"text":"Platelets [#/volume] in Blood by Automated count"},"context":{"reference":"Encounter/1cccc2b5-6a1b-4471-995c-acbc13cab470"},"effectiveDateTime":"2017-03-24T07:22:52-04:00","id":"2696cfb3-876e-4aa5-bc3f-e320a5699977","issued":"2017-03-24T07:22:52.702-04:00","meta":{"lastUpdated":"2019-04-09T11:41:08.893280+00:00","versionId":"MTU1NDgxMDA2ODg5MzI4MDAwMA"},"resourceType":"Observation","status":"final","subject":{"reference":"Patient/00d2188b-1561-4950-a95e-e88e01038377"},"valueQuantity":{"code":"10*3/uL","system":"http://unitsofmeasure.org","unit":"10*3/uL","value":413.0299912569503}}},{"resource":{"category":[{"coding":[{"code":"laboratory","display":"laboratory","system":"http://hl7.org/fhir/observation-category"}]}],"code":{"coding":[{"code":"4548-4","display":"Hemoglobin A1c/Hemoglobin.total in Blood","system":"http://loinc.org"}],"text":"Hemoglobin A1c/Hemoglobin.total in Blood"},"context":{"reference":"Encounter/dfac7f81-11da-4118-8d82-10d664486b37"},"effectiveDateTime":"2009-05-15T07:22:52-04:00","id":"27b8ee55-460e-4bfb-868e-8fab613f8510","issued":"2009-05-15T07:22:52.702-04:00","meta":{"lastUpdated":"2019-04-09T11:41:05.809142+00:00","versionId":"MTU1NDgxMDA2NTgwOTE0MjAwMA"},"resourceType":"Observation","status":"final","subject":{"reference":"Patient/00d2188b-1561-4950-a95e-e88e01038377"},"valueQuantity":{"code":"%","system":"http://unitsofmeasure.org","unit":"%","value":5.985310953743506}}},{"resource":{"category":[{"coding":[{"code":"laboratory","display":"laboratory","system":"http://hl7.org/fhir/observation-category"}]}],"code":{"coding":[{"code":"786-4","display":"MCHC [Mass/volume] by Automated count","system":"http://loinc.org"}],"text":"MCHC [Mass/volume] by Automated count"},"context":{"reference":"Encounter/1cccc2b5-6a1b-4471-995c-acbc13cab470"},"effectiveDateTime":"2017-03-24T07:22:52-04:00","id":"283cbce1-e4d4-41ad-a1db-5be45e20479f","issued":"2017-03-24T07:22:52.702-04:00","meta":{"lastUpdated":"2019-04-09T11:41:08.899541+00:00","versionId":"MTU1NDgxMDA2ODg5OTU0MTAwMA"},"resourceType":"Observation","status":"final","subject":{"reference":"Patient/00d2188b-1561-4950-a95e-e88e01038377"},"valueQuantity":{"code":"g/dL","system":"http://unitsofmeasure.org","unit":"g/dL","value":33.352979562883746}}},{"resource":{"category":[{"coding":[{"code":"laboratory","display":"laboratory","system":"http://hl7.org/fhir/observation-category"}]}],"code":{"coding":[{"code":"49765-1","display":"Calcium","system":"http://loinc.org"}],"text":"Calcium"},"context":{"reference":"Encounter/56deea73-2286-4a69-8f70-4fbda8ec9752"},"effectiveDateTime":"2018-03-30T07:22:52-04:00","id":"2c9f1781-eebf-4550-997c-48d1ff1c79dd","issued":"2018-03-30T07:22:52.702-04:00","meta":{"lastUpdated":"2019-04-09T11:41:09.901966+00:00","versionId":"MTU1NDgxMDA2OTkwMTk2NjAwMA"},"resourceType":"Observation","status":"final","subject":{"reference":"Patient/00d2188b-1561-4950-a95e-e88e01038377"},"valueQuantity":{"code":"mg/dL","system":"http://unitsofmeasure.org","unit":"mg/dL","value":9.439345375675764}}},{"resource":{"category":[{"coding":[{"code":"laboratory","display":"laboratory","system":"http://hl7.org/fhir/observation-category"}]}],"code":{"coding":[{"code":"6298-4","display":"Potassium","system":"http://loinc.org"}],"text":"Potassium"},"context":{"reference":"Encounter/c5f3a94d-dc2a-40dd-9d79-08b1033142d5"},"effectiveDateTime":"2015-03-13T07:22:52-04:00","id":"2cfce986-e9b5-4db3-a628-caee477c70af","issued":"2015-03-13T07:22:52.702-04:00","meta":{"lastUpdated":"2019-04-09T11:41:07.863401+00:00","versionId":"MTU1NDgxMDA2Nzg2MzQwMTAwMA"},"resourceType":"Observation","status":"final","subject":{"reference":"Patient/00d2188b-1561-4950-a95e-e88e01038377"},"valueQuantity":{"code":"mmol/L","system":"http://unitsofmeasure.org","unit":"mmol/L","value":3.7447452301328727}}},{"resource":{"category":[{"coding":[{"code":"vital-signs","display":"vital-signs","system":"http://hl7.org/fhir/observation-category"}]}],"code":{"coding":[{"code":"55284-4","display":"Blood Pressure","system":"http://loinc.org"}],"text":"Blood Pressure"},"component":[{"code":{"coding":[{"code":"8462-4","display":"Diastolic Blood Pressure","system":"http://loinc.org"}],"text":"Diastolic Blood Pressure"},"valueQuantity":{"code":"mmHg","system":"http://unitsofmeasure.org","unit":"mmHg","value":107.2033264299088}},{"code":{"coding":[{"code":"8480-6","display":"Systolic Blood Pressure","system":"http://loinc.org"}],"text":"Systolic Blood Pressure"},"valueQuantity":{"code":"mmHg","system":"http://unitsofmeasure.org","unit":"mmHg","value":193.15799684962195}}],"context":{"reference":"Encounter/5d765d8b-ca9b-4560-ba21-112ef26dc25c"},"effectiveDateTime":"2016-03-18T07:22:52-04:00","id":"30e6e6e0-7dd6-4129-a79d-d1834e715640","issued":"2016-03-18T07:22:52.702-04:00","meta":{"lastUpdated":"2019-04-09T11:41:08.899780+00:00","versionId":"MTU1NDgxMDA2ODg5OTc4MDAwMA"},"resourceType":"Observation","status":"final","subject":{"reference":"Patient/00d2188b-1561-4950-a95e-e88e01038377"}}},{"resource":{"category":[{"coding":[{"code":"survey","display":"survey","system":"http://hl7.org/fhir/observation-category"}]}],"code":{"coding":[{"code":"72166-2","display":"Tobacco smoking status NHIS","system":"http://loinc.org"}],"text":"Tobacco smoking status NHIS"},"context":{"reference":"Encounter/c5f3a94d-dc2a-40dd-9d79-08b1033142d5"},"effectiveDateTime":"2015-03-13T07:22:52-04:00","id":"34b820d6-69e1-4d1b-bd17-85e7d37b67b6","issued":"2015-03-13T07:22:52.702-04:00","meta":{"lastUpdated":"2019-04-09T11:41:07.863611+00:00","versionId":"MTU1NDgxMDA2Nzg2MzYxMTAwMA"},"resourceType":"Observation","status":"final","subject":{"reference":"Patient/00d2188b-1561-4950-a95e-e88e01038377"},"valueCodeableConcept":{"coding":[{"code":"266919005","display":"Never smoker","system":"http://snomed.info/sct"}],"text":"Never smoker"}}},{"resource":{"category":[{"coding":[{"code":"laboratory","display":"laboratory","system":"http://hl7.org/fhir/observation-category"}]}],"code":{"coding":[{"code":"2339-0","display":"Glucose","system":"http://loinc.org"}],"text":"Glucose"},"context":{"reference":"Encounter/dfac7f81-11da-4118-8d82-10d664486b37"},"effectiveDateTime":"2009-05-15T07:22:52-04:00","id":"350b044f-331a-494a-ba0e-7e37b232a727","issued":"2009-05-15T07:22:52.702-04:00","meta":{"lastUpdated":"2019-04-09T11:41:05.815051+00:00","versionId":"MTU1NDgxMDA2NTgxNTA1MTAwMA"},"resourceType":"Observation","status":"final","subject":{"reference":"Patient/00d2188b-1561-4950-a95e-e88e01038377"},"valueQuantity":{"code":"mg/dL","system":"http://unitsofmeasure.org","unit":"mg/dL","value":89.43051052499725}}},{"resource":{"category":[{"coding":[{"code":"vital-signs","display":"vital-signs","system":"http://hl7.org/fhir/observation-category"}]}],"code":{"coding":[{"code":"29463-7","display":"Body Weight","system":"http://loinc.org"}],"text":"Body Weight"},"context":{"reference":"Encounter/729bac78-192c-487d-81f5-fd91cc0d45ef"},"effectiveDateTime":"2011-05-20T07:22:52-04:00","id":"359f6b00-2f00-464f-bfef-e81cd4c90360","issued":"2011-05-20T07:22:52.702-04:00","meta":{"lastUpdated":"2019-04-09T11:41:06.806805+00:00","versionId":"MTU1NDgxMDA2NjgwNjgwNTAwMA"},"resourceType":"Observation","status":"final","subject":{"reference":"Patient/00d2188b-1561-4950-a95e-e88e01038377"},"valueQuantity":{"code":"kg","system":"http://unitsofmeasure.org","unit":"kg","value":98.84609716260132}}},{"resource":{"category":[{"coding":[{"code":"laboratory","display":"laboratory","system":"http://hl7.org/fhir/observation-category"}]}],"code":{"coding":[{"code":"4544-3","display":"Hematocrit [Volume Fraction] of Blood by Automated count","system":"http://loinc.org"}],"text":"Hematocrit [Volume Fraction] of Blood by Automated count"},"context":{"reference":"Encounter/729bac78-192c-487d-81f5-fd91cc0d45ef"},"effectiveDateTime":"2011-05-20T07:22:52-04:00","id":"362aa45d-838e-4ec8-8df4-1791ec9bf802","issued":"2011-05-20T07:22:52.702-04:00","meta":{"lastUpdated":"2019-04-09T11:41:06.810001+00:00","versionId":"MTU1NDgxMDA2NjgxMDAwMTAwMA"},"resourceType":"Observation","status":"final","subject":{"reference":"Patient/00d2188b-1561-4950-a95e-e88e01038377"},"valueQuantity":{"code":"%","system":"http://unitsofmeasure.org","unit":"%","value":44.08914316191951}}},{"resource":{"category":[{"coding":[{"code":"laboratory","display":"laboratory","system":"http://hl7.org/fhir/observation-category"}]}],"code":{"coding":[{"code":"38483-4","display":"Creatinine","system":"http://loinc.org"}],"text":"Creatinine"},"context":{"reference":"Encounter/1cccc2b5-6a1b-4471-995c-acbc13cab470"},"effectiveDateTime":"2017-03-24T07:22:52-04:00","id":"37a14b2a-ba37-4283-b148-f771454d13a4","issued":"2017-03-24T07:22:52.702-04:00","meta":{"lastUpdated":"2019-04-09T11:41:08.883217+00:00","versionId":"MTU1NDgxMDA2ODg4MzIxNzAwMA"},"resourceType":"Observation","status":"final","subject":{"reference":"Patient/00d2188b-1561-4950-a95e-e88e01038377"},"valueQuantity":{"code":"mg/dL","system":"http://unitsofmeasure.org","unit":"mg/dL","value":1.217936304823282}}},{"resource":{"category":[{"coding":[{"code":"laboratory","display":"laboratory","system":"http://hl7.org/fhir/observation-category"}]}],"code":{"coding":[{"code":"6299-2","display":"Urea Nitrogen","system":"http://loinc.org"}],"text":"Urea Nitrogen"},"context":{"reference":"Encounter/56deea73-2286-4a69-8f70-4fbda8ec9752"},"effectiveDateTime":"2018-03-30T07:22:52-04:00","id":"39ae7eb6-5900-4f41-bd39-c43e036bafb9","issued":"2018-03-30T07:22:52.702-04:00","meta":{"lastUpdated":"2019-04-09T11:41:09.909090+00:00","versionId":"MTU1NDgxMDA2OTkwOTA5MDAwMA"},"resourceType":"Observation","status":"final","subject":{"reference":"Patient/00d2188b-1561-4950-a95e-e88e01038377"},"valueQuantity":{"code":"mg/dL","system":"http://unitsofmeasure.org","unit":"mg/dL","value":7.1342545162500866}}},{"resource":{"category":[{"coding":[{"code":"laboratory","display":"laboratory","system":"http://hl7.org/fhir/observation-category"}]}],"code":{"coding":[{"code":"6298-4","display":"Potassium","system":"http://loinc.org"}],"text":"Potassium"},"context":{"reference":"Encounter/729bac78-192c-487d-81f5-fd91cc0d45ef"},"effectiveDateTime":"2011-05-20T07:22:52-04:00","id":"3b8d2c8e-4d48-4835-bb0a-63e4ac45ee9c","issued":"2011-05-20T07:22:52.702-04:00","meta":{"lastUpdated":"2019-04-09T11:41:06.810007+00:00","versionId":"MTU1NDgxMDA2NjgxMDAwNzAwMA"},"resourceType":"Observation","status":"final","subject":{"reference":"Patient/00d2188b-1561-4950-a95e-e88e01038377"},"valueQuantity":{"code":"mmol/L","system":"http://unitsofmeasure.org","unit":"mmol/L","value":4.962357724409044}}},{"resource":{"category":[{"coding":[{"code":"laboratory","display":"laboratory","system":"http://hl7.org/fhir/observation-category"}]}],"code":{"coding":[{"code":"4548-4","display":"Hemoglobin A1c/Hemoglobin.total in Blood","system":"http://loinc.org"}],"text":"Hemoglobin A1c/Hemoglobin.total in Blood"},"context":{"reference":"Encounter/56deea73-2286-4a69-8f70-4fbda8ec9752"},"effectiveDateTime":"2018-03-30T07:22:52-04:00","id":"3cb4d53b-fc56-44cd-9ead-8de237243ca0","issued":"2018-03-30T07:22:52.702-04:00","meta":{"lastUpdated":"2019-04-09T11:41:09.908718+00:00","versionId":"MTU1NDgxMDA2OTkwODcxODAwMA"},"resourceType":"Observation","status":"final","subject":{"reference":"Patient/00d2188b-1561-4950-a95e-e88e01038377"},"valueQuantity":{"code":"%","system":"http://unitsofmeasure.org","unit":"%","value":6.1005979585813375}}},{"resource":{"category":[{"coding":[{"code":"laboratory","display":"laboratory","system":"http://hl7.org/fhir/observation-category"}]}],"code":{"coding":[{"code":"20565-8","display":"Carbon Dioxide","system":"http://loinc.org"}],"text":"Carbon Dioxide"},"context":{"reference":"Encounter/56deea73-2286-4a69-8f70-4fbda8ec9752"},"effectiveDateTime":"2018-03-30T07:22:52-04:00","id":"3e9aed2e-1860-4f97-bda4-25284d03515e","issued":"2018-03-30T07:22:52.702-04:00","meta":{"lastUpdated":"2019-04-09T11:41:09.901850+00:00","versionId":"MTU1NDgxMDA2OTkwMTg1MDAwMA"},"resourceType":"Observation","status":"final","subject":{"reference":"Patient/00d2188b-1561-4950-a95e-e88e01038377"},"valueQuantity":{"code":"mmol/L","system":"http://unitsofmeasure.org","unit":"mmol/L","value":23.46194347037902}}},{"resource":{"category":[{"coding":[{"code":"laboratory","display":"laboratory","system":"http://hl7.org/fhir/observation-category"}]}],"code":{"coding":[{"code":"2947-0","display":"Sodium","system":"http://loinc.org"}],"text":"Sodium"},"context":{"reference":"Encounter/5d765d8b-ca9b-4560-ba21-112ef26dc25c"},"effectiveDateTime":"2016-03-18T07:22:52-04:00","id":"3eba8350-9243-4734-a632-e12ef59be716","issued":"2016-03-18T07:22:52.702-04:00","meta":{"lastUpdated":"2019-04-09T11:41:08.879022+00:00","versionId":"MTU1NDgxMDA2ODg3OTAyMjAwMA"},"resourceType":"Observation","status":"final","subject":{"reference":"Patient/00d2188b-1561-4950-a95e-e88e01038377"},"valueQuantity":{"code":"mmol/L","system":"http://unitsofmeasure.org","unit":"mmol/L","value":142.6582234259177}}},{"resource":{"category":[{"coding":[{"code":"laboratory","display":"laboratory","system":"http://hl7.org/fhir/observation-category"}]}],"code":{"coding":[{"code":"787-2","display":"MCV [Entitic volume] by Automated count","system":"http://loinc.org"}],"text":"MCV [Entitic volume] by Automated count"},"context":{"reference":"Encounter/729bac78-192c-487d-81f5-fd91cc0d45ef"},"effectiveDateTime":"2011-05-20T07:22:52-04:00","id":"3fa57a24-b3fb-412d-85da-b1fff90a4ddc","issued":"2011-05-20T07:22:52.702-04:00","meta":{"lastUpdated":"2019-04-09T11:41:06.810002+00:00","versionId":"MTU1NDgxMDA2NjgxMDAwMjAwMA"},"resourceType":"Observation","status":"final","subject":{"reference":"Patient/00d2188b-1561-4950-a95e-e88e01038377"},"valueQuantity":{"code":"fL","system":"http://unitsofmeasure.org","unit":"fL","value":86.85559025866311}}},{"resource":{"category":[{"coding":[{"code":"vital-signs","display":"vital-signs","system":"http://hl7.org/fhir/observation-category"}]}],"code":{"coding":[{"code":"39156-5","display":"Body Mass Index","system":"http://loinc.org"}],"text":"Body Mass Index"},"context":{"reference":"Encounter/729bac78-192c-487d-81f5-fd91cc0d45ef"},"effectiveDateTime":"2011-05-20T07:22:52-04:00","id":"43112b36-77ad-4db5-a904-3d69887bd23d","issued":"2011-05-20T07:22:52.702-04:00","meta":{"lastUpdated":"2019-04-09T11:41:06.810000+00:00","versionId":"MTU1NDgxMDA2NjgxMDAwMDAwMA"},"resourceType":"Observation","status":"final","subject":{"reference":"Patient/00d2188b-1561-4950-a95e-e88e01038377"},"valueQuantity":{"code":"kg/m2","system":"http://unitsofmeasure.org","unit":"kg/m2","value":38.07799995071574}}},{"resource":{"category":[{"coding":[{"code":"laboratory","display":"laboratory","system":"http://hl7.org/fhir/observation-category"}]}],"code":{"coding":[{"code":"2069-3","display":"Chloride","system":"http://loinc.org"}],"text":"Chloride"},"context":{"reference":"Encounter/dfac7f81-11da-4118-8d82-10d664486b37"},"effectiveDateTime":"2009-05-15T07:22:52-04:00","id":"43314102-66c8-43db-8907-5ebc93499e86","issued":"2009-05-15T07:22:52.702-04:00","meta":{"lastUpdated":"2019-04-09T11:41:05.816483+00:00","versionId":"MTU1NDgxMDA2NTgxNjQ4MzAwMA"},"resourceType":"Observation","status":"final","subject":{"reference":"Patient/00d2188b-1561-4950-a95e-e88e01038377"},"valueQuantity":{"code":"mmol/L","system":"http://unitsofmeasure.org","unit":"mmol/L","value":105.28329172946866}}},{"resource":{"category":[{"coding":[{"code":"laboratory","display":"laboratory","system":"http://hl7.org/fhir/observation-category"}]}],"code":{"coding":[{"code":"6298-4","display":"Potassium","system":"http://loinc.org"}],"text":"Potassium"},"context":{"reference":"Encounter/5d765d8b-ca9b-4560-ba21-112ef26dc25c"},"effectiveDateTime":"2016-03-18T07:22:52-04:00","id":"4338b0df-3bdd-41a9-88b7-7e065593b9ce","issued":"2016-03-18T07:22:52.702-04:00","meta":{"lastUpdated":"2019-04-09T11:41:08.884641+00:00","versionId":"MTU1NDgxMDA2ODg4NDY0MTAwMA"},"resourceType":"Observation","status":"final","subject":{"reference":"Patient/00d2188b-1561-4950-a95e-e88e01038377"},"valueQuantity":{"code":"mmol/L","system":"http://unitsofmeasure.org","unit":"mmol/L","value":4.992285680212691}}},{"resource":{"category":[{"coding":[{"code":"laboratory","display":"laboratory","system":"http://hl7.org/fhir/observation-category"}]}],"code":{"coding":[{"code":"4548-4","display":"Hemoglobin A1c/Hemoglobin.total in Blood","system":"http://loinc.org"}],"text":"Hemoglobin A1c/Hemoglobin.total in Blood"},"context":{"reference":"Encounter/1cccc2b5-6a1b-4471-995c-acbc13cab470"},"effectiveDateTime":"2017-03-24T07:22:52-04:00","id":"43928672-328b-4660-80d4-0580335b4107","issued":"2017-03-24T07:22:52.702-04:00","meta":{"lastUpdated":"2019-04-09T11:41:09.909085+00:00","versionId":"MTU1NDgxMDA2OTkwOTA4NTAwMA"},"resourceType":"Observation","status":"final","subject":{"reference":"Patient/00d2188b-1561-4950-a95e-e88e01038377"},"valueQuantity":{"code":"%","system":"http://unitsofmeasure.org","unit":"%","value":5.974433457721075}}},{"resource":{"category":[{"coding":[{"code":"laboratory","display":"laboratory","system":"http://hl7.org/fhir/observation-category"}]}],"code":{"coding":[{"code":"2947-0","display":"Sodium","system":"http://loinc.org"}],"text":"Sodium"},"context":{"reference":"Encounter/cd0b9665-07fd-402d-8f79-2f8e54b71278"},"effectiveDateTime":"2013-05-24T07:22:52-04:00","id":"43c5f378-6c4c-42ec-9ad5-f613bc4348b3","issued":"2013-05-24T07:22:52.702-04:00","meta":{"lastUpdated":"2019-04-09T11:41:07.863606+00:00","versionId":"MTU1NDgxMDA2Nzg2MzYwNjAwMA"},"resourceType":"Observation","status":"final","subject":{"reference":"Patient/00d2188b-1561-4950-a95e-e88e01038377"},"valueQuantity":{"code":"mmol/L","system":"http://unitsofmeasure.org","unit":"mmol/L","value":141.3285055904443}}},{"resource":{"category":[{"coding":[{"code":"vital-signs","display":"vital-signs","system":"http://hl7.org/fhir/observation-category"}]}],"code":{"coding":[{"code":"8302-2","display":"Body Height","system":"http://loinc.org"}],"text":"Body Height"},"context":{"reference":"Encounter/cd0b9665-07fd-402d-8f79-2f8e54b71278"},"effectiveDateTime":"2013-05-24T07:22:52-04:00","id":"43fe3715-06d4-4027-b30d-1b02ea61fbad","issued":"2013-05-24T07:22:52.702-04:00","meta":{"lastUpdated":"2019-04-09T11:41:07.862634+00:00","versionId":"MTU1NDgxMDA2Nzg2MjYzNDAwMA"},"resourceType":"Observation","status":"final","subject":{"reference":"Patient/00d2188b-1561-4950-a95e-e88e01038377"},"valueQuantity":{"code":"cm","system":"http://unitsofmeasure.org","unit":"cm","value":161.1174941370305}}},{"resource":{"category":[{"coding":[{"code":"laboratory","display":"laboratory","system":"http://hl7.org/fhir/observation-category"}]}],"code":{"coding":[{"code":"2947-0","display":"Sodium","system":"http://loinc.org"}],"text":"Sodium"},"context":{"reference":"Encounter/dfac7f81-11da-4118-8d82-10d664486b37"},"effectiveDateTime":"2009-05-15T07:22:52-04:00","id":"44d75680-b6c4-41cf-a45d-841f3b3ad215","issued":"2009-05-15T07:22:52.702-04:00","meta":{"lastUpdated":"2019-04-09T11:41:05.809239+00:00","versionId":"MTU1NDgxMDA2NTgwOTIzOTAwMA"},"resourceType":"Observation","status":"final","subject":{"reference":"Patient/00d2188b-1561-4950-a95e-e88e01038377"},"valueQuantity":{"code":"mmol/L","system":"http://unitsofmeasure.org","unit":"mmol/L","value":139.27013033467514}}},{"resource":{"category":[{"coding":[{"code":"vital-signs","display":"vital-signs","system":"http://hl7.org/fhir/observation-category"}]}],"code":{"coding":[{"code":"72514-3","display":"Pain severity - 0-10 verbal numeric rating [Score] - Reported","system":"http://loinc.org"}],"text":"Pain severity - 0-10 verbal numeric rating [Score] - Reported"},"context":{"reference":"Encounter/cd0b9665-07fd-402d-8f79-2f8e54b71278"},"effectiveDateTime":"2013-05-24T07:22:52-04:00","id":"4667cde3-6849-4d0d-a166-43f5261e8ffb","issued":"2013-05-24T07:22:52.702-04:00","meta":{"lastUpdated":"2019-04-09T11:41:07.862553+00:00","versionId":"MTU1NDgxMDA2Nzg2MjU1MzAwMA"},"resourceType":"Observation","status":"final","subject":{"reference":"Patient/00d2188b-1561-4950-a95e-e88e01038377"},"valueQuantity":{"code":"{score}","system":"http://unitsofmeasure.org","unit":"{score}","value":0.43823637139322846}}},{"resource":{"category":[{"coding":[{"code":"vital-signs","display":"vital-signs","system":"http://hl7.org/fhir/observation-category"}]}],"code":{"coding":[{"code":"55284-4","display":"Blood Pressure","system":"http://loinc.org"}],"text":"Blood Pressure"},"component":[{"code":{"coding":[{"code":"8462-4","display":"Diastolic Blood Pressure","system":"http://loinc.org"}],"text":"Diastolic Blood Pressure"},"valueQuantity":{"code":"mmHg","system":"http://unitsofmeasure.org","unit":"mmHg","value":94.96618449338507}},{"code":{"coding":[{"code":"8480-6","display":"Systolic Blood Pressure","system":"http://loinc.org"}],"text":"Systolic Blood Pressure"},"valueQuantity":{"code":"mmHg","system":"http://unitsofmeasure.org","unit":"mmHg","value":181.3120503261793}}],"context":{"reference":"Encounter/1cccc2b5-6a1b-4471-995c-acbc13cab470"},"effectiveDateTime":"2017-03-24T07:22:52-04:00","id":"483fa19e-6802-41b8-b77b-71dd0c580f77","issued":"2017-03-24T07:22:52.702-04:00","meta":{"lastUpdated":"2019-04-09T11:41:08.899539+00:00","versionId":"MTU1NDgxMDA2ODg5OTUzOTAwMA"},"resourceType":"Observation","status":"final","subject":{"reference":"Patient/00d2188b-1561-4950-a95e-e88e01038377"}}},{"resource":{"category":[{"coding":[{"code":"vital-signs","display":"vital-signs","system":"http://hl7.org/fhir/observation-category"}]}],"code":{"coding":[{"code":"39156-5","display":"Body Mass Index","system":"http://loinc.org"}],"text":"Body Mass Index"},"context":{"reference":"Encounter/cd0b9665-07fd-402d-8f79-2f8e54b71278"},"effectiveDateTime":"2013-05-24T07:22:52-04:00","id":"48c47ae5-7d03-4786-8f78-8d388abc75f3","issued":"2013-05-24T07:22:52.702-04:00","meta":{"lastUpdated":"2019-04-09T11:41:07.863604+00:00","versionId":"MTU1NDgxMDA2Nzg2MzYwNDAwMA"},"resourceType":"Observation","status":"final","subject":{"reference":"Patient/00d2188b-1561-4950-a95e-e88e01038377"},"valueQuantity":{"code":"kg/m2","system":"http://unitsofmeasure.org","unit":"kg/m2","value":39.09415102492576}}},{"resource":{"category":[{"coding":[{"code":"vital-signs","display":"vital-signs","system":"http://hl7.org/fhir/observation-category"}]}],"code":{"coding":[{"code":"55284-4","display":"Blood Pressure","system":"http://loinc.org"}],"text":"Blood Pressure"},"component":[{"code":{"coding":[{"code":"8462-4","display":"Diastolic Blood Pressure","system":"http://loinc.org"}],"text":"Diastolic Blood Pressure"},"valueQuantity":{"code":"mmHg","system":"http://unitsofmeasure.org","unit":"mmHg","value":99.37392413383725}},{"code":{"coding":[{"code":"8480-6","display":"Systolic Blood Pressure","system":"http://loinc.org"}],"text":"Systolic Blood Pressure"},"valueQuantity":{"code":"mmHg","system":"http://unitsofmeasure.org","unit":"mmHg","value":160.02077468262505}}],"context":{"reference":"Encounter/729bac78-192c-487d-81f5-fd91cc0d45ef"},"effectiveDateTime":"2011-05-20T07:22:52-04:00","id":"4a79979c-10b3-4bb1-a31a-e07d7e921883","issued":"2011-05-20T07:22:52.702-04:00","meta":{"lastUpdated":"2019-04-09T11:41:06.810006+00:00","versionId":"MTU1NDgxMDA2NjgxMDAwNjAwMA"},"resourceType":"Observation","status":"final","subject":{"reference":"Patient/00d2188b-1561-4950-a95e-e88e01038377"}}},{"resource":{"category":[{"coding":[{"code":"laboratory","display":"laboratory","system":"http://hl7.org/fhir/observation-category"}]}],"code":{"coding":[{"code":"38483-4","display":"Creatinine","system":"http://loinc.org"}],"text":"Creatinine"},"context":{"reference":"Encounter/c5f3a94d-dc2a-40dd-9d79-08b1033142d5"},"effectiveDateTime":"2015-03-13T07:22:52-04:00","id":"4c3cd1ca-6f6a-4ff5-ade3-088b7f656edd","issued":"2015-03-13T07:22:52.702-04:00","meta":{"lastUpdated":"2019-04-09T11:41:07.864772+00:00","versionId":"MTU1NDgxMDA2Nzg2NDc3MjAwMA"},"resourceType":"Observation","status":"final","subject":{"reference":"Patient/00d2188b-1561-4950-a95e-e88e01038377"},"valueQuantity":{"code":"mg/dL","system":"http://unitsofmeasure.org","unit":"mg/dL","value":1.1074303659579154}}},{"resource":{"category":[{"coding":[{"code":"laboratory","display":"laboratory","system":"http://hl7.org/fhir/observation-category"}]}],"code":{"coding":[{"code":"6690-2","display":"Leukocytes [#/volume] in Blood by Automated count","system":"http://loinc.org"}],"text":"Leukocytes [#/volume] in Blood by Automated count"},"context":{"reference":"Encounter/729bac78-192c-487d-81f5-fd91cc0d45ef"},"effectiveDateTime":"2011-05-20T07:22:52-04:00","id":"4c73c749-9b35-403c-a16f-63b94a383794","issued":"2011-05-20T07:22:52.702-04:00","meta":{"lastUpdated":"2019-04-09T11:41:06.813535+00:00","versionId":"MTU1NDgxMDA2NjgxMzUzNTAwMA"},"resourceType":"Observation","status":"final","subject":{"reference":"Patient/00d2188b-1561-4950-a95e-e88e01038377"},"valueQuantity":{"code":"10*3/uL","system":"http://unitsofmeasure.org","unit":"10*3/uL","value":10.08855427583504}}},{"resource":{"category":[{"coding":[{"code":"laboratory","display":"laboratory","system":"http://hl7.org/fhir/observation-category"}]}],"code":{"coding":[{"code":"49765-1","display":"Calcium","system":"http://loinc.org"}],"text":"Calcium"},"context":{"reference":"Encounter/dfac7f81-11da-4118-8d82-10d664486b37"},"effectiveDateTime":"2009-05-15T07:22:52-04:00","id":"4d22f53d-f7fa-4000-ada4-07672b678ec7","issued":"2009-05-15T07:22:52.702-04:00","meta":{"lastUpdated":"2019-04-09T11:41:05.808804+00:00","versionId":"MTU1NDgxMDA2NTgwODgwNDAwMA"},"resourceType":"Observation","status":"final","subject":{"reference":"Patient/00d2188b-1561-4950-a95e-e88e01038377"},"valueQuantity":{"code":"mg/dL","system":"http://unitsofmeasure.org","unit":"mg/dL","value":10.032649208693481}}},{"resource":{"category":[{"coding":[{"code":"vital-signs","display":"vital-signs","system":"http://hl7.org/fhir/observation-category"}]}],"code":{"coding":[{"code":"29463-7","display":"Body Weight","system":"http://loinc.org"}],"text":"Body Weight"},"context":{"reference":"Encounter/dfac7f81-11da-4118-8d82-10d664486b37"},"effectiveDateTime":"2009-05-15T07:22:52-04:00","id":"4dfd6399-b95b-41f0-ab86-0b9dfef8e2c5","issued":"2009-05-15T07:22:52.702-04:00","meta":{"lastUpdated":"2019-04-09T11:41:05.816478+00:00","versionId":"MTU1NDgxMDA2NTgxNjQ3ODAwMA"},"resourceType":"Observation","status":"final","subject":{"reference":"Patient/00d2188b-1561-4950-a95e-e88e01038377"},"valueQuantity":{"code":"kg","system":"http://unitsofmeasure.org","unit":"kg","value":96.54184997500167}}},{"resource":{"category":[{"coding":[{"code":"laboratory","display":"laboratory","system":"http://hl7.org/fhir/observation-category"}]}],"code":{"coding":[{"code":"4548-4","display":"Hemoglobin A1c/Hemoglobin.total in Blood","system":"http://loinc.org"}],"text":"Hemoglobin A1c/Hemoglobin.total in Blood"},"context":{"reference":"Encounter/cd0b9665-07fd-402d-8f79-2f8e54b71278"},"effectiveDateTime":"2013-05-24T07:22:52-04:00","id":"4ffddbe0-3667-40c3-af2e-7ffc6b98b00b","issued":"2013-05-24T07:22:52.702-04:00","meta":{"lastUpdated":"2019-04-09T11:41:07.862533+00:00","versionId":"MTU1NDgxMDA2Nzg2MjUzMzAwMA"},"resourceType":"Observation","status":"final","subject":{"reference":"Patient/00d2188b-1561-4950-a95e-e88e01038377"},"valueQuantity":{"code":"%","system":"http://unitsofmeasure.org","unit":"%","value":5.870138625912879}}},{"resource":{"category":[{"coding":[{"code":"laboratory","display":"laboratory","system":"http://hl7.org/fhir/observation-category"}]}],"code":{"coding":[{"code":"789-8","display":"Erythrocytes [#/volume] in Blood by Automated count","system":"http://loinc.org"}],"text":"Erythrocytes [#/volume] in Blood by Automated count"},"context":{"reference":"Encounter/1cccc2b5-6a1b-4471-995c-acbc13cab470"},"effectiveDateTime":"2017-03-24T07:22:52-04:00","id":"54a0388a-8259-4170-bbc5-a965c2c9a74e","issued":"2017-03-24T07:22:52.702-04:00","meta":{"lastUpdated":"2019-04-09T11:41:08.883372+00:00","versionId":"MTU1NDgxMDA2ODg4MzM3MjAwMA"},"resourceType":"Observation","status":"final","subject":{"reference":"Patient/00d2188b-1561-4950-a95e-e88e01038377"},"valueQuantity":{"code":"10*6/uL","system":"http://unitsofmeasure.org","unit":"10*6/uL","value":5.0021815756557295}}}],"link":[{"url":"https://syntheticmass.mitre.org/v1/fhir/Patient/00d2188b-1561-4950-a95e-e88e01038377/$everything?_count=100&page_token=CoIBcHJvamVjdHMvc3ludGhlYS9sb2NhdGlvbnMvdXMtY2VudHJhbDEvZGF0YXNldHMvMjAxOTAyL2ZoaXJTdG9yZXMvc3ludGhldGljLW1hc3MvZmhpci9QYXRpZW50LzAwZDIxODhiLTE1NjEtNDk1MC1hOTVlLWU4OGUwMTAzODM3Nw%3D%3D","relation":"previous"},{"url":"https://syntheticmass.mitre.org/v1/fhir/Patient/00d2188b-1561-4950-a95e-e88e01038377/$everything?_count=100&page_token=CoIBcHJvamVjdHMvc3ludGhlYS9sb2NhdGlvbnMvdXMtY2VudHJhbDEvZGF0YXNldHMvMjAxOTAyL2ZoaXJTdG9yZXMvc3ludGhldGljLW1hc3MvZmhpci9QYXRpZW50LzAwZDIxODhiLTE1NjEtNDk1MC1hOTVlLWU4OGUwMTAzODM3NyDIAQ%3D%3D","relation":"next"}],"total":309}
