{"resourceType":"Bundle","type":"searchset","entry":[{"resource":{"billablePeriod":{"end":"2016-05-29T11:59:59-04:00","start":"2016-05-29T11:44:59-04:00"},"id":"e7559f95-2fee-4cd8-b8b8-182cad946a0d","item":[{"encounter":[{"reference":"Encounter/e6fa3ef8-df7c-4d60-921e-f67fc6187c00"}],"sequence":1}],"meta":{"lastUpdated":"2019-04-09T09:57:49.727971+00:00","versionId":"MTU1NDgwMzg2OTcyNzk3MTAwMA"},"organization":{"reference":"Organization/958d48d5-22b1-4971-9dda-f5992f666ea4"},"patient":{"reference":"Patient/00c8c9ed-65fe-4f9a-8e75-7d31ac64a04b"},"resourceType":"Claim","status":"active","total":{"code":"USD","system":"urn:iso:std:iso:4217","value":125},"use":"complete"}},{"resource":{"billablePeriod":{"end":"2012-07-22T11:59:59-04:00","start":"2012-07-22T11:44:59-04:00"},"id":"e89105e1-a218-4deb-8328-0840e93f4a65","item":[{"encounter":[{"reference":"Encounter/428611c2-771b-4b96-a552-c9d9a8eebf8e"}],"sequence":1}],"meta":{"lastUpdated":"2019-04-09T09:57:28.751114+00:00","versionId":"MTU1NDgwMzg0ODc1MTExNDAwMA"},"organization":{"reference":"Organization/958d48d5-22b1-4971-9dda-f5992f666ea4"},"patient":{"reference":"Patient/00c8c9ed-65fe-4f9a-8e75-7d31ac64a04b"},"resourceType":"Claim","status":"active","total":{"code":"USD","system":"urn:iso:std:iso:4217","value":125},"use":"complete"}},{"resource":{"billablePeriod":{"end":"2017-07-02T11:59:59-04:00","start":"2017-07-02T11:44:59-04:00"},"id":"e8cef48b-25a8-4805-95a2-56f987e2a167","item":[{"encounter":[{"reference":"Encounter/2947189f-f47f-4e8a-9686-7c5d824edff2"}],"sequence":1}],"meta":{"lastUpdated":"2019-04-09T09:57:58.149040+00:00","versionId":"MTU1NDgwMzg3ODE0OTA0MDAwMA"},"organization":{"reference":"Organization/958d48d5-22b1-4971-9dda-f5992f666ea4"},"patient":{"reference":"Patient/00c8c9ed-65fe-4f9a-8e75-7d31ac64a04b"},"resourceType":"Claim","status":"active","total":{"code":"USD","system":"urn:iso:std:iso:4217","value":125},"use":"complete"}},{"resource":{"billablePeriod":{"end":"2014-08-10T11:59:59-04:00","start":"2014-08-10T11:44:59-04:00"},"id":"e9772acb-b438-4d1b-81e6-a18337143c04","item":[{"encounter":[{"reference":"Encounter/e3f280ad-6977-467a-aacf-0495cc21342d"}],"sequence":1}],"meta":{"lastUpdated":"2019-04-09T09:57:40.133422+00:00","versionId":"MTU1NDgwMzg2MDEzMzQyMjAwMA"},"organization":{"reference":"Organization/958d48d5-22b1-4971-9dda-f5992f666ea4"},"patient":{"reference":"Patient/00c8c9ed-65fe-4f9a-8e75-7d31ac64a04b"},"resourceType":"Claim","status":"active","total":{"code":"USD","system":"urn:iso:std:iso:4217","value":125},"use":"complete"}},{"resource":{"billablePeriod":{"end":"2013-12-15T11:14:59-05:00","start":"2013-12-15T10:44:59-05:00"},"id":"ead5d135-5735-4f80-9bfe-a59991d07296","item":[{"encounter":[{"reference":"Encounter/fcd5a4c8-3af7-4f92-9cb7-cf626279725c"}],"sequence":1},{"net":{"code":"USD","system":"urn:iso:std:iso:4217","value":324.18},"procedureLinkId":[1],"sequence":2,"service":{"coding":[{"code":"428191000124101","system":"http://snomed.info/sct","version":"v1"}]}}],"meta":{"lastUpdated":"2019-04-09T09:57:35.993509+00:00","versionId":"MTU1NDgwMzg1NTk5MzUwOTAwMA"},"organization":{"reference":"Organization/b5106795-a455-454b-8962-6c5232594630"},"patient":{"reference":"Patient/00c8c9ed-65fe-4f9a-8e75-7d31ac64a04b"},"procedure":[{"procedureReference":{"reference":"Procedure/a752efd2-a142-4856-9962-05fd270950dd"},"sequence":1}],"resourceType":"Claim","status":"active","total":{"code":"USD","system":"urn:iso:std:iso:4217","value":449.18},"use":"complete"}},{"resource":{"billablePeriod":{"end":"1984-04-22T10:59:59-05:00","start":"1984-04-22T10:44:59-05:00"},"diagnosis":[{"diagnosisReference":{"reference":"Condition/8fb80f1c-0f37-4316-b8a5-fda6af91c9c1"},"sequence":1},{"diagnosisReference":{"reference":"Condition/b8d4a406-6a1f-463e-b1a2-ce479e68c430"},"sequence":2}],"id":"eafb15b1-fbcc-419a-8743-949bba1cfca7","item":[{"encounter":[{"reference":"Encounter/560b340c-47bd-46ee-84d3-c68c0153347e"}],"sequence":1},{"diagnosisLinkId":[1],"sequence":2},{"diagnosisLinkId":[2],"sequence":3}],"meta":{"lastUpdated":"2019-04-09T09:57:12.339272+00:00","versionId":"MTU1NDgwMzgzMjMzOTI3MjAwMA"},"organization":{"reference":"Organization/b5106795-a455-454b-8962-6c5232594630"},"patient":{"reference":"Patient/00c8c9ed-65fe-4f9a-8e75-7d31ac64a04b"},"resourceType":"Claim","status":"active","total":{"code":"USD","system":"urn:iso:std:iso:4217","value":125},"use":"complete"}},{"resource":{"billablePeriod":{"end":"2009-04-19T12:14:59-04:00","start":"2009-04-19T11:44:59-04:00"},"id":"ec7db451-1ba8-4074-ade1-9ffa498adcf7","item":[{"encounter":[{"reference":"Encounter/1cbf3237-0aa5-418f-88c7-ea9b8285293b"}],"sequence":1},{"net":{"code":"USD","system":"urn:iso:std:iso:4217","value":848.4},"procedureLinkId":[1],"sequence":2,"service":{"coding":[{"code":"428191000124101","system":"http://snomed.info/sct","version":"v1"}]}}],"meta":{"lastUpdated":"2019-04-09T09:57:12.334521+00:00","versionId":"MTU1NDgwMzgzMjMzNDUyMTAwMA"},"organization":{"reference":"Organization/b5106795-a455-454b-8962-6c5232594630"},"patient":{"reference":"Patient/00c8c9ed-65fe-4f9a-8e75-7d31ac64a04b"},"procedure":[{"procedureReference":{"reference":"Procedure/abfd377b-be20-4291-8c98-4ead2ab1b853"},"sequence":1}],"resourceType":"Claim","status":"active","total":{"code":"USD","system":"urn:iso:std:iso:4217","value":973.4},"use":"complete"}},{"resource":{"billablePeriod":{"end":"1973-10-28T11:14:59-05:00","start":"1973-10-28T10:44:59-05:00"},"diagnosis":[{"diagnosisReference":{"reference":"Condition/4175058f-5396-48bf-a825-78bde920a45e"},"sequence":1}],"id":"ecdc53a3-f7cc-404d-84bc-178f9c75c797","item":[{"encounter":[{"reference":"Encounter/1de7fd6c-2bd8-4610-ab8f-e3ccc89de677"}],"sequence":1},{"diagnosisLinkId":[1],"sequence":2}],"meta":{"lastUpdated":"2019-04-09T09:57:12.317884+00:00","versionId":"MTU1NDgwMzgzMjMxNzg4NDAwMA"},"organization":{"reference":"Organization/b5106795-a455-454b-8962-6c5232594630"},"patient":{"reference":"Patient/00c8c9ed-65fe-4f9a-8e75-7d31ac64a04b"},"resourceType":"Claim","status":"active","total":{"code":"USD","system":"urn:iso:std:iso:4217","value":125},"use":"complete"}},{"resource":{"billablePeriod":{"end":"2015-05-10T11:59:59-04:00","start":"2015-05-10T11:44:59-04:00"},"id":"ed28f3e9-4ed9-4a01-b2f5-3a8ce379e031","item":[{"encounter":[{"reference":"Encounter/a3e12ddb-04e2-427f-8690-c2d1a0834579"}],"sequence":1}],"meta":{"lastUpdated":"2019-04-09T09:57:42.280122+00:00","versionId":"MTU1NDgwMzg2MjI4MDEyMjAwMA"},"organization":{"reference":"Organization/958d48d5-22b1-4971-9dda-f5992f666ea4"},"patient":{"reference":"Patient/00c8c9ed-65fe-4f9a-8e75-7d31ac64a04b"},"resourceType":"Claim","status":"active","total":{"code":"USD","system":"urn:iso:std:iso:4217","value":125},"use":"complete"}},{"resource":{"billablePeriod":{"end":"2018-10-28T11:59:59-04:00","start":"2018-10-28T11:44:59-04:00"},"id":"ed7aea10-9442-489f-943d-c3c56f4e77b0","item":[{"encounter":[{"reference":"Encounter/ce211085-82c0-4d3c-bf2a-fedbd784af2f"}],"sequence":1}],"meta":{"lastUpdated":"2019-04-09T09:58:05.519410+00:00","versionId":"MTU1NDgwMzg4NTUxOTQxMDAwMA"},"organization":{"reference":"Organization/958d48d5-22b1-4971-9dda-f5992f666ea4"},"patient":{"reference":"Patient/00c8c9ed-65fe-4f9a-8e75-7d31ac64a04b"},"resourceType":"Claim","status":"active","total":{"code":"USD","system":"urn:iso:std:iso:4217","value":125},"use":"complete"}},{"resource":{"billablePeriod":{"end":"2012-12-16T10:59:59-05:00","start":"2012-12-16T10:44:59-05:00"},"id":"f49fc4b2-9b14-44d0-acdb-040e43115587","item":[{"encounter":[{"reference":"Encounter/5c758102-d5cc-4fae-8756-e5e74113b374"}],"sequence":1}],"meta":{"lastUpdated":"2019-04-09T09:57:29.763585+00:00","versionId":"MTU1NDgwMzg0OTc2MzU4NTAwMA"},"organization":{"reference":"Organization/958d48d5-22b1-4971-9dda-f5992f666ea4"},"patient":{"reference":"Patient/00c8c9ed-65fe-4f9a-8e75-7d31ac64a04b"},"resourceType":"Claim","status":"active","total":{"code":"USD","system":"urn:iso:std:iso:4217","value":125},"use":"complete"}},{"resource":{"billablePeriod":{"end":"2010-06-06T12:14:59-04:00","start":"2010-06-06T11:44:59-04:00"},"id":"f4a45273-4406-4744-953c-5351fab8676e","item":[{"encounter":[{"reference":"Encounter/b0ab14f8-36e6-431f-b7c9-d320e2945371"}],"sequence":1},{"net":{"code":"USD","system":"urn:iso:std:iso:4217","value":427.9},"procedureLinkId":[1],"sequence":2,"service":{"coding":[{"code":"428191000124101","system":"http://snomed.info/sct","version":"v1"}]}}],"meta":{"lastUpdated":"2019-04-09T09:57:19.588948+00:00","versionId":"MTU1NDgwMzgzOTU4ODk0ODAwMA"},"organization":{"reference":"Organization/b5106795-a455-454b-8962-6c5232594630"},"patient":{"reference":"Patient/00c8c9ed-65fe-4f9a-8e75-7d31ac64a04b"},"procedure":[{"procedureReference":{"reference":"Procedure/5b07f63d-a827-43f9-bc8a-3e2cf5332474"},"sequence":1}],"resourceType":"Claim","status":"active","total":{"code":"USD","system":"urn:iso:std:iso:4217","value":552.9},"use":"complete"}},{"resource":{"billablePeriod":{"end":"2017-04-02T11:59:59-04:00","start":"2017-04-02T11:44:59-04:00"},"id":"f76fee2f-8c07-4a21-9a39-18401b1ff134","item":[{"encounter":[{"reference":"Encounter/057a6ba9-37b4-4eee-819a-2b8e8a7f05e1"}],"sequence":1}],"meta":{"lastUpdated":"2019-04-09T09:57:56.082508+00:00","versionId":"MTU1NDgwMzg3NjA4MjUwODAwMA"},"organization":{"reference":"Organization/b5106795-a455-454b-8962-6c5232594630"},"patient":{"reference":"Patient/00c8c9ed-65fe-4f9a-8e75-7d31ac64a04b"},"resourceType":"Claim","status":"active","total":{"code":"USD","system":"urn:iso:std:iso:4217","value":125},"use":"complete"}},{"resource":{"billablePeriod":{"end":"2011-04-03T12:44:59-04:00","start":"2011-04-03T11:44:59-04:00"},"id":"f839ef46-56c2-4558-8b0f-43a8e6d201f8","item":[{"encounter":[{"reference":"Encounter/f39afb54-3663-43c5-bc72-8c888ac762be"}],"sequence":1}],"meta":{"lastUpdated":"2019-04-09T09:57:24.699071+00:00","versionId":"MTU1NDgwMzg0NDY5OTA3MTAwMA"},"organization":{"reference":"Organization/b5106795-a455-454b-8962-6c5232594630"},"patient":{"reference":"Patient/00c8c9ed-65fe-4f9a-8e75-7d31ac64a04b"},"resourceType":"Claim","status":"active","total":{"code":"USD","system":"urn:iso:std:iso:4217","value":125},"use":"complete"}},{"resource":{"billablePeriod":{"end":"2009-05-10T11:59:59-04:00","start":"2009-05-10T11:44:59-04:00"},"id":"fa00fb09-6e83-453d-8e36-ea352ec75cdb","item":[{"encounter":[{"reference":"Encounter/0b3a4ddb-10a6-4724-bfe8-6f36dc1d08a3"}],"sequence":1}],"meta":{"lastUpdated":"2019-04-09T09:57:12.333743+00:00","versionId":"MTU1NDgwMzgzMjMzMzc0MzAwMA"},"organization":{"reference":"Organization/958d48d5-22b1-4971-9dda-f5992f666ea4"},"patient":{"reference":"Patient/00c8c9ed-65fe-4f9a-8e75-7d31ac64a04b"},"resourceType":"Claim","status":"active","total":{"code":"USD","system":"urn:iso:std:iso:4217","value":125},"use":"complete"}},{"resource":{"billablePeriod":{"end":"2011-07-03T12:44:59-04:00","start":"2011-07-03T11:44:59-04:00"},"id":"fa7f5c15-0b82-4f20-85fa-b43e5a35ebd9","item":[{"encounter":[{"reference":"Encounter/5aee91e8-996d-4c02-90fb-57be8374c55d"}],"sequence":1}],"meta":{"lastUpdated":"2019-04-09T09:57:25.728305+00:00","versionId":"MTU1NDgwMzg0NTcyODMwNTAwMA"},"organization":{"reference":"Organization/b5106795-a455-454b-8962-6c5232594630"},"patient":{"reference":"Patient/00c8c9ed-65fe-4f9a-8e75-7d31ac64a04b"},"resourceType":"Claim","status":"active","total":{"code":"USD","system":"urn:iso:std:iso:4217","value":125},"use":"complete"}},{"resource":{"billablePeriod":{"end":"2017-05-28T11:59:59-04:00","start":"2017-05-28T11:44:59-04:00"},"id":"fd8508d8-2cf5-40e6-a96e-02b93ee21e86","item":[{"encounter":[{"reference":"Encounter/8a7a32e8-ef1a-4d82-b867-f6834e3b6a17"}],"sequence":1}],"meta":{"lastUpdated":"2019-04-09T09:57:57.090524+00:00","versionId":"MTU1NDgwMzg3NzA5MDUyNDAwMA"},"organization":{"reference":"Organization/958d48d5-22b1-4971-9dda-f5992f666ea4"},"patient":{"reference":"Patient/00c8c9ed-65fe-4f9a-8e75-7d31ac64a04b"},"prescription":{"reference":"MedicationRequest/dc9902b1-9898-4e2b-b02e-9b12b446d7bd"},"resourceType":"Claim","status":"active","total":{"code":"USD","system":"urn:iso:std:iso:4217","value":255},"use":"complete"}},{"resource":{"assertedDate":"2017-05-28T11:44:59-04:00","clinicalStatus":"active","code":{"coding":[{"code":"53741008","display":"Coronary Heart Disease","system":"http://snomed.info/sct"}],"text":"Coronary Heart Disease"},"context":{"reference":"Encounter/8a7a32e8-ef1a-4d82-b867-f6834e3b6a17"},"id":"1a5b0439-e3a4-46f1-8afb-5f8aa79063e8","meta":{"lastUpdated":"2019-04-09T09:57:56.079662+00:00","versionId":"MTU1NDgwMzg3NjA3OTY2MjAwMA"},"onsetDateTime":"2017-05-28T11:44:59-04:00","resourceType":"Condition","subject":{"reference":"Patient/00c8c9ed-65fe-4f9a-8e75-7d31ac64a04b"},"verificationStatus":"confirmed"}},{"resource":{"assertedDate":"2000-07-30T11:44:59-04:00","clinicalStatus":"active","code":{"coding":[{"code":"433144002","display":"Chronic kidney disease stage 3 (disorder)","system":"http://snomed.info/sct"}],"text":"Chronic kidney disease stage 3 (disorder)"},"context":{"reference":"Encounter/42795343-ba3b-42d1-bd8a-8ff87f1063e3"},"id":"221b0037-bfce-4696-b1d1-1ba639c7c2b7","meta":{"lastUpdated":"2019-04-09T09:57:12.333076+00:00","versionId":"MTU1NDgwMzgzMjMzMzA3NjAwMA"},"onsetDateTime":"2000-07-30T11:44:59-04:00","resourceType":"Condition","subject":{"reference":"Patient/00c8c9ed-65fe-4f9a-8e75-7d31ac64a04b"},"verificationStatus":"confirmed"}},{"resource":{"assertedDate":"1983-11-13T10:44:59-05:00","clinicalStatus":"active","code":{"coding":[{"code":"431856006","display":"Chronic kidney disease stage 2 (disorder)","system":"http://snomed.info/sct"}],"text":"Chronic kidney disease stage 2 (disorder)"},"context":{"reference":"Encounter/415fb731-e5ef-4155-8f06-4ab1da829f06"},"id":"29315c77-b0af-4b22-b8ac-3992ac81dca0","meta":{"lastUpdated":"2019-04-09T09:57:12.317899+00:00","versionId":"MTU1NDgwMzgzMjMxNzg5OTAwMA"},"onsetDateTime":"1983-11-13T10:44:59-05:00","resourceType":"Condition","subject":{"reference":"Patient/00c8c9ed-65fe-4f9a-8e75-7d31ac64a04b"},"verificationStatus":"confirmed"}},{"resource":{"assertedDate":"1983-11-13T10:44:59-05:00","clinicalStatus":"active","code":{"coding":[{"code":"44054006","display":"Diabetes","system":"http://snomed.info/sct"}],"text":"Diabetes"},"context":{"reference":"Encounter/415fb731-e5ef-4155-8f06-4ab1da829f06"},"id":"38624b03-cd68-4c6f-8b4c-18f3c57366f7","meta":{"lastUpdated":"2019-04-09T09:57:12.302180+00:00","versionId":"MTU1NDgwMzgzMjMwMjE4MDAwMA"},"onsetDateTime":"1983-11-13T10:44:59-05:00","resourceType":"Condition","subject":{"reference":"Patient/00c8c9ed-65fe-4f9a-8e75-7d31ac64a04b"},"verificationStatus":"confirmed"}},{"resource":{"assertedDate":"2012-09-09T11:44:59-04:00","clinicalStatus":"active","code":{"coding":[{"code":"230690007","display":"Stroke","system":"http://snomed.info/sct"}],"text":"Stroke"},"context":{"reference":"Encounter/301708d2-4e15-45b8-8196-b3be99c87814"},"id":"3b3152f5-40f1-4570-ac12-fac4c6de83ef","meta":{"lastUpdated":"2019-04-09T09:57:29.769466+00:00","versionId":"MTU1NDgwMzg0OTc2OTQ2NjAwMA"},"onsetDateTime":"2012-09-09T11:44:59-04:00","resourceType":"Condition","subject":{"reference":"Patient/00c8c9ed-65fe-4f9a-8e75-7d31ac64a04b"},"verificationStatus":"confirmed"}},{"resource":{"assertedDate":"1973-10-28T10:44:59-05:00","clinicalStatus":"active","code":{"coding":[{"code":"38341003","display":"Hypertension","system":"http://snomed.info/sct"}],"text":"Hypertension"},"context":{"reference":"Encounter/1de7fd6c-2bd8-4610-ab8f-e3ccc89de677"},"id":"4175058f-5396-48bf-a825-78bde920a45e","meta":{"lastUpdated":"2019-04-09T09:57:12.317850+00:00","versionId":"MTU1NDgwMzgzMjMxNzg1MDAwMA"},"onsetDateTime":"1973-10-28T10:44:59-05:00","resourceType":"Condition","subject":{"reference":"Patient/00c8c9ed-65fe-4f9a-8e75-7d31ac64a04b"},"verificationStatus":"confirmed"}},{"resource":{"assertedDate":"2000-07-30T11:44:59-04:00","clinicalStatus":"active","code":{"coding":[{"code":"368581000119106","display":"Neuropathy due to type 2 diabetes mellitus (disorder)","system":"http://snomed.info/sct"}],"text":"Neuropathy due to type 2 diabetes mellitus (disorder)"},"context":{"reference":"Encounter/42795343-ba3b-42d1-bd8a-8ff87f1063e3"},"id":"64ba5022-f5a4-450e-8bfa-5923d53b4cb9","meta":{"lastUpdated":"2019-04-09T09:57:12.322122+00:00","versionId":"MTU1NDgwMzgzMjMyMjEyMjAwMA"},"onsetDateTime":"2000-07-30T11:44:59-04:00","resourceType":"Condition","subject":{"reference":"Patient/00c8c9ed-65fe-4f9a-8e75-7d31ac64a04b"},"verificationStatus":"confirmed"}},{"resource":{"assertedDate":"2000-07-30T11:44:59-04:00","clinicalStatus":"active","code":{"coding":[{"code":"15777000","display":"Prediabetes","system":"http://snomed.info/sct"}],"text":"Prediabetes"},"context":{"reference":"Encounter/42795343-ba3b-42d1-bd8a-8ff87f1063e3"},"id":"67a07096-78ab-4bab-bb7e-a39f39a01ed6","meta":{"lastUpdated":"2019-04-09T09:57:12.307306+00:00","versionId":"MTU1NDgwMzgzMjMwNzMwNjAwMA"},"onsetDateTime":"2000-07-30T11:44:59-04:00","resourceType":"Condition","subject":{"reference":"Patient/00c8c9ed-65fe-4f9a-8e75-7d31ac64a04b"},"verificationStatus":"confirmed"}},{"resource":{"assertedDate":"1984-04-22T10:44:59-05:00","clinicalStatus":"active","code":{"coding":[{"code":"302870006","display":"Hypertriglyceridemia (disorder)","system":"http://snomed.info/sct"}],"text":"Hypertriglyceridemia (disorder)"},"context":{"reference":"Encounter/560b340c-47bd-46ee-84d3-c68c0153347e"},"id":"8fb80f1c-0f37-4316-b8a5-fda6af91c9c1","meta":{"lastUpdated":"2019-04-09T09:57:12.314972+00:00","versionId":"MTU1NDgwMzgzMjMxNDk3MjAwMA"},"onsetDateTime":"1984-04-22T10:44:59-05:00","resourceType":"Condition","subject":{"reference":"Patient/00c8c9ed-65fe-4f9a-8e75-7d31ac64a04b"},"verificationStatus":"confirmed"}},{"resource":{"assertedDate":"1983-11-13T10:44:59-05:00","clinicalStatus":"active","code":{"coding":[{"code":"127013003","display":"Diabetic renal disease (disorder)","system":"http://snomed.info/sct"}],"text":"Diabetic renal disease (disorder)"},"context":{"reference":"Encounter/415fb731-e5ef-4155-8f06-4ab1da829f06"},"id":"912d9c07-816c-48e7-a1be-ec4647effc89","meta":{"lastUpdated":"2019-04-09T09:57:12.305229+00:00","versionId":"MTU1NDgwMzgzMjMwNTIyOTAwMA"},"onsetDateTime":"1983-11-13T10:44:59-05:00","resourceType":"Condition","subject":{"reference":"Patient/00c8c9ed-65fe-4f9a-8e75-7d31ac64a04b"},"verificationStatus":"confirmed"}},{"resource":{"assertedDate":"2000-07-30T11:44:59-04:00","clinicalStatus":"active","code":{"coding":[{"code":"157141000119108","display":"Proteinuria due to type 2 diabetes mellitus (disorder)","system":"http://snomed.info/sct"}],"text":"Proteinuria due to type 2 diabetes mellitus (disorder)"},"context":{"reference":"Encounter/42795343-ba3b-42d1-bd8a-8ff87f1063e3"},"id":"af84f1cf-f168-4ad8-9769-0e2506dad71d","meta":{"lastUpdated":"2019-04-09T09:57:12.310153+00:00","versionId":"MTU1NDgwMzgzMjMxMDE1MzAwMA"},"onsetDateTime":"2000-07-30T11:44:59-04:00","resourceType":"Condition","subject":{"reference":"Patient/00c8c9ed-65fe-4f9a-8e75-7d31ac64a04b"},"verificationStatus":"confirmed"}},{"resource":{"abatementDateTime":"2011-04-16T11:44:59-04:00","assertedDate":"2011-03-26T11:44:59-04:00","clinicalStatus":"resolved","code":{"coding":[{"code":"444814009","display":"Viral sinusitis (disorder)","system":"http://snomed.info/sct"}],"text":"Viral sinusitis (disorder)"},"context":{"reference":"Encounter/2e8e5040-2e3e-44f4-ae9b-25808d04ee12"},"id":"b834904c-4530-4724-b45a-f28ee1e60f03","meta":{"lastUpdated":"2019-04-09T09:57:24.812760+00:00","versionId":"MTU1NDgwMzg0NDgxMjc2MDAwMA"},"onsetDateTime":"2011-03-26T11:44:59-04:00","resourceType":"Condition","subject":{"reference":"Patient/00c8c9ed-65fe-4f9a-8e75-7d31ac64a04b"},"verificationStatus":"confirmed"}},{"resource":{"assertedDate":"1984-04-22T10:44:59-05:00","clinicalStatus":"active","code":{"coding":[{"code":"237602007","display":"Metabolic syndrome X (disorder)","system":"http://snomed.info/sct"}],"text":"Metabolic syndrome X (disorder)"},"context":{"reference":"Encounter/560b340c-47bd-46ee-84d3-c68c0153347e"},"id":"b8d4a406-6a1f-463e-b1a2-ce479e68c430","meta":{"lastUpdated":"2019-04-09T09:57:12.317900+00:00","versionId":"MTU1NDgwMzgzMjMxNzkwMDAwMA"},"onsetDateTime":"1984-04-22T10:44:59-05:00","resourceType":"Condition","subject":{"reference":"Patient/00c8c9ed-65fe-4f9a-8e75-7d31ac64a04b"},"verificationStatus":"confirmed"}},{"resource":{"assertedDate":"2007-07-22T11:44:59-04:00","clinicalStatus":"active","code":{"coding":[{"code":"55822004","display":"Hyperlipidemia","system":"http://snomed.info/sct"}],"text":"Hyperlipidemia"},"context":{"reference":"Encounter/36179b32-8dae-4ba9-aaf2-d47cf6d0da67"},"id":"c7877b78-ccd5-4aea-a25d-e5e7464b6e6d","meta":{"lastUpdated":"2019-04-09T09:57:12.316080+00:00","versionId":"MTU1NDgwMzgzMjMxNjA4MDAwMA"},"onsetDateTime":"2007-07-22T11:44:59-04:00","resourceType":"Condition","subject":{"reference":"Patient/00c8c9ed-65fe-4f9a-8e75-7d31ac64a04b"},"verificationStatus":"confirmed"}},{"resource":{"assertedDate":"2008-07-03T11:44:59-04:00","clinicalStatus":"active","code":{"coding":[{"code":"239873007","display":"Osteoarthritis of knee","system":"http://snomed.info/sct"}],"text":"Osteoarthritis of knee"},"context":{"reference":"Encounter/7691b8d8-2084-4708-b031-cae055f695e0"},"id":"c9e37edb-c128-4454-bd72-dc275e32a006","meta":{"lastUpdated":"2019-04-09T09:57:12.328593+00:00","versionId":"MTU1NDgwMzgzMjMyODU5MzAwMA"},"onsetDateTime":"2008-07-03T11:44:59-04:00","resourceType":"Condition","subject":{"reference":"Patient/00c8c9ed-65fe-4f9a-8e75-7d31ac64a04b"},"verificationStatus":"confirmed"}},{"resource":{"abatementDateTime":"2009-10-10T11:44:59-04:00","assertedDate":"2009-09-30T11:44:59-04:00","clinicalStatus":"resolved","code":{"coding":[{"code":"195662009","display":"Acute viral pharyngitis (disorder)","system":"http://snomed.info/sct"}],"text":"Acute viral pharyngitis (disorder)"},"context":{"reference":"Encounter/4377a430-ce28-44a1-a4a0-d0e509ba356b"},"id":"cb3f1ce4-900c-4af8-aeda-f76f29e24d73","meta":{"lastUpdated":"2019-04-09T09:57:15.462943+00:00","versionId":"MTU1NDgwMzgzNTQ2Mjk0MzAwMA"},"onsetDateTime":"2009-09-30T11:44:59-04:00","resourceType":"Condition","subject":{"reference":"Patient/00c8c9ed-65fe-4f9a-8e75-7d31ac64a04b"},"verificationStatus":"confirmed"}},{"resource":{"assertedDate":"1983-11-13T10:44:59-05:00","clinicalStatus":"active","code":{"coding":[{"code":"90781000119102","display":"Microalbuminuria due to type 2 diabetes mellitus (disorder)","system":"http://snomed.info/sct"}],"text":"Microalbuminuria due to type 2 diabetes mellitus (disorder)"},"context":{"reference":"Encounter/415fb731-e5ef-4155-8f06-4ab1da829f06"},"id":"d1b90ec5-2f19-48ce-839a-780f439646cd","meta":{"lastUpdated":"2019-04-09T09:57:12.317901+00:00","versionId":"MTU1NDgwMzgzMjMxNzkwMTAwMA"},"onsetDateTime":"1983-11-13T10:44:59-05:00","resourceType":"Condition","subject":{"reference":"Patient/00c8c9ed-65fe-4f9a-8e75-7d31ac64a04b"},"verificationStatus":"confirmed"}},{"resource":{"abatementDateTime":"2011-06-29T11:44:59-04:00","assertedDate":"2011-06-22T11:44:59-04:00","clinicalStatus":"resolved","code":{"coding":[{"code":"444814009","display":"Viral sinusitis (disorder)","system":"http://snomed.info/sct"}],"text":"Viral sinusitis (disorder)"},"context":{"reference":"Encounter/dc64fe09-b7c9-4d87-83d2-8870d42419ba"},"id":"ecbcfb1a-e0cd-4be1-b976-9a41f259736a","meta":{"lastUpdated":"2019-04-09T09:57:25.706191+00:00","versionId":"MTU1NDgwMzg0NTcwNjE5MTAwMA"},"onsetDateTime":"2011-06-22T11:44:59-04:00","resourceType":"Condition","subject":{"reference":"Patient/00c8c9ed-65fe-4f9a-8e75-7d31ac64a04b"},"verificationStatus":"confirmed"}},{"resource":{"code":{"coding":[{"code":"57698-3","display":"Lipid Panel","system":"http://loinc.org"}],"text":"Lipid Panel"},"context":{"reference":"Encounter/c7283afd-e175-4848-9a21-a0c5366c4eda"},"effectiveDateTime":"2016-10-09T11:44:59-04:00","id":"033bb9cf-6643-452f-b714-668b84f55d57","issued":"2016-10-09T11:44:59.853-04:00","meta":{"lastUpdated":"2019-04-09T09:57:52.965220+00:00","versionId":"MTU1NDgwMzg3Mjk2NTIyMDAwMA"},"resourceType":"DiagnosticReport","result":[{"display":"Total Cholesterol","reference":"Observation/14d52844-da77-4caf-ae4e-587982a18099"},{"display":"Triglycerides","reference":"Observation/860d3129-21a1-442d-9e8e-d68362fd3e02"},{"display":"Low Density Lipoprotein Cholesterol","reference":"Observation/387eead6-0dae-4fbb-ad76-abb3db7e4c77"},{"display":"High Density Lipoprotein Cholesterol","reference":"Observation/88dd7096-a2cd-47ea-87b9-8658f18fad71"}],"status":"final","subject":{"reference":"Patient/00c8c9ed-65fe-4f9a-8e75-7d31ac64a04b"}}},{"resource":{"code":{"coding":[{"code":"51990-0","display":"Basic Metabolic Panel","system":"http://loinc.org"}],"text":"Basic Metabolic Panel"},"context":{"reference":"Encounter/1cbf3237-0aa5-418f-88c7-ea9b8285293b"},"effectiveDateTime":"2009-04-19T11:44:59-04:00","id":"04f5eb56-cd98-493b-a24b-15d595d0326e","issued":"2009-04-19T11:44:59.853-04:00","meta":{"lastUpdated":"2019-04-09T09:57:12.333064+00:00","versionId":"MTU1NDgwMzgzMjMzMzA2NDAwMA"},"resourceType":"DiagnosticReport","result":[{"display":"Glucose","reference":"Observation/040e8de4-d569-4e42-8a83-e238e1ac8b8f"},{"display":"Urea Nitrogen","reference":"Observation/4c3fc07b-49b6-4882-b17e-07c75b4a8974"},{"display":"Creatinine","reference":"Observation/46fb2ef9-4580-4bc4-90db-e1582947d566"},{"display":"Calcium","reference":"Observation/de60c631-10c3-4a72-848e-8c69fca504c8"},{"display":"Sodium","reference":"Observation/305cb6fe-b613-40aa-9261-00a3f3738128"},{"display":"Potassium","reference":"Observation/7be46217-21bd-4ec1-9000-4235385538b6"},{"display":"Chloride","reference":"Observation/80e09dad-bf97-457f-8a5f-1a8feb7a9683"},{"display":"Carbon Dioxide","reference":"Observation/6abb873e-7e22-413a-8bcf-e711a37bf016"}],"status":"final","subject":{"reference":"Patient/00c8c9ed-65fe-4f9a-8e75-7d31ac64a04b"}}},{"resource":{"code":{"coding":[{"code":"57698-3","display":"Lipid Panel","system":"http://loinc.org"}],"text":"Lipid Panel"},"context":{"reference":"Encounter/f0d3d881-f9f1-4b90-a147-aeae98bbb47e"},"effectiveDateTime":"2014-08-10T11:44:59-04:00","id":"060850b6-3930-4e66-93ad-bf5e9a21978c","issued":"2014-08-10T11:44:59.853-04:00","meta":{"lastUpdated":"2019-04-09T09:57:41.163749+00:00","versionId":"MTU1NDgwMzg2MTE2Mzc0OTAwMA"},"resourceType":"DiagnosticReport","result":[{"display":"Total Cholesterol","reference":"Observation/a136d451-0e31-45ff-b990-22b67b34e645"},{"display":"Triglycerides","reference":"Observation/d6c6bc86-18b4-4902-a824-5fa4a8f485bb"},{"display":"Low Density Lipoprotein Cholesterol","reference":"Observation/3930a398-bb8b-42c1-ab3f-93428b5a04e2"},{"display":"High Density Lipoprotein Cholesterol","reference":"Observation/d392a6c8-49da-45a7-a606-372522744059"}],"status":"final","subject":{"reference":"Patient/00c8c9ed-65fe-4f9a-8e75-7d31ac64a04b"}}},{"resource":{"code":{"coding":[{"code":"57698-3","display":"Lipid Panel","system":"http://loinc.org"}],"text":"Lipid Panel"},"context":{"reference":"Encounter/12232552-ce41-4b3b-879e-ebef82b33c4b"},"effectiveDateTime":"2011-08-11T11:44:59-04:00","id":"07a03de0-5b76-4ba1-9548-73adcac7dadc","issued":"2011-08-11T11:44:59.853-04:00","meta":{"lastUpdated":"2019-04-09T09:57:27.781237+00:00","versionId":"MTU1NDgwMzg0Nzc4MTIzNzAwMA"},"resourceType":"DiagnosticReport","result":[{"display":"Total Cholesterol","reference":"Observation/f9dd1984-4935-4516-8067-3bb5372fb655"},{"display":"Triglycerides","reference":"Observation/60acaa2c-7d86-4ece-a4bc-6e3396a18258"},{"display":"Low Density Lipoprotein Cholesterol","reference":"Observation/5c1d7481-75d0-4096-9049-08d81d7ee902"},{"display":"High Density Lipoprotein Cholesterol","reference":"Observation/5aa78ff4-8be7-4fbe-a283-ebaedc7106c7"}],"status":"final","subject":{"reference":"Patient/00c8c9ed-65fe-4f9a-8e75-7d31ac64a04b"}}},{"resource":{"code":{"coding":[{"code":"57698-3","display":"Lipid Panel","system":"http://loinc.org"}],"text":"Lipid Panel"},"context":{"reference":"Encounter/dc12ebf1-9c9e-4bda-a89b-2f4d9dc2be2c"},"effectiveDateTime":"2009-03-15T11:44:59-04:00","id":"0a6abcd9-ef74-402d-9624-14f3450269b5","issued":"2009-03-15T11:44:59.853-04:00","meta":{"lastUpdated":"2019-04-09T09:57:12.513952+00:00","versionId":"MTU1NDgwMzgzMjUxMzk1MjAwMA"},"resourceType":"DiagnosticReport","result":[{"display":"Total Cholesterol","reference":"Observation/e77a0ec6-985e-4a32-9a1e-8cc320b9714e"},{"display":"Triglycerides","reference":"Observation/08c85277-36d3-4776-b7f2-092590f8b9ab"},{"display":"Low Density Lipoprotein Cholesterol","reference":"Observation/b8c9ed4b-a84e-42e0-a851-3a4a1c0b38f9"},{"display":"High Density Lipoprotein Cholesterol","reference":"Observation/05c9f69b-16a1-4324-8556-dcd80082498c"}],"status":"final","subject":{"reference":"Patient/00c8c9ed-65fe-4f9a-8e75-7d31ac64a04b"}}},{"resource":{"code":{"coding":[{"code":"57698-3","display":"Lipid Panel","system":"http://loinc.org"}],"text":"Lipid Panel"},"context":{"reference":"Encounter/813fe5c6-e645-4de3-9827-d9212d16f332"},"effectiveDateTime":"2016-11-06T10:44:59-05:00","id":"0c9e6bc9-95e6-426a-8b11-01a08d9a14ab","issued":"2016-11-06T10:44:59.853-05:00","meta":{"lastUpdated":"2019-04-09T09:57:54.010139+00:00","versionId":"MTU1NDgwMzg3NDAxMDEzOTAwMA"},"resourceType":"DiagnosticReport","result":[{"display":"Total Cholesterol","reference":"Observation/0bc0d84c-30fd-4ac0-9667-11f61d47b038"},{"display":"Triglycerides","reference":"Observation/ed9f9b92-c367-4e68-aa53-8c80327d9cec"},{"display":"Low Density Lipoprotein Cholesterol","reference":"Observation/7e4355b7-1e5f-4f9f-a0fd-a9912d0a53f5"},{"display":"High Density Lipoprotein Cholesterol","reference":"Observation/eda76e7d-5a2d-47c8-97d0-13d1dc115468"}],"status":"final","subject":{"reference":"Patient/00c8c9ed-65fe-4f9a-8e75-7d31ac64a04b"}}},{"resource":{"code":{"coding":[{"code":"57698-3","display":"Lipid Panel","system":"http://loinc.org"}],"text":"Lipid Panel"},"context":{"reference":"Encounter/fec909e0-8c86-464a-b7fa-785c40f6fad5"},"effectiveDateTime":"2014-07-20T11:44:59-04:00","id":"0d62c0f8-ccdb-46ad-997d-9a9799e060fd","issued":"2014-07-20T11:44:59.853-04:00","meta":{"lastUpdated":"2019-04-09T09:57:40.133430+00:00","versionId":"MTU1NDgwMzg2MDEzMzQzMDAwMA"},"resourceType":"DiagnosticReport","result":[{"display":"Total Cholesterol","reference":"Observation/d2837a02-d4f3-49fa-a28b-94d3c876ae85"},{"display":"Triglycerides","reference":"Observation/7d86a0ca-1e22-4548-af41-a357117ddc8c"},{"display":"Low Density Lipoprotein Cholesterol","reference":"Observation/aa7ab462-d444-46f8-8224-aed2bfa8f093"},{"display":"High Density Lipoprotein Cholesterol","reference":"Observation/0587d5d2-8eda-4421-ba37-4b5366f3332c"}],"status":"final","subject":{"reference":"Patient/00c8c9ed-65fe-4f9a-8e75-7d31ac64a04b"}}},{"resource":{"code":{"coding":[{"code":"57698-3","display":"Lipid Panel","system":"http://loinc.org"}],"text":"Lipid Panel"},"context":{"reference":"Encounter/3d376cce-be65-4046-b460-c5509fbf9c70"},"effectiveDateTime":"2017-08-09T11:44:59-04:00","id":"0db30e1f-6d86-440c-85a0-ff78bad91423","issued":"2017-08-09T11:44:59.853-04:00","meta":{"lastUpdated":"2019-04-09T09:57:59.217180+00:00","versionId":"MTU1NDgwMzg3OTIxNzE4MDAwMA"},"resourceType":"DiagnosticReport","result":[{"display":"Total Cholesterol","reference":"Observation/d1fe5aa5-9381-40fa-bd67-4bc68c5371da"},{"display":"Triglycerides","reference":"Observation/11777f3f-6381-4c43-b0a1-48528d2589fd"},{"display":"Low Density Lipoprotein Cholesterol","reference":"Observation/59ce9590-ea66-48c2-8f3e-4323574cdebc"},{"display":"High Density Lipoprotein Cholesterol","reference":"Observation/aebfea02-244a-46de-b61e-8028b02eb52f"}],"status":"final","subject":{"reference":"Patient/00c8c9ed-65fe-4f9a-8e75-7d31ac64a04b"}}},{"resource":{"code":{"coding":[{"code":"51990-0","display":"Basic Metabolic Panel","system":"http://loinc.org"}],"text":"Basic Metabolic Panel"},"context":{"reference":"Encounter/f1de480a-84a1-4274-8852-004b228e07da"},"effectiveDateTime":"2016-03-06T10:44:59-05:00","id":"136cc6ab-e5b2-4496-b692-6c1e7e55fcfc","issued":"2016-03-06T10:44:59.853-05:00","meta":{"lastUpdated":"2019-04-09T09:57:49.724366+00:00","versionId":"MTU1NDgwMzg2OTcyNDM2NjAwMA"},"resourceType":"DiagnosticReport","result":[{"display":"Glucose","reference":"Observation/c6fc4c39-43c6-4220-a3dd-624ce561d894"},{"display":"Urea Nitrogen","reference":"Observation/c3727f8c-e7ff-42b1-9201-15d7437f1891"},{"display":"Creatinine","reference":"Observation/2f39e5a2-b41b-47d5-a418-eb5a4bd36b2f"},{"display":"Calcium","reference":"Observation/c02a5d2a-0e37-4618-b6cf-34d11e603af6"},{"display":"Sodium","reference":"Observation/c4ad5d2c-ca3a-414f-ae71-9fc88dbd37de"},{"display":"Potassium","reference":"Observation/566f29ba-1e96-4fee-83c9-f7ff7cf8a135"},{"display":"Chloride","reference":"Observation/45aac36c-2938-48d5-927f-64fba3e22f07"},{"display":"Carbon Dioxide","reference":"Observation/9ba3594b-a8a1-475e-b93d-08a280ae3b4e"}],"status":"final","subject":{"reference":"Patient/00c8c9ed-65fe-4f9a-8e75-7d31ac64a04b"}}},{"resource":{"code":{"coding":[{"code":"57698-3","display":"Lipid Panel","system":"http://loinc.org"}],"text":"Lipid Panel"},"context":{"reference":"Encounter/a7e719a9-9c4d-4196-a3b7-8f7fdf6a985c"},"effectiveDateTime":"2016-01-10T10:44:59-05:00","id":"1507530a-81fb-4023-936b-b22b11a4c500","issued":"2016-01-10T10:44:59.853-05:00","meta":{"lastUpdated":"2019-04-09T09:57:47.729806+00:00","versionId":"MTU1NDgwMzg2NzcyOTgwNjAwMA"},"resourceType":"DiagnosticReport","result":[{"display":"Total Cholesterol","reference":"Observation/8d7ba516-3c55-47a2-b009-47d0bff2b887"},{"display":"Triglycerides","reference":"Observation/bd3ecc9a-353b-46b2-ae35-390624ecc904"},{"display":"Low Density Lipoprotein Cholesterol","reference":"Observation/e3cc775d-8b1d-42f1-95c3-146755b9a566"},{"display":"High Density Lipoprotein Cholesterol","reference":"Observation/ea01ca9c-5868-4102-b0a0-79af3f971557"}],"status":"final","subject":{"reference":"Patient/00c8c9ed-65fe-4f9a-8e75-7d31ac64a04b"}}},{"resource":{"code":{"coding":[{"code":"57698-3","display":"Lipid Panel","system":"http://loinc.org"}],"text":"Lipid Panel"},"context":{"reference":"Encounter/1d7d99e8-5d15-4e22-b1f5-aca89b8933e1"},"effectiveDateTime":"2015-04-12T11:44:59-04:00","id":"198bbecf-577f-4e89-bca4-ff288d68f6de","issued":"2015-04-12T11:44:59.853-04:00","meta":{"lastUpdated":"2019-04-09T09:57:42.312800+00:00","versionId":"MTU1NDgwMzg2MjMxMjgwMDAwMA"},"resourceType":"DiagnosticReport","result":[{"display":"Total Cholesterol","reference":"Observation/33f168d2-c602-4512-9823-bab8f8418fc9"},{"display":"Triglycerides","reference":"Observation/7a333f56-6349-420e-b626-918854f391e1"},{"display":"Low Density Lipoprotein Cholesterol","reference":"Observation/ee4a8ac3-bd31-4ba3-8396-7226dae861c3"},{"display":"High Density Lipoprotein Cholesterol","reference":"Observation/74cf7020-fbf9-41de-8873-e9f36e91890b"}],"status":"final","subject":{"reference":"Patient/00c8c9ed-65fe-4f9a-8e75-7d31ac64a04b"}}},{"resource":{"code":{"coding":[{"code":"51990-0","display":"Basic Metabolic Panel","system":"http://loinc.org"}],"text":"Basic Metabolic Panel"},"context":{"reference":"Encounter/75ee3dd6-c1f2-4a02-bf1c-41b2e51438cf"},"effectiveDateTime":"2009-11-08T10:44:59-05:00","id":"19c48f4c-d4f6-42da-9323-07a587dff0ba","issued":"2009-11-08T10:44:59.853-05:00","meta":{"lastUpdated":"2019-04-09T09:57:16.495366+00:00","versionId":"MTU1NDgwMzgzNjQ5NTM2NjAwMA"},"resourceType":"DiagnosticReport","result":[{"display":"Glucose","reference":"Observation/2d7ab53f-30e8-4240-bebe-e668a57dd6db"},{"display":"Urea Nitrogen","reference":"Observation/12290721-a7a0-4276-a8dd-1bd7684c3dad"},{"display":"Creatinine","reference":"Observation/06c99fcb-15aa-45bd-a26d-9d586262aea1"},{"display":"Calcium","reference":"Observation/680a8010-d60d-4039-817e-05ab1047b55f"},{"display":"Sodium","reference":"Observation/7ea502bf-8053-4049-a76d-0108a81dcc59"},{"display":"Potassium","reference":"Observation/34d91bab-dcd9-40ed-bca8-babc6cc46efe"},{"display":"Chloride","reference":"Observation/579ce2f2-5956-4309-b34b-5049d2d9b918"},{"display":"Carbon Dioxide","reference":"Observation/b6ce2640-285d-4463-9f61-406cdc4518c8"}],"status":"final","subject":{"reference":"Patient/00c8c9ed-65fe-4f9a-8e75-7d31ac64a04b"}}},{"resource":{"code":{"coding":[{"code":"51990-0","display":"Basic Metabolic Panel","system":"http://loinc.org"}],"text":"Basic Metabolic Panel"},"context":{"reference":"Encounter/a0b368f8-c1a9-4c4b-a866-9dade8e33199"},"effectiveDateTime":"2016-09-04T11:44:59-04:00","id":"1c3472c3-8088-40c4-85de-11be92041406","issued":"2016-09-04T11:44:59.853-04:00","meta":{"lastUpdated":"2019-04-09T09:57:52.942456+00:00","versionId":"MTU1NDgwMzg3Mjk0MjQ1NjAwMA"},"resourceType":"DiagnosticReport","result":[{"display":"Glucose","reference":"Observation/6cdd790e-de9c-4fa9-a12f-ae99fcd5a462"},{"display":"Urea Nitrogen","reference":"Observation/aa057753-ace2-4669-929b-8577d116ff1c"},{"display":"Creatinine","reference":"Observation/be22057d-3e5c-4ddc-bc84-fa8fb297ce37"},{"display":"Calcium","reference":"Observation/7c4c455f-5476-426d-b206-0accf2082594"},{"display":"Sodium","reference":"Observation/2bde22d7-4f26-4dfb-934d-d80d222aa4df"},{"display":"Potassium","reference":"Observation/fa656ef2-96d6-452f-b7b2-577e0f5f0308"},{"display":"Chloride","reference":"Observation/82cb0a46-5c61-483a-b28d-92b12fe0401a"},{"display":"Carbon Dioxide","reference":"Observation/f39b79c7-ba5c-43be-a966-7fead799d148"}],"status":"final","subject":{"reference":"Patient/00c8c9ed-65fe-4f9a-8e75-7d31ac64a04b"}}},{"resource":{"code":{"coding":[{"code":"57698-3","display":"Lipid Panel","system":"http://loinc.org"}],"text":"Lipid Panel"},"context":{"reference":"Encounter/e10eac72-54b0-4adf-8307-85bef0f1f1fc"},"effectiveDateTime":"2016-08-09T11:44:59-04:00","id":"20aa625d-aed2-49c7-a047-9a1a6f75a8de","issued":"2016-08-09T11:44:59.853-04:00","meta":{"lastUpdated":"2019-04-09T09:57:51.912963+00:00","versionId":"MTU1NDgwMzg3MTkxMjk2MzAwMA"},"resourceType":"DiagnosticReport","result":[{"display":"Total Cholesterol","reference":"Observation/1f0ae8e9-45ce-448f-a473-17cc873d8c82"},{"display":"Triglycerides","reference":"Observation/74e06a65-83aa-4044-a496-d7a92646e71e"},{"display":"Low Density Lipoprotein Cholesterol","reference":"Observation/3b9176f0-68df-4794-8cc5-f7685d2b8a05"},{"display":"High Density Lipoprotein Cholesterol","reference":"Observation/bd01aa3c-043e-4cd2-b238-b7b9f435163a"}],"status":"final","subject":{"reference":"Patient/00c8c9ed-65fe-4f9a-8e75-7d31ac64a04b"}}},{"resource":{"code":{"coding":[{"code":"51990-0","display":"Basic Metabolic Panel","system":"http://loinc.org"}],"text":"Basic Metabolic Panel"},"context":{"reference":"Encounter/50ed393e-b436-492b-97a1-9e71e101b093"},"effectiveDateTime":"2014-11-09T10:44:59-05:00","id":"21c1101d-46c6-499d-9dcc-97a70e491093","issued":"2014-11-09T10:44:59.853-05:00","meta":{"lastUpdated":"2019-04-09T09:57:41.163416+00:00","versionId":"MTU1NDgwMzg2MTE2MzQxNjAwMA"},"resourceType":"DiagnosticReport","result":[{"display":"Glucose","reference":"Observation/e17297ea-d24a-467b-93ff-11fe6d972b19"},{"display":"Urea Nitrogen","reference":"Observation/ae0ee7a3-1fc4-439d-8d3f-903721929218"},{"display":"Creatinine","reference":"Observation/d94e7914-b4fc-4c38-ba98-fba2ea281c6a"},{"display":"Calcium","reference":"Observation/7400a3fd-b45b-4a76-98e9-ac675f1592f8"},{"display":"Sodium","reference":"Observation/34b32ac2-98f1-4d9c-b6db-b1551593a264"},{"display":"Potassium","reference":"Observation/0d05d320-48f9-4c75-9219-4dd8718cf553"},{"display":"Chloride","reference":"Observation/0048a6ec-00ee-4e8e-95ac-9891508f8be7"},{"display":"Carbon Dioxide","reference":"Observation/3788818f-4c7f-4f2a-9984-fdb1b6d645f3"}],"status":"final","subject":{"reference":"Patient/00c8c9ed-65fe-4f9a-8e75-7d31ac64a04b"}}},{"resource":{"code":{"coding":[{"code":"51990-0","display":"Basic Metabolic Panel","system":"http://loinc.org"}],"text":"Basic Metabolic Panel"},"context":{"reference":"Encounter/61e9c967-6adc-4fbf-8a2d-edd44c34e46e"},"effectiveDateTime":"2014-04-20T11:44:59-04:00","id":"2227e068-2ae6-4268-b323-42ce61860917","issued":"2014-04-20T11:44:59.853-04:00","meta":{"lastUpdated":"2019-04-09T09:57:38.038078+00:00","versionId":"MTU1NDgwMzg1ODAzODA3ODAwMA"},"resourceType":"DiagnosticReport","result":[{"display":"Glucose","reference":"Observation/094a9061-29ae-4124-b282-df1ae99bc08d"},{"display":"Urea Nitrogen","reference":"Observation/b7125467-d49e-4333-81ff-a4f609adc6ff"},{"display":"Creatinine","reference":"Observation/b1de657d-3cce-4a9b-b08e-e553764f9618"},{"display":"Calcium","reference":"Observation/fa945229-5635-4a39-9787-3fdd1ac346ab"},{"display":"Sodium","reference":"Observation/8dc46963-87c1-4050-a736-a102910fac8f"},{"display":"Potassium","reference":"Observation/bec46106-f120-49af-a365-0632009fac62"},{"display":"Chloride","reference":"Observation/ee103898-d204-4fcc-83a4-9194c79c0af5"},{"display":"Carbon Dioxide","reference":"Observation/9c067ba9-9565-46b2-85b0-80fed789b467"}],"status":"final","subject":{"reference":"Patient/00c8c9ed-65fe-4f9a-8e75-7d31ac64a04b"}}},{"resource":{"code":{"coding":[{"code":"51990-0","display":"Basic Metabolic Panel","system":"http://loinc.org"}],"text":"Basic Metabolic Panel"},"context":{"reference":"Encounter/8cc73931-086c-47a6-bb8f-5d9429f5bd5a"},"effectiveDateTime":"2013-04-28T11:44:59-04:00","id":"23d23800-1756-4e50-ae15-db0e934a14c7","issued":"2013-04-28T11:44:59.853-04:00","meta":{"lastUpdated":"2019-04-09T09:57:30.805554+00:00","versionId":"MTU1NDgwMzg1MDgwNTU1NDAwMA"},"resourceType":"DiagnosticReport","result":[{"display":"Glucose","reference":"Observation/e7710be2-ccab-40df-9a0b-87b7ce62d726"},{"display":"Urea Nitrogen","reference":"Observation/23374c28-75b4-47f0-8e90-73a3f462f584"},{"display":"Creatinine","reference":"Observation/28c2a117-9f56-462a-ae35-d114ff22a226"},{"display":"Calcium","reference":"Observation/4ccc1ca8-66e1-48eb-b832-42485209a7b8"},{"display":"Sodium","reference":"Observation/6bc39760-8543-4749-ac29-cb6a3f05e0b4"},{"display":"Potassium","reference":"Observation/5d0b0e21-009d-4618-8a8e-9c00f932232e"},{"display":"Chloride","reference":"Observation/031bfc45-d980-49b1-9e3e-ee58921fa1b4"},{"display":"Carbon Dioxide","reference":"Observation/93f83ea9-7e1b-4a51-9647-3219e10b650b"}],"status":"final","subject":{"reference":"Patient/00c8c9ed-65fe-4f9a-8e75-7d31ac64a04b"}}},{"resource":{"code":{"coding":[{"code":"57698-3","display":"Lipid Panel","system":"http://loinc.org"}],"text":"Lipid Panel"},"context":{"reference":"Encounter/f113af6a-56ba-4c39-8e70-4da410a0f373"},"effectiveDateTime":"2014-02-09T10:44:59-05:00","id":"26420784-8268-422c-b539-7b90c9fbff86","issued":"2014-02-09T10:44:59.853-05:00","meta":{"lastUpdated":"2019-04-09T09:57:37.032900+00:00","versionId":"MTU1NDgwMzg1NzAzMjkwMDAwMA"},"resourceType":"DiagnosticReport","result":[{"display":"Total Cholesterol","reference":"Observation/267d8f54-7684-4c73-8ee2-f9fa9ca80729"},{"display":"Triglycerides","reference":"Observation/ab681849-ee7a-42bc-af2b-89cedd1d28cd"},{"display":"Low Density Lipoprotein Cholesterol","reference":"Observation/eae9b178-3c79-4583-9684-2e3c73dafcaa"},{"display":"High Density Lipoprotein Cholesterol","reference":"Observation/0d0047ff-79b5-4c12-8f10-1b494553cdd2"}],"status":"final","subject":{"reference":"Patient/00c8c9ed-65fe-4f9a-8e75-7d31ac64a04b"}}},{"resource":{"code":{"coding":[{"code":"57698-3","display":"Lipid Panel","system":"http://loinc.org"}],"text":"Lipid Panel"},"context":{"reference":"Encounter/60bdf30a-71e0-4987-8498-ac12c6c3cab7"},"effectiveDateTime":"2012-08-10T11:44:59-04:00","id":"26cf4c93-ddae-452b-897a-56aa72332b7a","issued":"2012-08-10T11:44:59.853-04:00","meta":{"lastUpdated":"2019-04-09T09:57:29.763236+00:00","versionId":"MTU1NDgwMzg0OTc2MzIzNjAwMA"},"resourceType":"DiagnosticReport","result":[{"display":"Total Cholesterol","reference":"Observation/ce7fe0e0-6b8d-4342-81d5-787d9c56caff"},{"display":"Triglycerides","reference":"Observation/0ae0bb42-d158-416a-aab7-baad11bd2135"},{"display":"Low Density Lipoprotein Cholesterol","reference":"Observation/eeca26e6-23ce-4c0a-8e36-49154d9455ad"},{"display":"High Density Lipoprotein Cholesterol","reference":"Observation/d6bb7d11-3e23-486d-806e-2667d884d674"}],"status":"final","subject":{"reference":"Patient/00c8c9ed-65fe-4f9a-8e75-7d31ac64a04b"}}},{"resource":{"code":{"coding":[{"code":"57698-3","display":"Lipid Panel","system":"http://loinc.org"}],"text":"Lipid Panel"},"context":{"reference":"Encounter/bf0f2bc0-48ac-4ffd-a990-e5c28e1771d8"},"effectiveDateTime":"2014-06-15T11:44:59-04:00","id":"2a2d30b8-cb5d-4deb-9487-8935bd576b00","issued":"2014-06-15T11:44:59.853-04:00","meta":{"lastUpdated":"2019-04-09T09:57:39.074924+00:00","versionId":"MTU1NDgwMzg1OTA3NDkyNDAwMA"},"resourceType":"DiagnosticReport","result":[{"display":"Total Cholesterol","reference":"Observation/f66e9a66-9cdc-4513-9bc2-97d7d2f9408b"},{"display":"Triglycerides","reference":"Observation/aa1713a1-d464-4747-969f-ecb8ec5be3e7"},{"display":"Low Density Lipoprotein Cholesterol","reference":"Observation/834a8cf5-842d-421e-bc04-1894c97d3cd5"},{"display":"High Density Lipoprotein Cholesterol","reference":"Observation/03100a47-c48a-4651-ab70-618c1d6170bf"}],"status":"final","subject":{"reference":"Patient/00c8c9ed-65fe-4f9a-8e75-7d31ac64a04b"}}},{"resource":{"code":{"coding":[{"code":"57698-3","display":"Lipid Panel","system":"http://loinc.org"}],"text":"Lipid Panel"},"context":{"reference":"Encounter/6b9f226f-9bdc-416c-a486-9f1492d70ad9"},"effectiveDateTime":"2016-07-10T11:44:59-04:00","id":"2c77ef12-02b7-4133-88be-ae38e42d238a","issued":"2016-07-10T11:44:59.853-04:00","meta":{"lastUpdated":"2019-04-09T09:57:50.778438+00:00","versionId":"MTU1NDgwMzg3MDc3ODQzODAwMA"},"resourceType":"DiagnosticReport","result":[{"display":"Total Cholesterol","reference":"Observation/a0767b87-68a0-45d3-9584-e69c1d02dfc9"},{"display":"Triglycerides","reference":"Observation/062127ad-1e34-40d9-96b9-42929ce4b60b"},{"display":"Low Density Lipoprotein Cholesterol","reference":"Observation/b21b61b6-a81a-46e9-b64f-9fc4d452d2de"},{"display":"High Density Lipoprotein Cholesterol","reference":"Observation/36335597-fe6f-43f6-aebb-91632cc54ebf"}],"status":"final","subject":{"reference":"Patient/00c8c9ed-65fe-4f9a-8e75-7d31ac64a04b"}}},{"resource":{"code":{"coding":[{"code":"57698-3","display":"Lipid Panel","system":"http://loinc.org"}],"text":"Lipid Panel"},"context":{"reference":"Encounter/b0ab14f8-36e6-431f-b7c9-d320e2945371"},"effectiveDateTime":"2010-06-06T11:44:59-04:00","id":"2d04fd75-2570-4f63-84bd-3d7c1143ddc5","issued":"2010-06-06T11:44:59.853-04:00","meta":{"lastUpdated":"2019-04-09T09:57:19.572853+00:00","versionId":"MTU1NDgwMzgzOTU3Mjg1MzAwMA"},"resourceType":"DiagnosticReport","result":[{"display":"Total Cholesterol","reference":"Observation/1fa3d50f-eb16-4c1d-8ad3-211c4322055a"},{"display":"Triglycerides","reference":"Observation/e314d724-3c47-4943-8e13-1fd9f5d47c00"},{"display":"Low Density Lipoprotein Cholesterol","reference":"Observation/279319e5-5999-45a4-b3d7-169e036a2a36"},{"display":"High Density Lipoprotein Cholesterol","reference":"Observation/1591e149-26a6-4de8-9d96-6d64895e73c0"}],"status":"final","subject":{"reference":"Patient/00c8c9ed-65fe-4f9a-8e75-7d31ac64a04b"}}},{"resource":{"code":{"coding":[{"code":"51990-0","display":"Basic Metabolic Panel","system":"http://loinc.org"}],"text":"Basic Metabolic Panel"},"context":{"reference":"Encounter/c141a25b-0b7e-46db-a46c-779f906014ff"},"effectiveDateTime":"2010-04-11T11:44:59-04:00","id":"2f9a553d-1277-4fda-8b2c-3ed7343c2e55","issued":"2010-04-11T11:44:59.853-04:00","meta":{"lastUpdated":"2019-04-09T09:57:18.564367+00:00","versionId":"MTU1NDgwMzgzODU2NDM2NzAwMA"},"resourceType":"DiagnosticReport","result":[{"display":"Glucose","reference":"Observation/75f48f1d-d004-4ec2-9ccd-8db8a2583de3"},{"display":"Urea Nitrogen","reference":"Observation/3e79b3b2-7edd-434b-8548-402e8305fba3"},{"display":"Creatinine","reference":"Observation/6254fd1d-559c-4aa0-beb9-caf731f825ce"},{"display":"Calcium","reference":"Observation/602605f5-01f2-49c3-9592-1f536bf6b40c"},{"display":"Sodium","reference":"Observation/484d90f8-2419-4c3d-bdc0-e5b837d644c0"},{"display":"Potassium","reference":"Observation/fe421e34-790e-4470-bfd5-7589e6fa9eee"},{"display":"Chloride","reference":"Observation/f070daa3-0024-481a-a636-f722ce9cc033"},{"display":"Carbon Dioxide","reference":"Observation/067388e0-02f9-4c8b-bf50-649a1247a7b8"}],"status":"final","subject":{"reference":"Patient/00c8c9ed-65fe-4f9a-8e75-7d31ac64a04b"}}},{"resource":{"code":{"coding":[{"code":"51990-0","display":"Basic Metabolic Panel","system":"http://loinc.org"}],"text":"Basic Metabolic Panel"},"context":{"reference":"Encounter/2336745a-9197-4f4a-958a-22e4d58c2e33"},"effectiveDateTime":"2017-12-03T10:44:59-05:00","id":"30bbe2dc-a7af-4ac9-9c40-134890b011b1","issued":"2017-12-03T10:44:59.853-05:00","meta":{"lastUpdated":"2019-04-09T09:58:00.242803+00:00","versionId":"MTU1NDgwMzg4MDI0MjgwMzAwMA"},"resourceType":"DiagnosticReport","result":[{"display":"Glucose","reference":"Observation/da20edba-97c5-4ef4-847b-92cb3bf34d3a"},{"display":"Urea Nitrogen","reference":"Observation/dba2417b-dd55-4ba8-b0e3-4e105e3c8e6d"},{"display":"Creatinine","reference":"Observation/3a7b4e14-4238-4bdf-b638-093b3e5368e8"},{"display":"Calcium","reference":"Observation/099c6623-e072-4b9e-9e84-8ef152e5643a"},{"display":"Sodium","reference":"Observation/79533e94-2b77-466b-88f6-bbb1383d2c27"},{"display":"Potassium","reference":"Observation/af82350b-7f1d-45f5-86a5-e99943168c7b"},{"display":"Chloride","reference":"Observation/d033afe3-66b2-4677-90df-8166d991f8db"},{"display":"Carbon Dioxide","reference":"Observation/6df6e3ef-baf8-4bcd-8d93-4e2273dd484d"}],"status":"final","subject":{"reference":"Patient/00c8c9ed-65fe-4f9a-8e75-7d31ac64a04b"}}},{"resource":{"code":{"coding":[{"code":"24323-8","display":"Comprehensive metabolic 2000 panel - Serum or Plasma","system":"http://loinc.org"}],"text":"Comprehensive metabolic 2000 panel - Serum or Plasma"},"context":{"reference":"Encounter/e10eac72-54b0-4adf-8307-85bef0f1f1fc"},"effectiveDateTime":"2016-08-09T11:44:59-04:00","id":"344c9fae-dfe8-4e8b-b647-8b3300afb4a0","issued":"2016-08-09T11:44:59.853-04:00","meta":{"lastUpdated":"2019-04-09T09:57:51.912965+00:00","versionId":"MTU1NDgwMzg3MTkxMjk2NTAwMA"},"resourceType":"DiagnosticReport","result":[{"display":"Glucose","reference":"Observation/c8a905b8-ae3f-492f-a4ce-8e50775a3219"},{"display":"Urea Nitrogen","reference":"Observation/1ed55d37-a9cf-4b62-bbe1-05be82398f6a"},{"display":"Creatinine","reference":"Observation/4e85ce39-e4d9-4702-ae9d-4e339c75644a"},{"display":"Calcium","reference":"Observation/fa5a47ab-94b0-49ce-94b4-3bf4ccaca718"},{"display":"Sodium","reference":"Observation/f60b891e-407b-4dc2-9f54-0a4cdcd6952b"},{"display":"Potassium","reference":"Observation/cd95fb6a-e889-401d-bca2-7c7f2cf60dca"},{"display":"Chloride","reference":"Observation/e0d8664c-1cbc-44e3-9ed3-f39796e5d5fb"},{"display":"Carbon Dioxide","reference":"Observation/a04d44fa-3033-4169-85ef-81566fae41e3"},{"display":"Glomerular filtration rate/1.73 sq M.predicted","reference":"Observation/ec5f328a-4a7a-4c57-8326-bbf0d352e728"},{"display":"Protein [Mass/volume] in Serum or Plasma","reference":"Observation/4afcefd0-d164-4c7d-b39f-159f71907e2f"},{"display":"Albumin [Mass/volume] in Serum or Plasma","reference":"Observation/ac7c3065-1256-4b8f-a9cd-8307a843ed5d"},{"display":"Globulin [Mass/volume] in Serum by calculation","reference":"Observation/8baf24c0-cffb-44b1-86e6-5f11fdc08e46"},{"display":"Bilirubin.total [Mass/volume] in Serum or Plasma","reference":"Observation/41d605e7-038b-4475-8197-e65918719037"},{"display":"Alkaline phosphatase [Enzymatic activity/volume] in Serum or Plasma","reference":"Observation/9c7f0b2d-f323-40d4-80b7-cae7d6c2869d"},{"display":"Alanine aminotransferase [Enzymatic activity/volume] in Serum or Plasma","reference":"Observation/1627dfb7-feac-44e0-8c21-872ac3d83a5a"},{"display":"Aspartate aminotransferase [Enzymatic activity/volume] in Serum or Plasma","reference":"Observation/cd1b56b4-7833-4a19-b973-481b836be6a9"}],"status":"final","subject":{"reference":"Patient/00c8c9ed-65fe-4f9a-8e75-7d31ac64a04b"}}},{"resource":{"code":{"coding":[{"code":"57698-3","display":"Lipid Panel","system":"http://loinc.org"}],"text":"Lipid Panel"},"context":{"reference":"Encounter/f412de40-daa0-47f9-9d00-a977fcbd093c"},"effectiveDateTime":"2018-04-29T11:44:59-04:00","id":"3534449f-7123-4f08-a482-585fa98a5346","issued":"2018-04-29T11:44:59.853-04:00","meta":{"lastUpdated":"2019-04-09T09:58:03.404024+00:00","versionId":"MTU1NDgwMzg4MzQwNDAyNDAwMA"},"resourceType":"DiagnosticReport","result":[{"display":"Total Cholesterol","reference":"Observation/86a8cfb0-a464-4f46-a3cb-87d8b877b75d"},{"display":"Triglycerides","reference":"Observation/9e5f3f14-4df3-4bb5-b300-fe1e08ffefd1"},{"display":"Low Density Lipoprotein Cholesterol","reference":"Observation/7e823838-71c3-45ab-ad68-30a3bebd0e03"},{"display":"High Density Lipoprotein Cholesterol","reference":"Observation/c498cc12-51ad-4261-81a1-a0fbdf9d7ea6"}],"status":"final","subject":{"reference":"Patient/00c8c9ed-65fe-4f9a-8e75-7d31ac64a04b"}}},{"resource":{"code":{"coding":[{"code":"51990-0","display":"Basic Metabolic Panel","system":"http://loinc.org"}],"text":"Basic Metabolic Panel"},"context":{"reference":"Encounter/a07eb3e2-489b-4928-ae93-3047d118851b"},"effectiveDateTime":"2014-03-16T11:44:59-04:00","id":"361de66f-0a17-4e87-b09b-21373c134051","issued":"2014-03-16T11:44:59.853-04:00","meta":{"lastUpdated":"2019-04-09T09:57:38.038192+00:00","versionId":"MTU1NDgwMzg1ODAzODE5MjAwMA"},"resourceType":"DiagnosticReport","result":[{"display":"Glucose","reference":"Observation/a06cfe95-6d58-4db5-803e-850de8f59ae7"},{"display":"Urea Nitrogen","reference":"Observation/dab2adef-ecd2-47bb-9c82-799a037eedcd"},{"display":"Creatinine","reference":"Observation/1e3e0ed7-66b0-4c8c-944f-822f766168bf"},{"display":"Calcium","reference":"Observation/b21ea9bf-5ed9-4b13-a074-842fa4c0c0f6"},{"display":"Sodium","reference":"Observation/073f313b-f89a-4b7e-93cc-b559c15b05cf"},{"display":"Potassium","reference":"Observation/d1806a32-f2a1-41cf-9330-1354751cb675"},{"display":"Chloride","reference":"Observation/883ad2b9-b051-4c84-826b-e88656667a74"},{"display":"Carbon Dioxide","reference":"Observation/21d9dc57-01b6-4ff7-b1df-c2fb4052eeca"}],"status":"final","subject":{"reference":"Patient/00c8c9ed-65fe-4f9a-8e75-7d31ac64a04b"}}},{"resource":{"code":{"coding":[{"code":"57698-3","display":"Lipid Panel","system":"http://loinc.org"}],"text":"Lipid Panel"},"context":{"reference":"Encounter/50ed393e-b436-492b-97a1-9e71e101b093"},"effectiveDateTime":"2014-11-09T10:44:59-05:00","id":"37f3d8bc-2fa3-42c3-8e17-3c4d5c738904","issued":"2014-11-09T10:44:59.853-05:00","meta":{"lastUpdated":"2019-04-09T09:57:41.190401+00:00","versionId":"MTU1NDgwMzg2MTE5MDQwMTAwMA"},"resourceType":"DiagnosticReport","result":[{"display":"Total Cholesterol","reference":"Observation/2f091500-6276-41f3-ac55-9fd01f848c0c"},{"display":"Triglycerides","reference":"Observation/5347f42a-04fc-481c-ba4f-2ce0db35c677"},{"display":"Low Density Lipoprotein Cholesterol","reference":"Observation/1ea47756-4272-4919-aa00-84e71f04d431"},{"display":"High Density Lipoprotein Cholesterol","reference":"Observation/35cca11f-df78-44e0-94e2-df00d8d1aebb"}],"status":"final","subject":{"reference":"Patient/00c8c9ed-65fe-4f9a-8e75-7d31ac64a04b"}}},{"resource":{"code":{"coding":[{"code":"57698-3","display":"Lipid Panel","system":"http://loinc.org"}],"text":"Lipid Panel"},"context":{"reference":"Encounter/14c885b4-f356-4b90-aa1c-68fda783d4e2"},"effectiveDateTime":"2015-08-10T11:44:59-04:00","id":"38c82138-e793-4c26-887d-c05de35d465f","issued":"2015-08-10T11:44:59.853-04:00","meta":{"lastUpdated":"2019-04-09T09:57:45.491870+00:00","versionId":"MTU1NDgwMzg2NTQ5MTg3MDAwMA"},"resourceType":"DiagnosticReport","result":[{"display":"Total Cholesterol","reference":"Observation/dd0a66c8-cd2e-4e7e-9eaa-f71dab5a7668"},{"display":"Triglycerides","reference":"Observation/61959d40-4002-4de8-b27e-ca8c4e9cf237"},{"display":"Low Density Lipoprotein Cholesterol","reference":"Observation/1543495c-e83b-4b66-b6c7-407d92a17a24"},{"display":"High Density Lipoprotein Cholesterol","reference":"Observation/38b0b271-1979-4438-b38e-c45a109ab20c"}],"status":"final","subject":{"reference":"Patient/00c8c9ed-65fe-4f9a-8e75-7d31ac64a04b"}}},{"resource":{"code":{"coding":[{"code":"57698-3","display":"Lipid Panel","system":"http://loinc.org"}],"text":"Lipid Panel"},"context":{"reference":"Encounter/6f9b2fbe-864d-4a7a-b61e-f3511077a5ec"},"effectiveDateTime":"2018-02-25T10:44:59-05:00","id":"3c532dc8-2e8e-4443-99eb-2f557ef47ab4","issued":"2018-02-25T10:44:59.853-05:00","meta":{"lastUpdated":"2019-04-09T09:58:01.345616+00:00","versionId":"MTU1NDgwMzg4MTM0NTYxNjAwMA"},"resourceType":"DiagnosticReport","result":[{"display":"Total Cholesterol","reference":"Observation/966f462d-9575-4ba3-b6ec-7c5f9d045e6c"},{"display":"Triglycerides","reference":"Observation/a1d3e527-21d6-450c-a5a3-f4f213032d0c"},{"display":"Low Density Lipoprotein Cholesterol","reference":"Observation/b22bdc17-747c-47d4-b668-73e358caec50"},{"display":"High Density Lipoprotein Cholesterol","reference":"Observation/5608759c-8aa0-40f4-8496-db255f06cb16"}],"status":"final","subject":{"reference":"Patient/00c8c9ed-65fe-4f9a-8e75-7d31ac64a04b"}}},{"resource":{"code":{"coding":[{"code":"57698-3","display":"Lipid Panel","system":"http://loinc.org"}],"text":"Lipid Panel"},"context":{"reference":"Encounter/475207e6-9ab8-4615-a923-96e274d2360c"},"effectiveDateTime":"2018-11-25T10:44:59-05:00","id":"3e628596-e1c1-482e-9092-8737b38ecbe7","issued":"2018-11-25T10:44:59.853-05:00","meta":{"lastUpdated":"2019-04-09T09:58:06.543669+00:00","versionId":"MTU1NDgwMzg4NjU0MzY2OTAwMA"},"resourceType":"DiagnosticReport","result":[{"display":"Total Cholesterol","reference":"Observation/8851f574-a52b-4fb0-9ad5-44523bbdff75"},{"display":"Triglycerides","reference":"Observation/88f4a089-e84c-476b-81f7-9d2925bcb961"},{"display":"Low Density Lipoprotein Cholesterol","reference":"Observation/7d40cf0c-4213-4e5e-aa82-af95329b02ab"},{"display":"High Density Lipoprotein Cholesterol","reference":"Observation/adf9016f-a506-40dd-8c93-8b5804ca0f10"}],"status":"final","subject":{"reference":"Patient/00c8c9ed-65fe-4f9a-8e75-7d31ac64a04b"}}},{"resource":{"code":{"coding":[{"code":"57698-3","display":"Lipid Panel","system":"http://loinc.org"}],"text":"Lipid Panel"},"context":{"reference":"Encounter/bedcae49-1dbc-4f46-bd7e-6fd42fd2a362"},"effectiveDateTime":"2011-10-30T11:44:59-04:00","id":"3edad55a-e501-4701-a9e9-303f65ed5e68","issued":"2011-10-30T11:44:59.853-04:00","meta":{"lastUpdated":"2019-04-09T09:57:27.793029+00:00","versionId":"MTU1NDgwMzg0Nzc5MzAyOTAwMA"},"resourceType":"DiagnosticReport","result":[{"display":"Total Cholesterol","reference":"Observation/e5339208-1941-468f-b68e-a3682fe9cde7"},{"display":"Triglycerides","reference":"Observation/aece80bb-4880-4ec4-8dee-3adf00cbfabb"},{"display":"Low Density Lipoprotein Cholesterol","reference":"Observation/91cbdcf5-ced3-4657-a780-9bb6be910301"},{"display":"High Density Lipoprotein Cholesterol","reference":"Observation/34b8449c-b0e5-4b22-b1da-0703e8e4019f"}],"status":"final","subject":{"reference":"Patient/00c8c9ed-65fe-4f9a-8e75-7d31ac64a04b"}}},{"resource":{"code":{"coding":[{"code":"57698-3","display":"Lipid Panel","system":"http://loinc.org"}],"text":"Lipid Panel"},"context":{"reference":"Encounter/f1de480a-84a1-4274-8852-004b228e07da"},"effectiveDateTime":"2016-03-06T10:44:59-05:00","id":"3ef9cfaa-5e21-4140-8ae3-96bb939c3928","issued":"2016-03-06T10:44:59.853-05:00","meta":{"lastUpdated":"2019-04-09T09:57:49.727605+00:00","versionId":"MTU1NDgwMzg2OTcyNzYwNTAwMA"},"resourceType":"DiagnosticReport","result":[{"display":"Total Cholesterol","reference":"Observation/4f0f957b-dc7f-411f-aa5e-08742eb25d79"},{"display":"Triglycerides","reference":"Observation/2d45b1cf-f129-4348-984d-c44e658244c1"},{"display":"Low Density Lipoprotein Cholesterol","reference":"Observation/55e301bd-fb61-4ffc-9023-9e531ef6817e"},{"display":"High Density Lipoprotein Cholesterol","reference":"Observation/cca7fd49-0c4e-4e64-bb68-879dedea3144"}],"status":"final","subject":{"reference":"Patient/00c8c9ed-65fe-4f9a-8e75-7d31ac64a04b"}}},{"resource":{"code":{"coding":[{"code":"57698-3","display":"Lipid Panel","system":"http://loinc.org"}],"text":"Lipid Panel"},"context":{"reference":"Encounter/8894b4b4-109b-4934-8c58-f274fa48309b"},"effectiveDateTime":"2016-08-07T11:44:59-04:00","id":"43216943-eb97-44c6-aefb-c9311c66cf56","issued":"2016-08-07T11:44:59.853-04:00","meta":{"lastUpdated":"2019-04-09T09:57:50.801534+00:00","versionId":"MTU1NDgwMzg3MDgwMTUzNDAwMA"},"resourceType":"DiagnosticReport","result":[{"display":"Total Cholesterol","reference":"Observation/ea803b82-32d3-4f62-b241-ab8e8205da8b"},{"display":"Triglycerides","reference":"Observation/68025954-3132-47f3-8e21-6766b1dd58f9"},{"display":"Low Density Lipoprotein Cholesterol","reference":"Observation/b8f7c2e2-991b-4af8-9eb9-c5faef84f570"},{"display":"High Density Lipoprotein Cholesterol","reference":"Observation/cfd6ae8f-ef64-481b-bfde-572c66a667bf"}],"status":"final","subject":{"reference":"Patient/00c8c9ed-65fe-4f9a-8e75-7d31ac64a04b"}}},{"resource":{"code":{"coding":[{"code":"57698-3","display":"Lipid Panel","system":"http://loinc.org"}],"text":"Lipid Panel"},"context":{"reference":"Encounter/eb4aa10a-3166-429f-b0a7-f4cbb7c91e40"},"effectiveDateTime":"2013-07-14T11:44:59-04:00","id":"434109aa-63f8-4770-9263-040c3de56c20","issued":"2013-07-14T11:44:59.853-04:00","meta":{"lastUpdated":"2019-04-09T09:57:32.893322+00:00","versionId":"MTU1NDgwMzg1Mjg5MzMyMjAwMA"},"resourceType":"DiagnosticReport","result":[{"display":"Total Cholesterol","reference":"Observation/30e3fd37-915b-44cc-8d5a-d2cf7c01305c"},{"display":"Triglycerides","reference":"Observation/093ea27d-1f2e-47d8-b6bf-f563fec4197e"},{"display":"Low Density Lipoprotein Cholesterol","reference":"Observation/02025a9c-7fcb-402f-846a-9449065fa497"},{"display":"High Density Lipoprotein Cholesterol","reference":"Observation/5b400471-07df-47b7-aea3-f90677a26872"}],"status":"final","subject":{"reference":"Patient/00c8c9ed-65fe-4f9a-8e75-7d31ac64a04b"}}},{"resource":{"code":{"coding":[{"code":"51990-0","display":"Basic Metabolic Panel","system":"http://loinc.org"}],"text":"Basic Metabolic Panel"},"context":{"reference":"Encounter/f113af6a-56ba-4c39-8e70-4da410a0f373"},"effectiveDateTime":"2014-02-09T10:44:59-05:00","id":"437c1a83-96ff-47cd-8231-1991be34918e","issued":"2014-02-09T10:44:59.853-05:00","meta":{"lastUpdated":"2019-04-09T09:57:37.030547+00:00","versionId":"MTU1NDgwMzg1NzAzMDU0NzAwMA"},"resourceType":"DiagnosticReport","result":[{"display":"Glucose","reference":"Observation/41fc8ad7-21ab-45d0-814a-a7f8f32ee747"},{"display":"Urea Nitrogen","reference":"Observation/bf207886-8087-40ab-ab8f-08d492b4f8d9"},{"display":"Creatinine","reference":"Observation/85a0ff84-9bee-43e8-843f-03c134c4f9d3"},{"display":"Calcium","reference":"Observation/e7860ebf-ea3f-40a2-83b4-224fe970de6a"},{"display":"Sodium","reference":"Observation/fd60bba3-0634-4b30-a679-a9b970ec2680"},{"display":"Potassium","reference":"Observation/bd8043c7-6226-43e3-81ac-4430a85f236b"},{"display":"Chloride","reference":"Observation/2fcc5a90-bc7c-41de-9e90-d4c8e7e3e09a"},{"display":"Carbon Dioxide","reference":"Observation/16037f94-13f4-49b5-9057-e11ca508fbee"}],"status":"final","subject":{"reference":"Patient/00c8c9ed-65fe-4f9a-8e75-7d31ac64a04b"}}},{"resource":{"code":{"coding":[{"code":"51990-0","display":"Basic Metabolic Panel","system":"http://loinc.org"}],"text":"Basic Metabolic Panel"},"context":{"reference":"Encounter/8db5f699-97d5-4d73-8577-28abe283fa02"},"effectiveDateTime":"2015-06-14T11:44:59-04:00","id":"456ff0c1-1d95-41a1-9a4d-cc8ad961a3f2","issued":"2015-06-14T11:44:59.853-04:00","meta":{"lastUpdated":"2019-04-09T09:57:43.393321+00:00","versionId":"MTU1NDgwMzg2MzM5MzMyMTAwMA"},"resourceType":"DiagnosticReport","result":[{"display":"Glucose","reference":"Observation/fb2053a8-f8b0-4b75-95d7-80b76a05ab0c"},{"display":"Urea Nitrogen","reference":"Observation/ef947726-2ef1-40a9-97f3-fba40d417a0c"},{"display":"Creatinine","reference":"Observation/eead0724-00c3-4057-a5d1-8123358e7807"},{"display":"Calcium","reference":"Observation/e47847a8-a989-4027-b0b6-7f0d00319531"},{"display":"Sodium","reference":"Observation/7ccb48ad-7340-467a-98c3-a45f9adc0e86"},{"display":"Potassium","reference":"Observation/da09eee3-4d17-41a6-9a13-ac8eadd6f967"},{"display":"Chloride","reference":"Observation/68d80b14-9422-4e6c-a094-e6b0b861a53c"},{"display":"Carbon Dioxide","reference":"Observation/485ef21a-b7a7-4e60-8378-b4caa5212cf0"}],"status":"final","subject":{"reference":"Patient/00c8c9ed-65fe-4f9a-8e75-7d31ac64a04b"}}},{"resource":{"code":{"coding":[{"code":"57698-3","display":"Lipid Panel","system":"http://loinc.org"}],"text":"Lipid Panel"},"context":{"reference":"Encounter/2336745a-9197-4f4a-958a-22e4d58c2e33"},"effectiveDateTime":"2017-12-03T10:44:59-05:00","id":"49897b8e-4c34-473f-a45e-c62dbdac2b4e","issued":"2017-12-03T10:44:59.853-05:00","meta":{"lastUpdated":"2019-04-09T09:58:01.340665+00:00","versionId":"MTU1NDgwMzg4MTM0MDY2NTAwMA"},"resourceType":"DiagnosticReport","result":[{"display":"Total Cholesterol","reference":"Observation/1b3c1c38-2242-4f57-ace2-101db2dad9ab"},{"display":"Triglycerides","reference":"Observation/4a928ca7-5088-4096-b866-98cfc8d1444c"},{"display":"Low Density Lipoprotein Cholesterol","reference":"Observation/9f6c0124-27cf-441e-9f28-d55a448205ce"},{"display":"High Density Lipoprotein Cholesterol","reference":"Observation/2f839c09-44e5-4ce0-a528-43f04d0f59fc"}],"status":"final","subject":{"reference":"Patient/00c8c9ed-65fe-4f9a-8e75-7d31ac64a04b"}}},{"resource":{"code":{"coding":[{"code":"57698-3","display":"Lipid Panel","system":"http://loinc.org"}],"text":"Lipid Panel"},"context":{"reference":"Encounter/540deed0-bf02-43bb-a9be-28f05d27fb28"},"effectiveDateTime":"2010-03-07T10:44:59-05:00","id":"4a147ccb-82b9-4e03-a7c1-db0db0a24233","issued":"2010-03-07T10:44:59.853-05:00","meta":{"lastUpdated":"2019-04-09T09:57:18.558560+00:00","versionId":"MTU1NDgwMzgzODU1ODU2MDAwMA"},"resourceType":"DiagnosticReport","result":[{"display":"Total Cholesterol","reference":"Observation/90d73ca8-83df-40c1-b8fc-bd1e37834831"},{"display":"Triglycerides","reference":"Observation/43251753-2fc6-41f4-b823-35d7b564fbd2"},{"display":"Low Density Lipoprotein Cholesterol","reference":"Observation/f4e2d3ce-cc72-4402-beef-cf995a186a86"},{"display":"High Density Lipoprotein Cholesterol","reference":"Observation/96659efe-fae5-43de-bf17-0f8a2d8c7aaf"}],"status":"final","subject":{"reference":"Patient/00c8c9ed-65fe-4f9a-8e75-7d31ac64a04b"}}},{"resource":{"code":{"coding":[{"code":"57698-3","display":"Lipid Panel","system":"http://loinc.org"}],"text":"Lipid Panel"},"context":{"reference":"Encounter/55ca6f5e-964a-4679-9467-89eb5a7bb003"},"effectiveDateTime":"2009-08-11T11:44:59-04:00","id":"4bfe905a-d261-49cc-b317-96338b6642b3","issued":"2009-08-11T11:44:59.853-04:00","meta":{"lastUpdated":"2019-04-09T09:57:15.463007+00:00","versionId":"MTU1NDgwMzgzNTQ2MzAwNzAwMA"},"resourceType":"DiagnosticReport","result":[{"display":"Total Cholesterol","reference":"Observation/fde4ebe5-0b35-4646-acad-d005ce25cb62"},{"display":"Triglycerides","reference":"Observation/ea72c050-0457-4899-84cb-9b9152a3f124"},{"display":"Low Density Lipoprotein Cholesterol","reference":"Observation/f8328e1c-afb6-4214-b0d0-ffcc4f3d946d"},{"display":"High Density Lipoprotein Cholesterol","reference":"Observation/4319694f-2fbc-4e2d-a109-b09536a55efd"}],"status":"final","subject":{"reference":"Patient/00c8c9ed-65fe-4f9a-8e75-7d31ac64a04b"}}},{"resource":{"code":{"coding":[{"code":"57698-3","display":"Lipid Panel","system":"http://loinc.org"}],"text":"Lipid Panel"},"context":{"reference":"Encounter/5bcbf7d4-5018-49ee-9695-bee3e2490997"},"effectiveDateTime":"2014-05-18T11:44:59-04:00","id":"4c697889-a5c1-4cc2-bb0c-518229e43a2d","issued":"2014-05-18T11:44:59.853-04:00","meta":{"lastUpdated":"2019-04-09T09:57:39.067543+00:00","versionId":"MTU1NDgwMzg1OTA2NzU0MzAwMA"},"resourceType":"DiagnosticReport","result":[{"display":"Total Cholesterol","reference":"Observation/d568329e-731c-40ec-8ab8-f698b538b057"},{"display":"Triglycerides","reference":"Observation/bb461a88-fb91-4e93-97dc-2f4f77dcdbd6"},{"display":"Low Density Lipoprotein Cholesterol","reference":"Observation/cfd87d67-0a83-4114-8794-67846e3d5181"},{"display":"High Density Lipoprotein Cholesterol","reference":"Observation/909bbedc-80b3-4b9c-a609-76f074a8c9c8"}],"status":"final","subject":{"reference":"Patient/00c8c9ed-65fe-4f9a-8e75-7d31ac64a04b"}}},{"resource":{"code":{"coding":[{"code":"57698-3","display":"Lipid Panel","system":"http://loinc.org"}],"text":"Lipid Panel"},"context":{"reference":"Encounter/4da3a1c5-dd75-4bbe-a735-e5a3cefe96f4"},"effectiveDateTime":"2017-07-09T11:44:59-04:00","id":"4e972d4a-4cf4-48b8-b997-a7331f866ca4","issued":"2017-07-09T11:44:59.853-04:00","meta":{"lastUpdated":"2019-04-09T09:57:58.148967+00:00","versionId":"MTU1NDgwMzg3ODE0ODk2NzAwMA"},"resourceType":"DiagnosticReport","result":[{"display":"Total Cholesterol","reference":"Observation/774d4678-9704-436a-b524-ff1c8bc8fb05"},{"display":"Triglycerides","reference":"Observation/1ee66a1f-e995-4fd5-97ba-437bc009afbc"},{"display":"Low Density Lipoprotein Cholesterol","reference":"Observation/48721717-603b-4bb1-9eb5-e50688147688"},{"display":"High Density Lipoprotein Cholesterol","reference":"Observation/a876c266-1730-4d33-ae1e-59d7a9f95cb1"}],"status":"final","subject":{"reference":"Patient/00c8c9ed-65fe-4f9a-8e75-7d31ac64a04b"}}},{"resource":{"code":{"coding":[{"code":"51990-0","display":"Basic Metabolic Panel","system":"http://loinc.org"}],"text":"Basic Metabolic Panel"},"context":{"reference":"Encounter/fec909e0-8c86-464a-b7fa-785c40f6fad5"},"effectiveDateTime":"2014-07-20T11:44:59-04:00","id":"4ff9fcfa-e969-489b-baa6-23c9f62fc699","issued":"2014-07-20T11:44:59.853-04:00","meta":{"lastUpdated":"2019-04-09T09:57:40.142847+00:00","versionId":"MTU1NDgwMzg2MDE0Mjg0NzAwMA"},"resourceType":"DiagnosticReport","result":[{"display":"Glucose","reference":"Observation/b1f9bd88-c324-4a6b-af53-6c1fc2c63bca"},{"display":"Urea Nitrogen","reference":"Observation/43c54981-e474-46cd-9873-0e5339b4e331"},{"display":"Creatinine","reference":"Observation/edc9714d-919f-4b33-9bee-750f4b9a7132"},{"display":"Calcium","reference":"Observation/3fc1dba6-2771-4463-b750-ab8bddf4f524"},{"display":"Sodium","reference":"Observation/42f37109-33cc-465b-a9b3-a4b6fa11214d"},{"display":"Potassium","reference":"Observation/28a59ab2-d60f-424b-b201-0e2cc0085127"},{"display":"Chloride","reference":"Observation/b57903b8-e422-4193-a9b1-ec1d462b2292"},{"display":"Carbon Dioxide","reference":"Observation/81c6efd2-59b3-4e25-8437-f8212e9466f2"}],"status":"final","subject":{"reference":"Patient/00c8c9ed-65fe-4f9a-8e75-7d31ac64a04b"}}},{"resource":{"code":{"coding":[{"code":"57698-3","display":"Lipid Panel","system":"http://loinc.org"}],"text":"Lipid Panel"},"context":{"reference":"Encounter/5803a2ac-12b9-4500-afb8-0420ffb957c1"},"effectiveDateTime":"2017-03-05T10:44:59-05:00","id":"50feb3cf-c202-4106-b1a7-4c3e7d46d6af","issued":"2017-03-05T10:44:59.853-05:00","meta":{"lastUpdated":"2019-04-09T09:57:56.080299+00:00","versionId":"MTU1NDgwMzg3NjA4MDI5OTAwMA"},"resourceType":"DiagnosticReport","result":[{"display":"Total Cholesterol","reference":"Observation/f350c8ce-c6bc-49e4-a36d-d8a723d61b76"},{"display":"Triglycerides","reference":"Observation/99b87942-b03c-4a54-8a52-f9d61efc12ad"},{"display":"Low Density Lipoprotein Cholesterol","reference":"Observation/a0b564c5-d87a-4b20-9420-8d169ebe245b"},{"display":"High Density Lipoprotein Cholesterol","reference":"Observation/e35ebe92-7fd0-460a-aaf4-990753b74140"}],"status":"final","subject":{"reference":"Patient/00c8c9ed-65fe-4f9a-8e75-7d31ac64a04b"}}},{"resource":{"code":{"coding":[{"code":"51990-0","display":"Basic Metabolic Panel","system":"http://loinc.org"}],"text":"Basic Metabolic Panel"},"context":{"reference":"Encounter/f412de40-daa0-47f9-9d00-a977fcbd093c"},"effectiveDateTime":"2018-04-29T11:44:59-04:00","id":"53bda82b-5610-4f1a-970d-69bcae0dee68","issued":"2018-04-29T11:44:59.853-04:00","meta":{"lastUpdated":"2019-04-09T09:58:03.414899+00:00","versionId":"MTU1NDgwMzg4MzQxNDg5OTAwMA"},"resourceType":"DiagnosticReport","result":[{"display":"Glucose","reference":"Observation/a87fad59-f88b-4c32-b3db-a0ab51dda99a"},{"display":"Urea Nitrogen","reference":"Observation/a01465c9-73de-44b5-9622-233d9493587e"},{"display":"Creatinine","reference":"Observation/1b0dbd9b-6e6d-4609-aa6c-5806e41cf4b0"},{"display":"Calcium","reference":"Observation/488c5853-e424-46b5-8026-e0f495a2f253"},{"display":"Sodium","reference":"Observation/17f8910c-c158-42b5-9d33-0d9d30ea7f3a"},{"display":"Potassium","reference":"Observation/afea29eb-c7e4-40a2-8e8e-27a9a3381e00"},{"display":"Chloride","reference":"Observation/22bf539c-b338-4196-a2b4-2d4d859a3927"},{"display":"Carbon Dioxide","reference":"Observation/bd777dfb-7446-4aca-a5bb-a10b06b6bb2b"}],"status":"final","subject":{"reference":"Patient/00c8c9ed-65fe-4f9a-8e75-7d31ac64a04b"}}},{"resource":{"code":{"coding":[{"code":"51990-0","display":"Basic Metabolic Panel","system":"http://loinc.org"}],"text":"Basic Metabolic Panel"},"context":{"reference":"Encounter/a2486a35-029c-41e2-ae3c-4252c4d60263"},"effectiveDateTime":"2017-02-05T10:44:59-05:00","id":"540dec7f-65d9-4a10-acf5-c5f087c9ce9d","issued":"2017-02-05T10:44:59.853-05:00","meta":{"lastUpdated":"2019-04-09T09:57:54.976776+00:00","versionId":"MTU1NDgwMzg3NDk3Njc3NjAwMA"},"resourceType":"DiagnosticReport","result":[{"display":"Glucose","reference":"Observation/4613f232-ab41-483e-b9fb-264c0b9ee245"},{"display":"Urea Nitrogen","reference":"Observation/eb6db2e7-2d7c-4d44-9eeb-dca9d61215e4"},{"display":"Creatinine","reference":"Observation/144bc4ac-d7eb-48f8-bdef-c18f94319bc6"},{"display":"Calcium","reference":"Observation/ba8d11ff-6428-44c4-9425-593444103af3"},{"display":"Sodium","reference":"Observation/661cd0d9-231c-4e2e-b87b-4349007c6147"},{"display":"Potassium","reference":"Observation/019529fb-2365-4a10-936c-5768719d583c"},{"display":"Chloride","reference":"Observation/9ee54155-2142-4ccb-b388-702c62ed96ef"},{"display":"Carbon Dioxide","reference":"Observation/17a552b9-a0bd-462e-8541-01deab6ab495"}],"status":"final","subject":{"reference":"Patient/00c8c9ed-65fe-4f9a-8e75-7d31ac64a04b"}}},{"resource":{"code":{"coding":[{"code":"51990-0","display":"Basic Metabolic Panel","system":"http://loinc.org"}],"text":"Basic Metabolic Panel"},"context":{"reference":"Encounter/6b9f226f-9bdc-416c-a486-9f1492d70ad9"},"effectiveDateTime":"2016-07-10T11:44:59-04:00","id":"55b8af3a-0d34-4e6d-9862-488a3db20a82","issued":"2016-07-10T11:44:59.853-04:00","meta":{"lastUpdated":"2019-04-09T09:57:50.789220+00:00","versionId":"MTU1NDgwMzg3MDc4OTIyMDAwMA"},"resourceType":"DiagnosticReport","result":[{"display":"Glucose","reference":"Observation/a92c4838-d07a-41a9-829e-6dfb95522d7c"},{"display":"Urea Nitrogen","reference":"Observation/d843bf2c-e18e-4d12-a627-92f7d9581005"},{"display":"Creatinine","reference":"Observation/fc560755-6cc2-405b-b84f-eb5edc91c165"},{"display":"Calcium","reference":"Observation/bfb5c91e-17fb-4acd-a361-4805d8ed4a85"},{"display":"Sodium","reference":"Observation/e9dcc816-eb09-45d8-8f67-c099c86c5206"},{"display":"Potassium","reference":"Observation/d885e69b-493d-470e-873b-68ab2b17949a"},{"display":"Chloride","reference":"Observation/0a95b843-817b-46b7-85c0-f8f8faf3bc4b"},{"display":"Carbon Dioxide","reference":"Observation/02a44bd6-a27f-4ff1-969c-c800932d24c7"}],"status":"final","subject":{"reference":"Patient/00c8c9ed-65fe-4f9a-8e75-7d31ac64a04b"}}},{"resource":{"code":{"coding":[{"code":"57698-3","display":"Lipid Panel","system":"http://loinc.org"}],"text":"Lipid Panel"},"context":{"reference":"Encounter/1b648e79-a52b-4d23-ba62-efb56a7c1ab5"},"effectiveDateTime":"2015-07-05T11:44:59-04:00","id":"594ec7e8-278a-49be-a2ba-f7c87ad26a78","issued":"2015-07-05T11:44:59.853-04:00","meta":{"lastUpdated":"2019-04-09T09:57:43.397473+00:00","versionId":"MTU1NDgwMzg2MzM5NzQ3MzAwMA"},"resourceType":"DiagnosticReport","result":[{"display":"Total Cholesterol","reference":"Observation/597c28e3-89f5-44e9-b1d3-9ceb7d3f18d7"},{"display":"Triglycerides","reference":"Observation/6edcd759-26cb-410e-9e3f-8d5f58b962cf"},{"display":"Low Density Lipoprotein Cholesterol","reference":"Observation/75dce1d0-392e-4f2c-819b-94f956df9070"},{"display":"High Density Lipoprotein Cholesterol","reference":"Observation/1b526ab1-b96f-42d3-bdb1-35c91d584005"}],"status":"final","subject":{"reference":"Patient/00c8c9ed-65fe-4f9a-8e75-7d31ac64a04b"}}},{"resource":{"code":{"coding":[{"code":"57698-3","display":"Lipid Panel","system":"http://loinc.org"}],"text":"Lipid Panel"},"context":{"reference":"Encounter/2fd54842-ff58-47ab-90b6-773312bf305c"},"effectiveDateTime":"2014-01-12T10:44:59-05:00","id":"59d449d7-6bf9-4bb5-b45b-99de4d6a1632","issued":"2014-01-12T10:44:59.853-05:00","meta":{"lastUpdated":"2019-04-09T09:57:36.018082+00:00","versionId":"MTU1NDgwMzg1NjAxODA4MjAwMA"},"resourceType":"DiagnosticReport","result":[{"display":"Total Cholesterol","reference":"Observation/e32b77c6-9044-4874-a52c-42cbda70d427"},{"display":"Triglycerides","reference":"Observation/4b830b81-991d-4b92-a213-4c29b489aac5"},{"display":"Low Density Lipoprotein Cholesterol","reference":"Observation/e4b1471c-6310-4977-a986-de07d886d82d"},{"display":"High Density Lipoprotein Cholesterol","reference":"Observation/06bbfc98-2b1c-4f3e-b943-868e96be76f6"}],"status":"final","subject":{"reference":"Patient/00c8c9ed-65fe-4f9a-8e75-7d31ac64a04b"}}},{"resource":{"code":{"coding":[{"code":"57698-3","display":"Lipid Panel","system":"http://loinc.org"}],"text":"Lipid Panel"},"context":{"reference":"Encounter/aab12746-91ef-4e4c-871d-ad6e33970676"},"effectiveDateTime":"2009-06-07T11:44:59-04:00","id":"5ab83a72-a900-48f2-8b01-3c06efc30ed7","issued":"2009-06-07T11:44:59.853-04:00","meta":{"lastUpdated":"2019-04-09T09:57:13.359086+00:00","versionId":"MTU1NDgwMzgzMzM1OTA4NjAwMA"},"resourceType":"DiagnosticReport","result":[{"display":"Total Cholesterol","reference":"Observation/5dc410f1-8f54-4f24-85b6-e4989518ebd3"},{"display":"Triglycerides","reference":"Observation/c3bf824e-8409-4c2d-8cb6-abc28a0c3cf6"},{"display":"Low Density Lipoprotein Cholesterol","reference":"Observation/7d926c33-c427-4966-a7a9-5dd9c9a51b43"},{"display":"High Density Lipoprotein Cholesterol","reference":"Observation/8c080fea-ca27-4033-a540-689b17013dfa"}],"status":"final","subject":{"reference":"Patient/00c8c9ed-65fe-4f9a-8e75-7d31ac64a04b"}}},{"resource":{"code":{"coding":[{"code":"51990-0","display":"Basic Metabolic Panel","system":"http://loinc.org"}],"text":"Basic Metabolic Panel"},"context":{"reference":"Encounter/5bcbf7d4-5018-49ee-9695-bee3e2490997"},"effectiveDateTime":"2014-05-18T11:44:59-04:00","id":"5e1567fc-bcc0-4a5d-b2ae-0fa3e352d1b7","issued":"2014-05-18T11:44:59.853-04:00","meta":{"lastUpdated":"2019-04-09T09:57:39.070318+00:00","versionId":"MTU1NDgwMzg1OTA3MDMxODAwMA"},"resourceType":"DiagnosticReport","result":[{"display":"Glucose","reference":"Observation/84775d4d-eb74-42b2-b690-fcbb475edbc4"},{"display":"Urea Nitrogen","reference":"Observation/239ecbc0-da85-4e1a-adbe-e18a69000d84"},{"display":"Creatinine","reference":"Observation/512f93cd-fcf8-44c5-9c0d-1c64940a859f"},{"display":"Calcium","reference":"Observation/eed517e4-66fd-4dfc-a256-6129207c03a0"},{"display":"Sodium","reference":"Observation/289cd3b8-72b7-4136-864d-46a09b12a353"},{"display":"Potassium","reference":"Observation/993bf085-6005-4432-a5d0-63bcc5ce5218"},{"display":"Chloride","reference":"Observation/ae850af2-5ed2-4d9b-96d9-ec314298ac21"},{"display":"Carbon Dioxide","reference":"Observation/e167c87a-6e45-461c-921c-9d0d75f3cf02"}],"status":"final","subject":{"reference":"Patient/00c8c9ed-65fe-4f9a-8e75-7d31ac64a04b"}}},{"resource":{"code":{"coding":[{"code":"57698-3","display":"Lipid Panel","system":"http://loinc.org"}],"text":"Lipid Panel"},"context":{"reference":"Encounter/9cf183df-5bae-47a2-b834-2a76ec972903"},"effectiveDateTime":"2015-09-06T11:44:59-04:00","id":"5f90195d-e9dc-40bf-b07c-c42343462cbb","issued":"2015-09-06T11:44:59.853-04:00","meta":{"lastUpdated":"2019-04-09T09:57:45.483120+00:00","versionId":"MTU1NDgwMzg2NTQ4MzEyMDAwMA"},"resourceType":"DiagnosticReport","result":[{"display":"Total Cholesterol","reference":"Observation/5ab4e7d3-2632-4a62-b36f-9e7bbc514cc1"},{"display":"Triglycerides","reference":"Observation/c393a743-46ea-4dae-9168-3a7247941713"},{"display":"Low Density Lipoprotein Cholesterol","reference":"Observation/bc04ccf1-5352-4f50-a4af-24887a4e1426"},{"display":"High Density Lipoprotein Cholesterol","reference":"Observation/5da46ccf-1d6a-443d-9912-d3024e13657d"}],"status":"final","subject":{"reference":"Patient/00c8c9ed-65fe-4f9a-8e75-7d31ac64a04b"}}},{"resource":{"code":{"coding":[{"code":"57698-3","display":"Lipid Panel","system":"http://loinc.org"}],"text":"Lipid Panel"},"context":{"reference":"Encounter/5dc6abb5-4fe0-4842-a172-71f4d6b6088d"},"effectiveDateTime":"2013-08-18T11:44:59-04:00","id":"61317528-7c92-405a-99d9-b775d0013415","issued":"2013-08-18T11:44:59.853-04:00","meta":{"lastUpdated":"2019-04-09T09:57:33.922623+00:00","versionId":"MTU1NDgwMzg1MzkyMjYyMzAwMA"},"resourceType":"DiagnosticReport","result":[{"display":"Total Cholesterol","reference":"Observation/6d42573e-d69d-4e38-abb9-e38dfd3310a1"},{"display":"Triglycerides","reference":"Observation/b73ff200-87bf-498e-9e0c-5d2f3b88e912"},{"display":"Low Density Lipoprotein Cholesterol","reference":"Observation/246b1e0d-bb87-4d82-9bff-17bb34576d03"},{"display":"High Density Lipoprotein Cholesterol","reference":"Observation/a0a3d5bd-40ba-4b58-ad7f-a95672ceb5a7"}],"status":"final","subject":{"reference":"Patient/00c8c9ed-65fe-4f9a-8e75-7d31ac64a04b"}}},{"resource":{"code":{"coding":[{"code":"51990-0","display":"Basic Metabolic Panel","system":"http://loinc.org"}],"text":"Basic Metabolic Panel"},"context":{"reference":"Encounter/7d38efe6-5c5e-4c41-8dd2-b20a03849a61"},"effectiveDateTime":"2010-10-03T11:44:59-04:00","id":"6169edce-f87e-43f0-959b-f3495f63d09d","issued":"2010-10-03T11:44:59.853-04:00","meta":{"lastUpdated":"2019-04-09T09:57:22.667287+00:00","versionId":"MTU1NDgwMzg0MjY2NzI4NzAwMA"},"resourceType":"DiagnosticReport","result":[{"display":"Glucose","reference":"Observation/c39856f2-1a54-49ae-9482-2a34d05889f2"},{"display":"Urea Nitrogen","reference":"Observation/3c31e9b1-9290-482d-92aa-f8b7e8e26ea9"},{"display":"Creatinine","reference":"Observation/2943715c-6524-42e0-84cb-114148b52f5c"},{"display":"Calcium","reference":"Observation/d98c56e3-fe60-4c93-9942-b997f9b43176"},{"display":"Sodium","reference":"Observation/a3ee67f8-25b9-4d30-9893-f5cd99312ce9"},{"display":"Potassium","reference":"Observation/11f66f7b-4746-43fc-9615-689384d1fbf4"},{"display":"Chloride","reference":"Observation/fdbd154c-6c66-4cd3-beb1-a53d30e43248"},{"display":"Carbon Dioxide","reference":"Observation/bd4d7ef1-3f33-49c8-9d4e-1df502d72fb2"}],"status":"final","subject":{"reference":"Patient/00c8c9ed-65fe-4f9a-8e75-7d31ac64a04b"}}},{"resource":{"code":{"coding":[{"code":"57698-3","display":"Lipid Panel","system":"http://loinc.org"}],"text":"Lipid Panel"},"context":{"reference":"Encounter/ca7bb630-f344-46a9-8329-906a8d708a97"},"effectiveDateTime":"2013-01-06T10:44:59-05:00","id":"639ca08e-ee2a-49ec-90b5-3a7e55b0e532","issued":"2013-01-06T10:44:59.853-05:00","meta":{"lastUpdated":"2019-04-09T09:57:30.804898+00:00","versionId":"MTU1NDgwMzg1MDgwNDg5ODAwMA"},"resourceType":"DiagnosticReport","result":[{"display":"Total Cholesterol","reference":"Observation/d0b23092-2c6a-449b-9b67-c32911b38bd5"},{"display":"Triglycerides","reference":"Observation/87e804a2-d4ca-4977-a42c-1f7dd93c5ded"},{"display":"Low Density Lipoprotein Cholesterol","reference":"Observation/4121d9e2-6d5e-4796-ae89-4e013b1f0ea8"},{"display":"High Density Lipoprotein Cholesterol","reference":"Observation/7495e330-aac4-445f-a464-4991d127a6a2"}],"status":"final","subject":{"reference":"Patient/00c8c9ed-65fe-4f9a-8e75-7d31ac64a04b"}}},{"resource":{"code":{"coding":[{"code":"51990-0","display":"Basic Metabolic Panel","system":"http://loinc.org"}],"text":"Basic Metabolic Panel"},"context":{"reference":"Encounter/d4c3d8aa-689a-4a9d-870b-68040e534bc7"},"effectiveDateTime":"2017-10-29T11:44:59-04:00","id":"6497cd39-8a27-4bae-b11c-c6eb29e6a2e5","issued":"2017-10-29T11:44:59.853-04:00","meta":{"lastUpdated":"2019-04-09T09:58:00.221367+00:00","versionId":"MTU1NDgwMzg4MDIyMTM2NzAwMA"},"resourceType":"DiagnosticReport","result":[{"display":"Glucose","reference":"Observation/671c4800-0dc7-4241-879a-90858ec25bf3"},{"display":"Urea Nitrogen","reference":"Observation/77ae93ee-1f26-46f6-8006-a681242b542c"},{"display":"Creatinine","reference":"Observation/23b4822f-b250-4d75-b021-498c600d7ab1"},{"display":"Calcium","reference":"Observation/1c55b9b6-0dc0-4e7e-b6e0-1fdd4504f841"},{"display":"Sodium","reference":"Observation/06d5db5c-91df-4d1c-ade9-3009777b9d8b"},{"display":"Potassium","reference":"Observation/b1ff75e9-5ee3-4d38-833e-3344362a1e13"},{"display":"Chloride","reference":"Observation/76fae2e8-56e7-4210-aa9c-2d3a848ce87e"},{"display":"Carbon Dioxide","reference":"Observation/58f1d36e-fc63-46c3-9445-d7d83d2be984"}],"status":"final","subject":{"reference":"Patient/00c8c9ed-65fe-4f9a-8e75-7d31ac64a04b"}}},{"resource":{"code":{"coding":[{"code":"57698-3","display":"Lipid Panel","system":"http://loinc.org"}],"text":"Lipid Panel"},"context":{"reference":"Encounter/3f782eac-dd26-426e-a7ae-4ee44f4e99d0"},"effectiveDateTime":"2017-06-04T11:44:59-04:00","id":"64ce479b-a695-41d4-afd2-cdc5ba234da2","issued":"2017-06-04T11:44:59.853-04:00","meta":{"lastUpdated":"2019-04-09T09:57:57.088659+00:00","versionId":"MTU1NDgwMzg3NzA4ODY1OTAwMA"},"resourceType":"DiagnosticReport","result":[{"display":"Total Cholesterol","reference":"Observation/3f6905c9-1fff-4213-97a2-51ca1b97899d"},{"display":"Triglycerides","reference":"Observation/02e57fd1-3a3c-4935-903d-692a45eeeedf"},{"display":"Low Density Lipoprotein Cholesterol","reference":"Observation/13775a5d-dd15-449c-a6f7-ff10bac72c2f"},{"display":"High Density Lipoprotein Cholesterol","reference":"Observation/74425c1d-95b2-41e5-b9e1-ee4e72da1d3e"}],"status":"final","subject":{"reference":"Patient/00c8c9ed-65fe-4f9a-8e75-7d31ac64a04b"}}},{"resource":{"code":{"coding":[{"code":"24323-8","display":"Comprehensive metabolic 2000 panel - Serum or Plasma","system":"http://loinc.org"}],"text":"Comprehensive metabolic 2000 panel - Serum or Plasma"},"context":{"reference":"Encounter/2fa41261-13c4-42b4-9aed-48a648633a9c"},"effectiveDateTime":"2010-08-11T11:44:59-04:00","id":"66164e97-06b8-497b-8ff5-780deac0f7cf","issued":"2010-08-11T11:44:59.853-04:00","meta":{"lastUpdated":"2019-04-09T09:57:21.644467+00:00","versionId":"MTU1NDgwMzg0MTY0NDQ2NzAwMA"},"resourceType":"DiagnosticReport","result":[{"display":"Glucose","reference":"Observation/6a8635dd-8c7a-42bc-ae7c-b43bab740008"},{"display":"Urea Nitrogen","reference":"Observation/63cac252-c284-4541-b725-8998efc6407f"},{"display":"Creatinine","reference":"Observation/6ace96c3-250a-4537-b95a-e08dce707421"},{"display":"Calcium","reference":"Observation/0408b820-51bf-4f0a-b34c-d4b5727bef3f"},{"display":"Sodium","reference":"Observation/5f885873-19bd-4af5-bb6f-2b97b4782d5f"},{"display":"Potassium","reference":"Observation/c5f7d2eb-d1da-4112-b57f-086c8960edca"},{"display":"Chloride","reference":"Observation/dd74133d-9ddc-4cf8-b7d6-5d4c87c6478c"},{"display":"Carbon Dioxide","reference":"Observation/ad35c634-0659-4e0b-b8e2-53b1268d5b2a"},{"display":"Glomerular filtration rate/1.73 sq M.predicted","reference":"Observation/bcc15cac-1e64-49be-a379-b57a3e135856"},{"display":"Protein [Mass/volume] in Serum or Plasma","reference":"Observation/99d9e775-a792-4c69-8f63-41f72af03f69"},{"display":"Albumin [Mass/volume] in Serum or Plasma","reference":"Observation/9a18c885-9aee-46ed-aac0-42150e0d82a4"},{"display":"Globulin [Mass/volume] in Serum by calculation","reference":"Observation/1ba21f44-e0f0-4869-b606-35611cb19e67"},{"display":"Bilirubin.total [Mass/volume] in Serum or Plasma","reference":"Observation/c6acc288-1b05-4482-857c-d001c37dc1ad"},{"display":"Alkaline phosphatase [Enzymatic activity/volume] in Serum or Plasma","reference":"Observation/0749d8b3-88c2-4be6-816c-afcb3a889b2e"},{"display":"Alanine aminotransferase [Enzymatic activity/volume] in Serum or Plasma","reference":"Observation/32c42612-5ed5-4c6f-aea1-a174f13e5a3b"},{"display":"Aspartate aminotransferase [Enzymatic activity/volume] in Serum or Plasma","reference":"Observation/530b3ce1-2060-4cfd-939d-194c48237a97"}],"status":"final","subject":{"reference":"Patient/00c8c9ed-65fe-4f9a-8e75-7d31ac64a04b"}}},{"resource":{"code":{"coding":[{"code":"24323-8","display":"Comprehensive metabolic 2000 panel - Serum or Plasma","system":"http://loinc.org"}],"text":"Comprehensive metabolic 2000 panel - Serum or Plasma"},"context":{"reference":"Encounter/f0d3d881-f9f1-4b90-a147-aeae98bbb47e"},"effectiveDateTime":"2014-08-10T11:44:59-04:00","id":"668a1205-e75f-4820-87fb-533f2e5c7294","issued":"2014-08-10T11:44:59.853-04:00","meta":{"lastUpdated":"2019-04-09T09:57:41.181246+00:00","versionId":"MTU1NDgwMzg2MTE4MTI0NjAwMA"},"resourceType":"DiagnosticReport","result":[{"display":"Glucose","reference":"Observation/4fc36de9-4478-4357-8a33-95485557dbc8"},{"display":"Urea Nitrogen","reference":"Observation/5b4a6dcc-a5b5-4a66-ad84-bc09a79091da"},{"display":"Creatinine","reference":"Observation/0e8f7738-ad08-4859-b5f3-0949898d0480"},{"display":"Calcium","reference":"Observation/ec769043-82d6-497e-bf3e-863bd0d73861"},{"display":"Sodium","reference":"Observation/b9511967-087c-4e51-a03b-d2d43f3c5406"},{"display":"Potassium","reference":"Observation/8dbc8213-1ef6-44b1-9731-7487b8243226"},{"display":"Chloride","reference":"Observation/9f1548bb-a0fb-45e9-98d6-c2e7297f6f56"},{"display":"Carbon Dioxide","reference":"Observation/d5acfd08-dc9b-4350-b0d5-7b67d8e755e4"},{"display":"Glomerular filtration rate/1.73 sq M.predicted","reference":"Observation/162b8bd8-068f-4c3a-ac87-641e56258b8d"},{"display":"Protein [Mass/volume] in Serum or Plasma","reference":"Observation/154e085d-3799-48a9-8037-142e543e958c"},{"display":"Albumin [Mass/volume] in Serum or Plasma","reference":"Observation/6591d5ce-4d2b-43ce-bd9e-c9301ab5c9e7"},{"display":"Globulin [Mass/volume] in Serum by calculation","reference":"Observation/e421af31-604d-416c-a83e-79669b2e4685"},{"display":"Bilirubin.total [Mass/volume] in Serum or Plasma","reference":"Observation/ae9e8b55-ebae-419d-9e61-ee0d48149ae8"},{"display":"Alkaline phosphatase [Enzymatic activity/volume] in Serum or Plasma","reference":"Observation/3f7f88b5-6ea5-40a5-901e-e27b7dfcf3d0"},{"display":"Alanine aminotransferase [Enzymatic activity/volume] in Serum or Plasma","reference":"Observation/4f3167f9-4e74-473a-b6ad-af1a8613f3c7"},{"display":"Aspartate aminotransferase [Enzymatic activity/volume] in Serum or Plasma","reference":"Observation/f9e306b6-72cf-42dc-a6aa-350758c41ada"}],"status":"final","subject":{"reference":"Patient/00c8c9ed-65fe-4f9a-8e75-7d31ac64a04b"}}},{"resource":{"code":{"coding":[{"code":"51990-0","display":"Basic Metabolic Panel","system":"http://loinc.org"}],"text":"Basic Metabolic Panel"},"context":{"reference":"Encounter/475207e6-9ab8-4615-a923-96e274d2360c"},"effectiveDateTime":"2018-11-25T10:44:59-05:00","id":"66e60220-d656-4ab3-ab02-a45ec10df5ef","issued":"2018-11-25T10:44:59.853-05:00","meta":{"lastUpdated":"2019-04-09T09:58:06.541481+00:00","versionId":"MTU1NDgwMzg4NjU0MTQ4MTAwMA"},"resourceType":"DiagnosticReport","result":[{"display":"Glucose","reference":"Observation/9427e83a-198d-4f68-81b6-223401a5c569"},{"display":"Urea Nitrogen","reference":"Observation/93526588-17d9-40d3-9e3b-9bc5e4203e0a"},{"display":"Creatinine","reference":"Observation/ef88cd50-84c6-4c86-9b9f-a8fb306e8041"},{"display":"Calcium","reference":"Observation/60b1c293-563a-4e38-8182-ca6110645f33"},{"display":"Sodium","reference":"Observation/8f09c853-3389-4df3-94b3-b33237befccf"},{"display":"Potassium","reference":"Observation/70d2d7b2-e930-42bb-9fef-317ed803f2e4"},{"display":"Chloride","reference":"Observation/2b110a65-b15f-4ada-b439-76099bbe8dfe"},{"display":"Carbon Dioxide","reference":"Observation/3e917bf0-ea8b-4ddd-9b60-2976a5e5119e"}],"status":"final","subject":{"reference":"Patient/00c8c9ed-65fe-4f9a-8e75-7d31ac64a04b"}}},{"resource":{"code":{"coding":[{"code":"57698-3","display":"Lipid Panel","system":"http://loinc.org"}],"text":"Lipid Panel"},"context":{"reference":"Encounter/5c6e91b8-89c6-4bb5-813b-d294876cc99e"},"effectiveDateTime":"2017-09-03T11:44:59-04:00","id":"682b9838-ca8a-4833-a2a1-ff3846b7b9a5","issued":"2017-09-03T11:44:59.853-04:00","meta":{"lastUpdated":"2019-04-09T09:57:59.262594+00:00","versionId":"MTU1NDgwMzg3OTI2MjU5NDAwMA"},"resourceType":"DiagnosticReport","result":[{"display":"Total Cholesterol","reference":"Observation/62c11b09-8bbd-41a6-a3b7-d117cdfb3f0b"},{"display":"Triglycerides","reference":"Observation/20f03b2a-f129-4820-bc25-175f59c3ec66"},{"display":"Low Density Lipoprotein Cholesterol","reference":"Observation/11cb3273-7455-44b1-94ff-ae81e3a4b0be"},{"display":"High Density Lipoprotein Cholesterol","reference":"Observation/50998fa6-798b-43e9-834c-3c6acc406517"}],"status":"final","subject":{"reference":"Patient/00c8c9ed-65fe-4f9a-8e75-7d31ac64a04b"}}},{"resource":{"code":{"coding":[{"code":"57698-3","display":"Lipid Panel","system":"http://loinc.org"}],"text":"Lipid Panel"},"context":{"reference":"Encounter/a2486a35-029c-41e2-ae3c-4252c4d60263"},"effectiveDateTime":"2017-02-05T10:44:59-05:00","id":"693636c3-935c-4a37-9d14-529ee414260f","issued":"2017-02-05T10:44:59.853-05:00","meta":{"lastUpdated":"2019-04-09T09:57:54.966680+00:00","versionId":"MTU1NDgwMzg3NDk2NjY4MDAwMA"},"resourceType":"DiagnosticReport","result":[{"display":"Total Cholesterol","reference":"Observation/500bd62d-a44f-4cca-a3d7-66a422a44b2d"},{"display":"Triglycerides","reference":"Observation/939c5332-75ba-4bb2-b717-db50fd140380"},{"display":"Low Density Lipoprotein Cholesterol","reference":"Observation/a027fa05-d97a-4730-9285-1c88fa3af908"},{"display":"High Density Lipoprotein Cholesterol","reference":"Observation/b8e0d955-37c7-4e17-a28d-beca0524078c"}],"status":"final","subject":{"reference":"Patient/00c8c9ed-65fe-4f9a-8e75-7d31ac64a04b"}}},{"resource":{"code":{"coding":[{"code":"51990-0","display":"Basic Metabolic Panel","system":"http://loinc.org"}],"text":"Basic Metabolic Panel"},"context":{"reference":"Encounter/3f782eac-dd26-426e-a7ae-4ee44f4e99d0"},"effectiveDateTime":"2017-06-04T11:44:59-04:00","id":"69817b8c-a891-4ab5-9dfa-d2d477223170","issued":"2017-06-04T11:44:59.853-04:00","meta":{"lastUpdated":"2019-04-09T09:57:57.124055+00:00","versionId":"MTU1NDgwMzg3NzEyNDA1NTAwMA"},"resourceType":"DiagnosticReport","result":[{"display":"Glucose","reference":"Observation/c67be9e0-84ac-4615-8c1d-0958fc83adf5"},{"display":"Urea Nitrogen","reference":"Observation/0b2252a9-bc7e-4d90-885d-5e45c487673b"},{"display":"Creatinine","reference":"Observation/05cbd01b-32b2-4e67-a968-b4e0dbf7a837"},{"display":"Calcium","reference":"Observation/b6edde11-bd63-4647-82dc-3d6e477058c4"},{"display":"Sodium","reference":"Observation/cb6b2770-c2a2-44bb-b3e3-fa15551ba843"},{"display":"Potassium","reference":"Observation/0ddd44b9-a622-4790-9dc2-ce47603035bf"},{"display":"Chloride","reference":"Observation/88377ef9-e371-41ec-a7eb-2ce8ac6289c5"},{"display":"Carbon Dioxide","reference":"Observation/5e120acf-a086-465d-87b1-b4381a489bdd"}],"status":"final","subject":{"reference":"Patient/00c8c9ed-65fe-4f9a-8e75-7d31ac64a04b"}}},{"resource":{"code":{"coding":[{"code":"51990-0","display":"Basic Metabolic Panel","system":"http://loinc.org"}],"text":"Basic Metabolic Panel"},"context":{"reference":"Encounter/0d9c9cd4-c437-486b-8074-9206f6b15da0"},"effectiveDateTime":"2013-05-19T11:44:59-04:00","id":"6a16b263-4301-4691-857d-7c40dcf9e615","issued":"2013-05-19T11:44:59.853-04:00","meta":{"lastUpdated":"2019-04-09T09:57:31.839381+00:00","versionId":"MTU1NDgwMzg1MTgzOTM4MTAwMA"},"resourceType":"DiagnosticReport","result":[{"display":"Glucose","reference":"Observation/98ac67ee-6bd1-445c-adce-894a546fde9e"},{"display":"Urea Nitrogen","reference":"Observation/3cafad1e-de04-4b0a-aa63-f7530710d117"},{"display":"Creatinine","reference":"Observation/13759ec9-c724-4bf0-8daf-e3164690d342"},{"display":"Calcium","reference":"Observation/e9b8ba70-62fd-43e9-8286-ce0486bf9bc9"},{"display":"Sodium","reference":"Observation/813f5864-54ca-4d16-afa4-a348c57dd2f0"},{"display":"Potassium","reference":"Observation/e032b2cf-d4d3-43bd-b157-699c05bf5694"},{"display":"Chloride","reference":"Observation/02dfeff0-1e5d-458b-aa3b-c4728b9a2285"},{"display":"Carbon Dioxide","reference":"Observation/48222b0a-9988-45d3-97c5-7e47bb630340"}],"status":"final","subject":{"reference":"Patient/00c8c9ed-65fe-4f9a-8e75-7d31ac64a04b"}}},{"resource":{"code":{"coding":[{"code":"51990-0","display":"Basic Metabolic Panel","system":"http://loinc.org"}],"text":"Basic Metabolic Panel"},"context":{"reference":"Encounter/bf0f2bc0-48ac-4ffd-a990-e5c28e1771d8"},"effectiveDateTime":"2014-06-15T11:44:59-04:00","id":"6b082f94-9c87-43ca-a9d6-c568d0bb4741","issued":"2014-06-15T11:44:59.853-04:00","meta":{"lastUpdated":"2019-04-09T09:57:39.067535+00:00","versionId":"MTU1NDgwMzg1OTA2NzUzNTAwMA"},"resourceType":"DiagnosticReport","result":[{"display":"Glucose","reference":"Observation/79409a88-31ff-4848-95a8-1d774c412fd7"},{"display":"Urea Nitrogen","reference":"Observation/7475929a-864c-437b-a541-255cd40d2b2f"},{"display":"Creatinine","reference":"Observation/bb821898-13f7-41e3-8b16-7e5b5c9cc664"},{"display":"Calcium","reference":"Observation/8192650e-5d98-4868-81bb-9443dc877b62"},{"display":"Sodium","reference":"Observation/b425edf0-f69d-4f05-8daa-af6c9fa80db3"},{"display":"Potassium","reference":"Observation/135d8758-538b-4e68-b3e6-3e87c1132264"},{"display":"Chloride","reference":"Observation/cd362623-4eee-4552-9611-2f5148f64977"},{"display":"Carbon Dioxide","reference":"Observation/467fcf25-998c-4548-8de5-f48612417b07"}],"status":"final","subject":{"reference":"Patient/00c8c9ed-65fe-4f9a-8e75-7d31ac64a04b"}}}],"link":[{"url":"https://syntheticmass.mitre.org/v1/fhir/Patient/00c8c9ed-65fe-4f9a-8e75-7d31ac64a04b/$everything?_count=100&page_token=CoIBcHJvamVjdHMvc3ludGhlYS9sb2NhdGlvbnMvdXMtY2VudHJhbDEvZGF0YXNldHMvMjAxOTAyL2ZoaXJTdG9yZXMvc3ludGhldGljLW1hc3MvZmhpci9QYXRpZW50LzAwYzhjOWVkLTY1ZmUtNGY5YS04ZTc1LTdkMzFhYzY0YTA0YiBk","relation":"previous"},{"url":"https://syntheticmass.mitre.org/v1/fhir/Patient/00c8c9ed-65fe-4f9a-8e75-7d31ac64a04b/$everything?_count=100&page_token=CoIBcHJvamVjdHMvc3ludGhlYS9sb2NhdGlvbnMvdXMtY2VudHJhbDEvZGF0YXNldHMvMjAxOTAyL2ZoaXJTdG9yZXMvc3ludGhldGljLW1hc3MvZmhpci9QYXRpZW50LzAwYzhjOWVkLTY1ZmUtNGY5YS04ZTc1LTdkMzFhYzY0YTA0YiCsAg%3D%3D","relation":"next"}],"total":2485}
