{"resourceType":"Bundle","type":"searchset","entry":[{"resource":{"class":{"code":"ambulatory"},"id":"0294f7e3-4cef-430e-af70-c1c67db94121","meta":{"lastUpdated":"2019-04-09T09:59:24.138669+00:00","versionId":"MTU1NDgwMzk2NDEzODY2OTAwMA"},"participant":[{"individual":{"reference":"Practitioner/0d8a105b-bf25-4161-b635-3ea23d8eece3"}}],"period":{"end":"2014-05-04T21:43:52-04:00","start":"2014-05-04T20:34:52-04:00"},"resourceType":"Encounter","serviceProvider":{"reference":"Organization/b1d44a9d-02af-4ad2-845a-0d262fdc836f"},"status":"finished","subject":{"reference":"Patient/00bbc092-5868-40db-8eee-fe79d6a40e76"},"type":[{"coding":[{"code":"371883000","display":"Outpatient procedure","system":"http://snomed.info/sct"}],"text":"Outpatient procedure"}]}},{"resource":{"class":{"code":"WELLNESS"},"id":"0600f26b-5058-4004-be03-41b09d223b89","meta":{"lastUpdated":"2019-04-09T09:59:22.077484+00:00","versionId":"MTU1NDgwMzk2MjA3NzQ4NDAwMA"},"participant":[{"individual":{"reference":"Practitioner/0d8a105b-bf25-4161-b635-3ea23d8eece3"}}],"period":{"end":"2011-08-21T20:49:52-04:00","start":"2011-08-21T20:34:52-04:00"},"resourceType":"Encounter","serviceProvider":{"reference":"Organization/b1d44a9d-02af-4ad2-845a-0d262fdc836f"},"status":"finished","subject":{"reference":"Patient/00bbc092-5868-40db-8eee-fe79d6a40e76"},"type":[{"coding":[{"code":"185349003","display":"Encounter for check up (procedure)","system":"http://snomed.info/sct"}],"text":"Encounter for check up (procedure)"}]}},{"resource":{"class":{"code":"ambulatory"},"id":"06a054cf-fd01-4f9b-8b8a-42bc77b9c494","meta":{"lastUpdated":"2019-04-09T09:59:24.128425+00:00","versionId":"MTU1NDgwMzk2NDEyODQyNTAwMA"},"participant":[{"individual":{"reference":"Practitioner/0d8a105b-bf25-4161-b635-3ea23d8eece3"}}],"period":{"end":"2013-10-27T21:07:52-04:00","start":"2013-10-27T20:34:52-04:00"},"resourceType":"Encounter","serviceProvider":{"reference":"Organization/b1d44a9d-02af-4ad2-845a-0d262fdc836f"},"status":"finished","subject":{"reference":"Patient/00bbc092-5868-40db-8eee-fe79d6a40e76"},"type":[{"coding":[{"code":"371883000","display":"Outpatient procedure","system":"http://snomed.info/sct"}],"text":"Outpatient procedure"}]}},{"resource":{"class":{"code":"ambulatory"},"id":"085cbfd3-4f29-4e00-b8c3-b5644156ec0c","meta":{"lastUpdated":"2019-04-09T09:59:22.081597+00:00","versionId":"MTU1NDgwMzk2MjA4MTU5NzAwMA"},"participant":[{"individual":{"reference":"Practitioner/0d8a105b-bf25-4161-b635-3ea23d8eece3"}}],"period":{"end":"2012-04-29T21:41:52-04:00","start":"2012-04-29T20:34:52-04:00"},"resourceType":"Encounter","serviceProvider":{"reference":"Organization/b1d44a9d-02af-4ad2-845a-0d262fdc836f"},"status":"finished","subject":{"reference":"Patient/00bbc092-5868-40db-8eee-fe79d6a40e76"},"type":[{"coding":[{"code":"371883000","display":"Outpatient procedure","system":"http://snomed.info/sct"}],"text":"Outpatient procedure"}]}},{"resource":{"class":{"code":"ambulatory"},"id":"097659ee-c493-45fa-b18d-c3a606f8583a","meta":{"lastUpdated":"2019-04-09T09:59:24.145212+00:00","versionId":"MTU1NDgwMzk2NDE0NTIxMjAwMA"},"participant":[{"individual":{"reference":"Practitioner/0d8a105b-bf25-4161-b635-3ea23d8eece3"}}],"period":{"end":"2014-07-27T21:21:52-04:00","start":"2014-07-27T20:34:52-04:00"},"resourceType":"Encounter","serviceProvider":{"reference":"Organization/b1d44a9d-02af-4ad2-845a-0d262fdc836f"},"status":"finished","subject":{"reference":"Patient/00bbc092-5868-40db-8eee-fe79d6a40e76"},"type":[{"coding":[{"code":"371883000","display":"Outpatient procedure","system":"http://snomed.info/sct"}],"text":"Outpatient procedure"}]}},{"resource":{"class":{"code":"ambulatory"},"id":"0e806e63-206f-4c83-8cbe-10b244eb2116","meta":{"lastUpdated":"2019-04-09T09:59:24.134350+00:00","versionId":"MTU1NDgwMzk2NDEzNDM1MDAwMA"},"participant":[{"individual":{"reference":"Practitioner/0d8a105b-bf25-4161-b635-3ea23d8eece3"}}],"period":{"end":"2014-07-06T21:31:52-04:00","start":"2014-07-06T20:34:52-04:00"},"resourceType":"Encounter","serviceProvider":{"reference":"Organization/b1d44a9d-02af-4ad2-845a-0d262fdc836f"},"status":"finished","subject":{"reference":"Patient/00bbc092-5868-40db-8eee-fe79d6a40e76"},"type":[{"coding":[{"code":"371883000","display":"Outpatient procedure","system":"http://snomed.info/sct"}],"text":"Outpatient procedure"}]}},{"resource":{"class":{"code":"ambulatory"},"id":"0ea70ed3-7256-454d-8f59-d72b90bd39c7","meta":{"lastUpdated":"2019-04-09T09:59:22.088343+00:00","versionId":"MTU1NDgwMzk2MjA4ODM0MzAwMA"},"participant":[{"individual":{"reference":"Practitioner/0d8a105b-bf25-4161-b635-3ea23d8eece3"}}],"period":{"end":"2012-04-08T21:37:52-04:00","start":"2012-04-08T20:34:52-04:00"},"resourceType":"Encounter","serviceProvider":{"reference":"Organization/b1d44a9d-02af-4ad2-845a-0d262fdc836f"},"status":"finished","subject":{"reference":"Patient/00bbc092-5868-40db-8eee-fe79d6a40e76"},"type":[{"coding":[{"code":"371883000","display":"Outpatient procedure","system":"http://snomed.info/sct"}],"text":"Outpatient procedure"}]}},{"resource":{"class":{"code":"ambulatory"},"id":"15c94052-87d7-4f39-9c8c-213636d4401f","meta":{"lastUpdated":"2019-04-09T09:59:24.148928+00:00","versionId":"MTU1NDgwMzk2NDE0ODkyODAwMA"},"participant":[{"individual":{"reference":"Practitioner/0d8a105b-bf25-4161-b635-3ea23d8eece3"}}],"period":{"end":"2014-09-28T21:31:52-04:00","start":"2014-09-28T20:34:52-04:00"},"resourceType":"Encounter","serviceProvider":{"reference":"Organization/b1d44a9d-02af-4ad2-845a-0d262fdc836f"},"status":"finished","subject":{"reference":"Patient/00bbc092-5868-40db-8eee-fe79d6a40e76"},"type":[{"coding":[{"code":"371883000","display":"Outpatient procedure","system":"http://snomed.info/sct"}],"text":"Outpatient procedure"}]}},{"resource":{"class":{"code":"ambulatory"},"id":"175fd90c-ac86-49ee-ab79-f610f88d8f8a","meta":{"lastUpdated":"2019-04-09T09:59:23.108811+00:00","versionId":"MTU1NDgwMzk2MzEwODgxMTAwMA"},"participant":[{"individual":{"reference":"Practitioner/0d8a105b-bf25-4161-b635-3ea23d8eece3"}}],"period":{"end":"2012-08-12T21:04:52-04:00","start":"2012-08-12T20:34:52-04:00"},"resourceType":"Encounter","serviceProvider":{"reference":"Organization/b1d44a9d-02af-4ad2-845a-0d262fdc836f"},"status":"finished","subject":{"reference":"Patient/00bbc092-5868-40db-8eee-fe79d6a40e76"},"type":[{"coding":[{"code":"371883000","display":"Outpatient procedure","system":"http://snomed.info/sct"}],"text":"Outpatient procedure"}]}},{"resource":{"class":{"code":"ambulatory"},"id":"190de921-3903-40da-b44d-cdaae862b8d4","meta":{"lastUpdated":"2019-04-09T09:59:23.107811+00:00","versionId":"MTU1NDgwMzk2MzEwNzgxMTAwMA"},"participant":[{"individual":{"reference":"Practitioner/0d8a105b-bf25-4161-b635-3ea23d8eece3"}}],"period":{"end":"2013-09-15T21:45:52-04:00","start":"2013-09-15T20:34:52-04:00"},"resourceType":"Encounter","serviceProvider":{"reference":"Organization/b1d44a9d-02af-4ad2-845a-0d262fdc836f"},"status":"finished","subject":{"reference":"Patient/00bbc092-5868-40db-8eee-fe79d6a40e76"},"type":[{"coding":[{"code":"371883000","display":"Outpatient procedure","system":"http://snomed.info/sct"}],"text":"Outpatient procedure"}]}},{"resource":{"class":{"code":"ambulatory"},"id":"195a4c5f-b36e-4c2e-99e4-e21e25c35c48","meta":{"lastUpdated":"2019-04-09T09:59:22.091600+00:00","versionId":"MTU1NDgwMzk2MjA5MTYwMDAwMA"},"participant":[{"individual":{"reference":"Practitioner/0d8a105b-bf25-4161-b635-3ea23d8eece3"}}],"period":{"end":"2012-07-01T21:10:52-04:00","start":"2012-07-01T20:34:52-04:00"},"resourceType":"Encounter","serviceProvider":{"reference":"Organization/b1d44a9d-02af-4ad2-845a-0d262fdc836f"},"status":"finished","subject":{"reference":"Patient/00bbc092-5868-40db-8eee-fe79d6a40e76"},"type":[{"coding":[{"code":"371883000","display":"Outpatient procedure","system":"http://snomed.info/sct"}],"text":"Outpatient procedure"}]}},{"resource":{"class":{"code":"ambulatory"},"id":"21088e09-ba1b-44d0-9e0a-3e81f845c72d","meta":{"lastUpdated":"2019-04-09T09:59:23.108620+00:00","versionId":"MTU1NDgwMzk2MzEwODYyMDAwMA"},"participant":[{"individual":{"reference":"Practitioner/0d8a105b-bf25-4161-b635-3ea23d8eece3"}}],"period":{"end":"2013-08-25T21:07:52-04:00","start":"2013-08-25T20:34:52-04:00"},"resourceType":"Encounter","serviceProvider":{"reference":"Organization/b1d44a9d-02af-4ad2-845a-0d262fdc836f"},"status":"finished","subject":{"reference":"Patient/00bbc092-5868-40db-8eee-fe79d6a40e76"},"type":[{"coding":[{"code":"371883000","display":"Outpatient procedure","system":"http://snomed.info/sct"}],"text":"Outpatient procedure"}]}},{"resource":{"class":{"code":"WELLNESS"},"id":"22ddd548-ed7a-4f1a-ae05-c1d754553c8a","meta":{"lastUpdated":"2019-04-09T09:59:25.201387+00:00","versionId":"MTU1NDgwMzk2NTIwMTM4NzAwMA"},"participant":[{"individual":{"reference":"Practitioner/0d8a105b-bf25-4161-b635-3ea23d8eece3"}}],"period":{"end":"2017-09-24T21:04:52-04:00","start":"2017-09-24T20:34:52-04:00"},"resourceType":"Encounter","serviceProvider":{"reference":"Organization/b1d44a9d-02af-4ad2-845a-0d262fdc836f"},"status":"finished","subject":{"reference":"Patient/00bbc092-5868-40db-8eee-fe79d6a40e76"},"type":[{"coding":[{"code":"185349003","display":"Encounter for check up (procedure)","system":"http://snomed.info/sct"}],"text":"Encounter for check up (procedure)"}]}},{"resource":{"class":{"code":"ambulatory"},"id":"25fed259-e9c9-4380-b4fe-74b9a8bd5cfb","meta":{"lastUpdated":"2019-04-09T09:59:24.145213+00:00","versionId":"MTU1NDgwMzk2NDE0NTIxMzAwMA"},"participant":[{"individual":{"reference":"Practitioner/0d8a105b-bf25-4161-b635-3ea23d8eece3"}}],"period":{"end":"2014-03-02T20:25:52-05:00","start":"2014-03-02T19:34:52-05:00"},"resourceType":"Encounter","serviceProvider":{"reference":"Organization/b1d44a9d-02af-4ad2-845a-0d262fdc836f"},"status":"finished","subject":{"reference":"Patient/00bbc092-5868-40db-8eee-fe79d6a40e76"},"type":[{"coding":[{"code":"371883000","display":"Outpatient procedure","system":"http://snomed.info/sct"}],"text":"Outpatient procedure"}]}},{"resource":{"class":{"code":"ambulatory"},"id":"2655844e-78bb-4028-84e1-5dddf25f6ace","meta":{"lastUpdated":"2019-04-09T09:59:24.152883+00:00","versionId":"MTU1NDgwMzk2NDE1Mjg4MzAwMA"},"participant":[{"individual":{"reference":"Practitioner/0d8a105b-bf25-4161-b635-3ea23d8eece3"}}],"period":{"end":"2014-04-13T21:37:52-04:00","start":"2014-04-13T20:34:52-04:00"},"resourceType":"Encounter","serviceProvider":{"reference":"Organization/b1d44a9d-02af-4ad2-845a-0d262fdc836f"},"status":"finished","subject":{"reference":"Patient/00bbc092-5868-40db-8eee-fe79d6a40e76"},"type":[{"coding":[{"code":"371883000","display":"Outpatient procedure","system":"http://snomed.info/sct"}],"text":"Outpatient procedure"}]}},{"resource":{"class":{"code":"ambulatory"},"id":"28e8c576-9ecf-4fa6-9d26-125641f642c8","meta":{"lastUpdated":"2019-04-09T09:59:23.108619+00:00","versionId":"MTU1NDgwMzk2MzEwODYxOTAwMA"},"participant":[{"individual":{"reference":"Practitioner/0d8a105b-bf25-4161-b635-3ea23d8eece3"}}],"period":{"end":"2013-05-12T21:24:52-04:00","start":"2013-05-12T20:34:52-04:00"},"resourceType":"Encounter","serviceProvider":{"reference":"Organization/b1d44a9d-02af-4ad2-845a-0d262fdc836f"},"status":"finished","subject":{"reference":"Patient/00bbc092-5868-40db-8eee-fe79d6a40e76"},"type":[{"coding":[{"code":"371883000","display":"Outpatient procedure","system":"http://snomed.info/sct"}],"text":"Outpatient procedure"}]}},{"resource":{"class":{"code":"WELLNESS"},"id":"2e52596f-888a-41e9-9395-fe582cc3e394","meta":{"lastUpdated":"2019-04-09T09:59:23.107809+00:00","versionId":"MTU1NDgwMzk2MzEwNzgwOTAwMA"},"participant":[{"individual":{"reference":"Practitioner/0d8a105b-bf25-4161-b635-3ea23d8eece3"}}],"period":{"end":"2012-08-26T20:49:52-04:00","start":"2012-08-26T20:34:52-04:00"},"resourceType":"Encounter","serviceProvider":{"reference":"Organization/b1d44a9d-02af-4ad2-845a-0d262fdc836f"},"status":"finished","subject":{"reference":"Patient/00bbc092-5868-40db-8eee-fe79d6a40e76"},"type":[{"coding":[{"code":"185349003","display":"Encounter for check up (procedure)","system":"http://snomed.info/sct"}],"text":"Encounter for check up (procedure)"}]}},{"resource":{"class":{"code":"ambulatory"},"id":"2fe7798a-2e18-4849-8938-1dc9f5c3176b","meta":{"lastUpdated":"2019-04-09T09:59:23.108617+00:00","versionId":"MTU1NDgwMzk2MzEwODYxNzAwMA"},"participant":[{"individual":{"reference":"Practitioner/0d8a105b-bf25-4161-b635-3ea23d8eece3"}}],"period":{"end":"2013-03-31T21:31:52-04:00","start":"2013-03-31T20:34:52-04:00"},"resourceType":"Encounter","serviceProvider":{"reference":"Organization/b1d44a9d-02af-4ad2-845a-0d262fdc836f"},"status":"finished","subject":{"reference":"Patient/00bbc092-5868-40db-8eee-fe79d6a40e76"},"type":[{"coding":[{"code":"371883000","display":"Outpatient procedure","system":"http://snomed.info/sct"}],"text":"Outpatient procedure"}]}},{"resource":{"class":{"code":"WELLNESS"},"id":"33f6d60e-af7b-4629-9200-bf70e3baade3","meta":{"lastUpdated":"2019-04-09T09:59:24.145214+00:00","versionId":"MTU1NDgwMzk2NDE0NTIxNDAwMA"},"participant":[{"individual":{"reference":"Practitioner/0d8a105b-bf25-4161-b635-3ea23d8eece3"}}],"period":{"end":"2014-09-07T20:49:52-04:00","start":"2014-09-07T20:34:52-04:00"},"resourceType":"Encounter","serviceProvider":{"reference":"Organization/b1d44a9d-02af-4ad2-845a-0d262fdc836f"},"status":"finished","subject":{"reference":"Patient/00bbc092-5868-40db-8eee-fe79d6a40e76"},"type":[{"coding":[{"code":"185349003","display":"Encounter for check up (procedure)","system":"http://snomed.info/sct"}],"text":"Encounter for check up (procedure)"}]}},{"resource":{"class":{"code":"ambulatory"},"id":"37db9470-995f-4f44-b394-70bd3434f7d2","meta":{"lastUpdated":"2019-04-09T09:59:22.081775+00:00","versionId":"MTU1NDgwMzk2MjA4MTc3NTAwMA"},"participant":[{"individual":{"reference":"Practitioner/0d8a105b-bf25-4161-b635-3ea23d8eece3"}}],"period":{"end":"2011-12-04T20:46:52-05:00","start":"2011-12-04T19:34:52-05:00"},"resourceType":"Encounter","serviceProvider":{"reference":"Organization/b1d44a9d-02af-4ad2-845a-0d262fdc836f"},"status":"finished","subject":{"reference":"Patient/00bbc092-5868-40db-8eee-fe79d6a40e76"},"type":[{"coding":[{"code":"371883000","display":"Outpatient procedure","system":"http://snomed.info/sct"}],"text":"Outpatient procedure"}]}},{"resource":{"class":{"code":"emergency"},"id":"400c26e8-cd02-4f18-92a9-b530d4a00225","meta":{"lastUpdated":"2019-04-09T09:59:22.088341+00:00","versionId":"MTU1NDgwMzk2MjA4ODM0MTAwMA"},"participant":[{"individual":{"reference":"Practitioner/0d8a105b-bf25-4161-b635-3ea23d8eece3"}}],"period":{"end":"2011-11-29T20:34:52-05:00","start":"2011-11-29T19:34:52-05:00"},"resourceType":"Encounter","serviceProvider":{"reference":"Organization/b1d44a9d-02af-4ad2-845a-0d262fdc836f"},"status":"finished","subject":{"reference":"Patient/00bbc092-5868-40db-8eee-fe79d6a40e76"},"type":[{"coding":[{"code":"50849002","display":"Emergency room admission (procedure)","system":"http://snomed.info/sct"}],"text":"Emergency room admission (procedure)"}]}},{"resource":{"class":{"code":"ambulatory"},"id":"4a995a22-b18a-4b47-9146-d5060241dcdd","meta":{"lastUpdated":"2019-04-09T09:59:22.091601+00:00","versionId":"MTU1NDgwMzk2MjA5MTYwMTAwMA"},"participant":[{"individual":{"reference":"Practitioner/0d8a105b-bf25-4161-b635-3ea23d8eece3"}}],"period":{"end":"2012-02-26T20:48:52-05:00","start":"2012-02-26T19:34:52-05:00"},"resourceType":"Encounter","serviceProvider":{"reference":"Organization/b1d44a9d-02af-4ad2-845a-0d262fdc836f"},"status":"finished","subject":{"reference":"Patient/00bbc092-5868-40db-8eee-fe79d6a40e76"},"type":[{"coding":[{"code":"371883000","display":"Outpatient procedure","system":"http://snomed.info/sct"}],"text":"Outpatient procedure"}]}},{"resource":{"class":{"code":"ambulatory"},"id":"4e3e13c4-040c-450a-bc49-943131ec2db5","meta":{"lastUpdated":"2019-04-09T09:59:23.108826+00:00","versionId":"MTU1NDgwMzk2MzEwODgyNjAwMA"},"participant":[{"individual":{"reference":"Practitioner/0d8a105b-bf25-4161-b635-3ea23d8eece3"}}],"period":{"end":"2013-06-02T21:32:52-04:00","start":"2013-06-02T20:34:52-04:00"},"resourceType":"Encounter","serviceProvider":{"reference":"Organization/b1d44a9d-02af-4ad2-845a-0d262fdc836f"},"status":"finished","subject":{"reference":"Patient/00bbc092-5868-40db-8eee-fe79d6a40e76"},"type":[{"coding":[{"code":"371883000","display":"Outpatient procedure","system":"http://snomed.info/sct"}],"text":"Outpatient procedure"}]}},{"resource":{"class":{"code":"ambulatory"},"id":"57613d62-773c-46f3-92da-a5a77a33aad5","meta":{"lastUpdated":"2019-04-09T09:59:23.108822+00:00","versionId":"MTU1NDgwMzk2MzEwODgyMjAwMA"},"participant":[{"individual":{"reference":"Practitioner/0d8a105b-bf25-4161-b635-3ea23d8eece3"}}],"period":{"end":"2013-01-06T20:33:52-05:00","start":"2013-01-06T19:34:52-05:00"},"resourceType":"Encounter","serviceProvider":{"reference":"Organization/b1d44a9d-02af-4ad2-845a-0d262fdc836f"},"status":"finished","subject":{"reference":"Patient/00bbc092-5868-40db-8eee-fe79d6a40e76"},"type":[{"coding":[{"code":"371883000","display":"Outpatient procedure","system":"http://snomed.info/sct"}],"text":"Outpatient procedure"}]}},{"resource":{"class":{"code":"ambulatory"},"id":"5e3af1b5-75e0-4af8-a92a-7852264a07ee","meta":{"lastUpdated":"2019-04-09T09:59:23.108621+00:00","versionId":"MTU1NDgwMzk2MzEwODYyMTAwMA"},"participant":[{"individual":{"reference":"Practitioner/0d8a105b-bf25-4161-b635-3ea23d8eece3"}}],"period":{"end":"2012-11-25T20:06:52-05:00","start":"2012-11-25T19:34:52-05:00"},"resourceType":"Encounter","serviceProvider":{"reference":"Organization/b1d44a9d-02af-4ad2-845a-0d262fdc836f"},"status":"finished","subject":{"reference":"Patient/00bbc092-5868-40db-8eee-fe79d6a40e76"},"type":[{"coding":[{"code":"371883000","display":"Outpatient procedure","system":"http://snomed.info/sct"}],"text":"Outpatient procedure"}]}},{"resource":{"class":{"code":"ambulatory"},"id":"5ed4ea2b-c07f-4ec0-b09b-d99e993ac6fa","meta":{"lastUpdated":"2019-04-09T09:59:23.108824+00:00","versionId":"MTU1NDgwMzk2MzEwODgyNDAwMA"},"participant":[{"individual":{"reference":"Practitioner/0d8a105b-bf25-4161-b635-3ea23d8eece3"}}],"period":{"end":"2012-11-04T20:46:52-05:00","start":"2012-11-04T19:34:52-05:00"},"resourceType":"Encounter","serviceProvider":{"reference":"Organization/b1d44a9d-02af-4ad2-845a-0d262fdc836f"},"status":"finished","subject":{"reference":"Patient/00bbc092-5868-40db-8eee-fe79d6a40e76"},"type":[{"coding":[{"code":"371883000","display":"Outpatient procedure","system":"http://snomed.info/sct"}],"text":"Outpatient procedure"}]}},{"resource":{"class":{"code":"ambulatory"},"id":"5f623035-be56-4e88-83f8-cef369952ea9","meta":{"lastUpdated":"2019-04-09T09:59:22.084246+00:00","versionId":"MTU1NDgwMzk2MjA4NDI0NjAwMA"},"participant":[{"individual":{"reference":"Practitioner/0d8a105b-bf25-4161-b635-3ea23d8eece3"}}],"period":{"end":"2011-08-21T21:42:52-04:00","start":"2011-08-21T20:34:52-04:00"},"resourceType":"Encounter","serviceProvider":{"reference":"Organization/b1d44a9d-02af-4ad2-845a-0d262fdc836f"},"status":"finished","subject":{"reference":"Patient/00bbc092-5868-40db-8eee-fe79d6a40e76"},"type":[{"coding":[{"code":"371883000","display":"Outpatient procedure","system":"http://snomed.info/sct"}],"text":"Outpatient procedure"}]}},{"resource":{"class":{"code":"ambulatory"},"id":"60767925-c7f3-4f95-ab0d-21c367a9d361","meta":{"lastUpdated":"2019-04-09T09:59:22.088340+00:00","versionId":"MTU1NDgwMzk2MjA4ODM0MDAwMA"},"participant":[{"individual":{"reference":"Practitioner/0d8a105b-bf25-4161-b635-3ea23d8eece3"}}],"period":{"end":"2011-09-11T21:28:52-04:00","start":"2011-09-11T20:34:52-04:00"},"resourceType":"Encounter","serviceProvider":{"reference":"Organization/b1d44a9d-02af-4ad2-845a-0d262fdc836f"},"status":"finished","subject":{"reference":"Patient/00bbc092-5868-40db-8eee-fe79d6a40e76"},"type":[{"coding":[{"code":"371883000","display":"Outpatient procedure","system":"http://snomed.info/sct"}],"text":"Outpatient procedure"}]}},{"resource":{"class":{"code":"ambulatory"},"id":"65e48ffb-e18d-4691-b062-9549a5376386","meta":{"lastUpdated":"2019-04-09T09:59:22.091599+00:00","versionId":"MTU1NDgwMzk2MjA5MTU5OTAwMA"},"participant":[{"individual":{"reference":"Practitioner/0d8a105b-bf25-4161-b635-3ea23d8eece3"}}],"period":{"end":"2012-03-18T21:32:52-04:00","start":"2012-03-18T20:34:52-04:00"},"resourceType":"Encounter","serviceProvider":{"reference":"Organization/b1d44a9d-02af-4ad2-845a-0d262fdc836f"},"status":"finished","subject":{"reference":"Patient/00bbc092-5868-40db-8eee-fe79d6a40e76"},"type":[{"coding":[{"code":"371883000","display":"Outpatient procedure","system":"http://snomed.info/sct"}],"text":"Outpatient procedure"}]}},{"resource":{"class":{"code":"ambulatory"},"id":"67adeca0-7451-4781-afe8-5de79653c74e","meta":{"lastUpdated":"2019-04-09T09:59:23.119203+00:00","versionId":"MTU1NDgwMzk2MzExOTIwMzAwMA"},"participant":[{"individual":{"reference":"Practitioner/0d8a105b-bf25-4161-b635-3ea23d8eece3"}}],"period":{"end":"2013-06-23T21:36:52-04:00","start":"2013-06-23T20:34:52-04:00"},"resourceType":"Encounter","serviceProvider":{"reference":"Organization/b1d44a9d-02af-4ad2-845a-0d262fdc836f"},"status":"finished","subject":{"reference":"Patient/00bbc092-5868-40db-8eee-fe79d6a40e76"},"type":[{"coding":[{"code":"371883000","display":"Outpatient procedure","system":"http://snomed.info/sct"}],"text":"Outpatient procedure"}]}},{"resource":{"class":{"code":"WELLNESS"},"id":"68ca5148-df3c-4e56-b984-2a5d89223a9d","meta":{"lastUpdated":"2019-04-09T09:59:25.177831+00:00","versionId":"MTU1NDgwMzk2NTE3NzgzMTAwMA"},"participant":[{"individual":{"reference":"Practitioner/0d8a105b-bf25-4161-b635-3ea23d8eece3"}}],"period":{"end":"2015-09-13T20:49:52-04:00","start":"2015-09-13T20:34:52-04:00"},"resourceType":"Encounter","serviceProvider":{"reference":"Organization/b1d44a9d-02af-4ad2-845a-0d262fdc836f"},"status":"finished","subject":{"reference":"Patient/00bbc092-5868-40db-8eee-fe79d6a40e76"},"type":[{"coding":[{"code":"185349003","display":"Encounter for check up (procedure)","system":"http://snomed.info/sct"}],"text":"Encounter for check up (procedure)"}]}},{"resource":{"class":{"code":"ambulatory"},"id":"68e1bdde-cc3a-435d-82ef-ed3b0a319707","meta":{"lastUpdated":"2019-04-09T09:59:25.171787+00:00","versionId":"MTU1NDgwMzk2NTE3MTc4NzAwMA"},"participant":[{"individual":{"reference":"Practitioner/0d8a105b-bf25-4161-b635-3ea23d8eece3"}}],"period":{"end":"2015-02-01T20:12:52-05:00","start":"2015-02-01T19:34:52-05:00"},"resourceType":"Encounter","serviceProvider":{"reference":"Organization/b1d44a9d-02af-4ad2-845a-0d262fdc836f"},"status":"finished","subject":{"reference":"Patient/00bbc092-5868-40db-8eee-fe79d6a40e76"},"type":[{"coding":[{"code":"170838006","display":"Allergic disorder follow-up assessment","system":"http://snomed.info/sct"}],"text":"Allergic disorder follow-up assessment"}]}},{"resource":{"class":{"code":"ambulatory"},"id":"700e1209-6370-4845-83a3-1df1e4144835","meta":{"lastUpdated":"2019-04-09T09:59:22.081931+00:00","versionId":"MTU1NDgwMzk2MjA4MTkzMTAwMA"},"participant":[{"individual":{"reference":"Practitioner/0d8a105b-bf25-4161-b635-3ea23d8eece3"}}],"period":{"end":"2012-05-20T21:41:52-04:00","start":"2012-05-20T20:34:52-04:00"},"resourceType":"Encounter","serviceProvider":{"reference":"Organization/b1d44a9d-02af-4ad2-845a-0d262fdc836f"},"status":"finished","subject":{"reference":"Patient/00bbc092-5868-40db-8eee-fe79d6a40e76"},"type":[{"coding":[{"code":"371883000","display":"Outpatient procedure","system":"http://snomed.info/sct"}],"text":"Outpatient procedure"}]}},{"resource":{"class":{"code":"ambulatory"},"id":"73e455c9-9156-498d-9b09-d872b4fa796e","meta":{"lastUpdated":"2019-04-09T09:59:22.088342+00:00","versionId":"MTU1NDgwMzk2MjA4ODM0MjAwMA"},"participant":[{"individual":{"reference":"Practitioner/0d8a105b-bf25-4161-b635-3ea23d8eece3"}}],"period":{"end":"2012-01-15T20:13:52-05:00","start":"2012-01-15T19:34:52-05:00"},"resourceType":"Encounter","serviceProvider":{"reference":"Organization/b1d44a9d-02af-4ad2-845a-0d262fdc836f"},"status":"finished","subject":{"reference":"Patient/00bbc092-5868-40db-8eee-fe79d6a40e76"},"type":[{"coding":[{"code":"371883000","display":"Outpatient procedure","system":"http://snomed.info/sct"}],"text":"Outpatient procedure"}]}},{"resource":{"class":{"code":"ambulatory"},"id":"78942ec8-ae28-44d7-85a8-ff2ec31ba419","meta":{"lastUpdated":"2019-04-09T09:59:23.104037+00:00","versionId":"MTU1NDgwMzk2MzEwNDAzNzAwMA"},"participant":[{"individual":{"reference":"Practitioner/0d8a105b-bf25-4161-b635-3ea23d8eece3"}}],"period":{"end":"2013-08-04T21:08:52-04:00","start":"2013-08-04T20:34:52-04:00"},"resourceType":"Encounter","serviceProvider":{"reference":"Organization/b1d44a9d-02af-4ad2-845a-0d262fdc836f"},"status":"finished","subject":{"reference":"Patient/00bbc092-5868-40db-8eee-fe79d6a40e76"},"type":[{"coding":[{"code":"371883000","display":"Outpatient procedure","system":"http://snomed.info/sct"}],"text":"Outpatient procedure"}]}},{"resource":{"class":{"code":"ambulatory"},"id":"85a50756-1d06-460d-a369-56244775d343","meta":{"lastUpdated":"2019-04-09T09:59:23.104380+00:00","versionId":"MTU1NDgwMzk2MzEwNDM4MDAwMA"},"participant":[{"individual":{"reference":"Practitioner/0d8a105b-bf25-4161-b635-3ea23d8eece3"}}],"period":{"end":"2013-02-17T20:39:52-05:00","start":"2013-02-17T19:34:52-05:00"},"resourceType":"Encounter","serviceProvider":{"reference":"Organization/b1d44a9d-02af-4ad2-845a-0d262fdc836f"},"status":"finished","subject":{"reference":"Patient/00bbc092-5868-40db-8eee-fe79d6a40e76"},"type":[{"coding":[{"code":"371883000","display":"Outpatient procedure","system":"http://snomed.info/sct"}],"text":"Outpatient procedure"}]}},{"resource":{"class":{"code":"ambulatory"},"id":"8baf9263-8455-415b-a8a1-0a129c1dda22","meta":{"lastUpdated":"2019-04-09T09:59:23.108812+00:00","versionId":"MTU1NDgwMzk2MzEwODgxMjAwMA"},"participant":[{"individual":{"reference":"Practitioner/0d8a105b-bf25-4161-b635-3ea23d8eece3"}}],"period":{"end":"2013-03-10T21:06:52-04:00","start":"2013-03-10T20:34:52-04:00"},"resourceType":"Encounter","serviceProvider":{"reference":"Organization/b1d44a9d-02af-4ad2-845a-0d262fdc836f"},"status":"finished","subject":{"reference":"Patient/00bbc092-5868-40db-8eee-fe79d6a40e76"},"type":[{"coding":[{"code":"371883000","display":"Outpatient procedure","system":"http://snomed.info/sct"}],"text":"Outpatient procedure"}]}},{"resource":{"class":{"code":"ambulatory"},"id":"8cf13590-b4f8-48d9-8f82-c4e3e1463f53","meta":{"lastUpdated":"2019-04-09T09:59:24.131595+00:00","versionId":"MTU1NDgwMzk2NDEzMTU5NTAwMA"},"participant":[{"individual":{"reference":"Practitioner/0d8a105b-bf25-4161-b635-3ea23d8eece3"}}],"period":{"end":"2013-12-08T20:26:52-05:00","start":"2013-12-08T19:34:52-05:00"},"resourceType":"Encounter","serviceProvider":{"reference":"Organization/b1d44a9d-02af-4ad2-845a-0d262fdc836f"},"status":"finished","subject":{"reference":"Patient/00bbc092-5868-40db-8eee-fe79d6a40e76"},"type":[{"coding":[{"code":"371883000","display":"Outpatient procedure","system":"http://snomed.info/sct"}],"text":"Outpatient procedure"}]}},{"resource":{"class":{"code":"ambulatory"},"id":"92ae1808-59d2-4cf6-8ed4-e651b705a477","meta":{"lastUpdated":"2019-04-09T09:59:25.168894+00:00","versionId":"MTU1NDgwMzk2NTE2ODg5NDAwMA"},"participant":[{"individual":{"reference":"Practitioner/0d8a105b-bf25-4161-b635-3ea23d8eece3"}}],"period":{"end":"2015-01-11T20:10:52-05:00","start":"2015-01-11T19:34:52-05:00"},"resourceType":"Encounter","serviceProvider":{"reference":"Organization/b1d44a9d-02af-4ad2-845a-0d262fdc836f"},"status":"finished","subject":{"reference":"Patient/00bbc092-5868-40db-8eee-fe79d6a40e76"},"type":[{"coding":[{"code":"371883000","display":"Outpatient procedure","system":"http://snomed.info/sct"}],"text":"Outpatient procedure"}]}},{"resource":{"class":{"code":"ambulatory"},"id":"990aa33d-8a02-4071-9382-2181e9f0e0f8","meta":{"lastUpdated":"2019-04-09T09:59:23.107806+00:00","versionId":"MTU1NDgwMzk2MzEwNzgwNjAwMA"},"participant":[{"individual":{"reference":"Practitioner/0d8a105b-bf25-4161-b635-3ea23d8eece3"}}],"period":{"end":"2013-01-27T20:25:52-05:00","start":"2013-01-27T19:34:52-05:00"},"resourceType":"Encounter","serviceProvider":{"reference":"Organization/b1d44a9d-02af-4ad2-845a-0d262fdc836f"},"status":"finished","subject":{"reference":"Patient/00bbc092-5868-40db-8eee-fe79d6a40e76"},"type":[{"coding":[{"code":"371883000","display":"Outpatient procedure","system":"http://snomed.info/sct"}],"text":"Outpatient procedure"}]}},{"resource":{"class":{"code":"ambulatory"},"id":"9a126a1f-16e8-40a6-ae50-ce201fa0a6a8","meta":{"lastUpdated":"2019-04-09T09:59:22.084257+00:00","versionId":"MTU1NDgwMzk2MjA4NDI1NzAwMA"},"participant":[{"individual":{"reference":"Practitioner/0d8a105b-bf25-4161-b635-3ea23d8eece3"}}],"period":{"end":"2011-10-02T21:47:52-04:00","start":"2011-10-02T20:34:52-04:00"},"resourceType":"Encounter","serviceProvider":{"reference":"Organization/b1d44a9d-02af-4ad2-845a-0d262fdc836f"},"status":"finished","subject":{"reference":"Patient/00bbc092-5868-40db-8eee-fe79d6a40e76"},"type":[{"coding":[{"code":"371883000","display":"Outpatient procedure","system":"http://snomed.info/sct"}],"text":"Outpatient procedure"}]}},{"resource":{"class":{"code":"ambulatory"},"id":"9c300779-4488-48b5-90cb-e436ffc159fb","meta":{"lastUpdated":"2019-04-09T09:59:24.142209+00:00","versionId":"MTU1NDgwMzk2NDE0MjIwOTAwMA"},"participant":[{"individual":{"reference":"Practitioner/0d8a105b-bf25-4161-b635-3ea23d8eece3"}}],"period":{"end":"2014-05-25T21:47:52-04:00","start":"2014-05-25T20:34:52-04:00"},"resourceType":"Encounter","serviceProvider":{"reference":"Organization/b1d44a9d-02af-4ad2-845a-0d262fdc836f"},"status":"finished","subject":{"reference":"Patient/00bbc092-5868-40db-8eee-fe79d6a40e76"},"type":[{"coding":[{"code":"371883000","display":"Outpatient procedure","system":"http://snomed.info/sct"}],"text":"Outpatient procedure"}]}},{"resource":{"class":{"code":"ambulatory"},"id":"a045b85f-535c-4b24-875b-c838475c89dc","meta":{"lastUpdated":"2019-04-09T09:59:25.168893+00:00","versionId":"MTU1NDgwMzk2NTE2ODg5MzAwMA"},"participant":[{"individual":{"reference":"Practitioner/0d8a105b-bf25-4161-b635-3ea23d8eece3"}}],"period":{"end":"2014-11-09T20:06:52-05:00","start":"2014-11-09T19:34:52-05:00"},"resourceType":"Encounter","serviceProvider":{"reference":"Organization/b1d44a9d-02af-4ad2-845a-0d262fdc836f"},"status":"finished","subject":{"reference":"Patient/00bbc092-5868-40db-8eee-fe79d6a40e76"},"type":[{"coding":[{"code":"371883000","display":"Outpatient procedure","system":"http://snomed.info/sct"}],"text":"Outpatient procedure"}]}},{"resource":{"class":{"code":"ambulatory"},"id":"a25b96eb-8851-4809-a525-92a9c50ec3fc","meta":{"lastUpdated":"2019-04-09T09:59:25.165255+00:00","versionId":"MTU1NDgwMzk2NTE2NTI1NTAwMA"},"participant":[{"individual":{"reference":"Practitioner/0d8a105b-bf25-4161-b635-3ea23d8eece3"}}],"period":{"end":"2016-09-01T20:49:52-04:00","start":"2016-09-01T20:34:52-04:00"},"reason":[{"coding":[{"code":"58150001","display":"Fracture of clavicle","system":"http://snomed.info/sct"}]}],"resourceType":"Encounter","serviceProvider":{"reference":"Organization/b1d44a9d-02af-4ad2-845a-0d262fdc836f"},"status":"finished","subject":{"reference":"Patient/00bbc092-5868-40db-8eee-fe79d6a40e76"},"type":[{"coding":[{"code":"185349003","display":"Encounter for 'check-up'","system":"http://snomed.info/sct"}],"text":"Encounter for 'check-up'"}]}},{"resource":{"class":{"code":"ambulatory"},"id":"a29bbfea-567c-4e81-b0a6-fdaf3ef1abd9","meta":{"lastUpdated":"2019-04-09T09:59:23.098286+00:00","versionId":"MTU1NDgwMzk2MzA5ODI4NjAwMA"},"participant":[{"individual":{"reference":"Practitioner/0d8a105b-bf25-4161-b635-3ea23d8eece3"}}],"period":{"end":"2012-09-02T21:44:52-04:00","start":"2012-09-02T20:34:52-04:00"},"resourceType":"Encounter","serviceProvider":{"reference":"Organization/b1d44a9d-02af-4ad2-845a-0d262fdc836f"},"status":"finished","subject":{"reference":"Patient/00bbc092-5868-40db-8eee-fe79d6a40e76"},"type":[{"coding":[{"code":"371883000","display":"Outpatient procedure","system":"http://snomed.info/sct"}],"text":"Outpatient procedure"}]}},{"resource":{"class":{"code":"ambulatory"},"id":"a94a6956-ea4b-4240-96e4-48ac191a8a29","meta":{"lastUpdated":"2019-04-09T09:59:25.165254+00:00","versionId":"MTU1NDgwMzk2NTE2NTI1NDAwMA"},"participant":[{"individual":{"reference":"Practitioner/0d8a105b-bf25-4161-b635-3ea23d8eece3"}}],"period":{"end":"2015-05-29T21:06:52-04:00","start":"2015-05-29T20:34:52-04:00"},"reason":[{"coding":[{"code":"10509002","display":"Acute bronchitis (disorder)","system":"http://snomed.info/sct"}]}],"resourceType":"Encounter","serviceProvider":{"reference":"Organization/b1d44a9d-02af-4ad2-845a-0d262fdc836f"},"status":"finished","subject":{"reference":"Patient/00bbc092-5868-40db-8eee-fe79d6a40e76"},"type":[{"coding":[{"code":"185345009","display":"Encounter for symptom","system":"http://snomed.info/sct"}],"text":"Encounter for symptom"}]}},{"resource":{"class":{"code":"ambulatory"},"id":"abf4a997-f4bf-4b08-b208-8cc5a9a427d0","meta":{"lastUpdated":"2019-04-09T09:59:24.142383+00:00","versionId":"MTU1NDgwMzk2NDE0MjM4MzAwMA"},"participant":[{"individual":{"reference":"Practitioner/0d8a105b-bf25-4161-b635-3ea23d8eece3"}}],"period":{"end":"2014-10-19T21:16:52-04:00","start":"2014-10-19T20:34:52-04:00"},"resourceType":"Encounter","serviceProvider":{"reference":"Organization/b1d44a9d-02af-4ad2-845a-0d262fdc836f"},"status":"finished","subject":{"reference":"Patient/00bbc092-5868-40db-8eee-fe79d6a40e76"},"type":[{"coding":[{"code":"371883000","display":"Outpatient procedure","system":"http://snomed.info/sct"}],"text":"Outpatient procedure"}]}},{"resource":{"class":{"code":"ambulatory"},"id":"add0d612-1f37-4a85-a37f-3a0c55545125","meta":{"lastUpdated":"2019-04-09T09:59:22.084258+00:00","versionId":"MTU1NDgwMzk2MjA4NDI1ODAwMA"},"participant":[{"individual":{"reference":"Practitioner/0d8a105b-bf25-4161-b635-3ea23d8eece3"}}],"period":{"end":"2012-02-05T20:28:52-05:00","start":"2012-02-05T19:34:52-05:00"},"resourceType":"Encounter","serviceProvider":{"reference":"Organization/b1d44a9d-02af-4ad2-845a-0d262fdc836f"},"status":"finished","subject":{"reference":"Patient/00bbc092-5868-40db-8eee-fe79d6a40e76"},"type":[{"coding":[{"code":"371883000","display":"Outpatient procedure","system":"http://snomed.info/sct"}],"text":"Outpatient procedure"}]}},{"resource":{"class":{"code":"ambulatory"},"id":"b22496b9-56d4-4523-a119-3f156c6891e0","meta":{"lastUpdated":"2019-04-09T09:59:24.145217+00:00","versionId":"MTU1NDgwMzk2NDE0NTIxNzAwMA"},"participant":[{"individual":{"reference":"Practitioner/0d8a105b-bf25-4161-b635-3ea23d8eece3"}}],"period":{"end":"2014-09-07T21:06:52-04:00","start":"2014-09-07T20:34:52-04:00"},"resourceType":"Encounter","serviceProvider":{"reference":"Organization/b1d44a9d-02af-4ad2-845a-0d262fdc836f"},"status":"finished","subject":{"reference":"Patient/00bbc092-5868-40db-8eee-fe79d6a40e76"},"type":[{"coding":[{"code":"371883000","display":"Outpatient procedure","system":"http://snomed.info/sct"}],"text":"Outpatient procedure"}]}},{"resource":{"class":{"code":"ambulatory"},"id":"b7a00c74-866c-4a62-b72d-13f5c1a227b5","meta":{"lastUpdated":"2019-04-09T09:59:23.098287+00:00","versionId":"MTU1NDgwMzk2MzA5ODI4NzAwMA"},"participant":[{"individual":{"reference":"Practitioner/0d8a105b-bf25-4161-b635-3ea23d8eece3"}}],"period":{"end":"2012-07-22T21:48:52-04:00","start":"2012-07-22T20:34:52-04:00"},"resourceType":"Encounter","serviceProvider":{"reference":"Organization/b1d44a9d-02af-4ad2-845a-0d262fdc836f"},"status":"finished","subject":{"reference":"Patient/00bbc092-5868-40db-8eee-fe79d6a40e76"},"type":[{"coding":[{"code":"371883000","display":"Outpatient procedure","system":"http://snomed.info/sct"}],"text":"Outpatient procedure"}]}},{"resource":{"class":{"code":"ambulatory"},"id":"b8171c29-6db8-4ff7-9b2d-e697288f8669","meta":{"lastUpdated":"2019-04-09T09:59:21.048370+00:00","versionId":"MTU1NDgwMzk2MTA0ODM3MDAwMA"},"participant":[{"individual":{"reference":"Practitioner/0d8a105b-bf25-4161-b635-3ea23d8eece3"}}],"period":{"end":"2000-08-21T21:17:52-04:00","start":"2000-08-21T20:34:52-04:00"},"resourceType":"Encounter","serviceProvider":{"reference":"Organization/b1d44a9d-02af-4ad2-845a-0d262fdc836f"},"status":"finished","subject":{"reference":"Patient/00bbc092-5868-40db-8eee-fe79d6a40e76"},"type":[{"coding":[{"code":"185347001","display":"Encounter for problem","system":"http://snomed.info/sct"}],"text":"Encounter for problem"}]}},{"resource":{"class":{"code":"ambulatory"},"id":"b9423a91-85c5-49a0-8ca2-7b812a2f59bd","meta":{"lastUpdated":"2019-04-09T09:59:22.084263+00:00","versionId":"MTU1NDgwMzk2MjA4NDI2MzAwMA"},"participant":[{"individual":{"reference":"Practitioner/0d8a105b-bf25-4161-b635-3ea23d8eece3"}}],"period":{"end":"2012-06-10T21:18:52-04:00","start":"2012-06-10T20:34:52-04:00"},"resourceType":"Encounter","serviceProvider":{"reference":"Organization/b1d44a9d-02af-4ad2-845a-0d262fdc836f"},"status":"finished","subject":{"reference":"Patient/00bbc092-5868-40db-8eee-fe79d6a40e76"},"type":[{"coding":[{"code":"371883000","display":"Outpatient procedure","system":"http://snomed.info/sct"}],"text":"Outpatient procedure"}]}},{"resource":{"class":{"code":"WELLNESS"},"id":"ba2df3ac-f9d8-44b8-98e8-ceb1bedb2cbe","meta":{"lastUpdated":"2019-04-09T09:59:25.165077+00:00","versionId":"MTU1NDgwMzk2NTE2NTA3NzAwMA"},"participant":[{"individual":{"reference":"Practitioner/0d8a105b-bf25-4161-b635-3ea23d8eece3"}}],"period":{"end":"2016-09-18T20:49:52-04:00","start":"2016-09-18T20:34:52-04:00"},"resourceType":"Encounter","serviceProvider":{"reference":"Organization/b1d44a9d-02af-4ad2-845a-0d262fdc836f"},"status":"finished","subject":{"reference":"Patient/00bbc092-5868-40db-8eee-fe79d6a40e76"},"type":[{"coding":[{"code":"185349003","display":"Encounter for check up (procedure)","system":"http://snomed.info/sct"}],"text":"Encounter for check up (procedure)"}]}},{"resource":{"class":{"code":"ambulatory"},"id":"ba4ca385-5f2c-4d1e-84be-28d53b3b60b0","meta":{"lastUpdated":"2019-04-09T09:59:25.163195+00:00","versionId":"MTU1NDgwMzk2NTE2MzE5NTAwMA"},"participant":[{"individual":{"reference":"Practitioner/0d8a105b-bf25-4161-b635-3ea23d8eece3"}}],"period":{"end":"2014-11-30T20:38:52-05:00","start":"2014-11-30T19:34:52-05:00"},"resourceType":"Encounter","serviceProvider":{"reference":"Organization/b1d44a9d-02af-4ad2-845a-0d262fdc836f"},"status":"finished","subject":{"reference":"Patient/00bbc092-5868-40db-8eee-fe79d6a40e76"},"type":[{"coding":[{"code":"371883000","display":"Outpatient procedure","system":"http://snomed.info/sct"}],"text":"Outpatient procedure"}]}},{"resource":{"class":{"code":"ambulatory"},"id":"befd1d9b-19b9-43cf-8c31-0174af3747e1","meta":{"lastUpdated":"2019-04-09T09:59:24.145215+00:00","versionId":"MTU1NDgwMzk2NDE0NTIxNTAwMA"},"participant":[{"individual":{"reference":"Practitioner/0d8a105b-bf25-4161-b635-3ea23d8eece3"}}],"period":{"end":"2014-08-17T21:31:52-04:00","start":"2014-08-17T20:34:52-04:00"},"resourceType":"Encounter","serviceProvider":{"reference":"Organization/b1d44a9d-02af-4ad2-845a-0d262fdc836f"},"status":"finished","subject":{"reference":"Patient/00bbc092-5868-40db-8eee-fe79d6a40e76"},"type":[{"coding":[{"code":"371883000","display":"Outpatient procedure","system":"http://snomed.info/sct"}],"text":"Outpatient procedure"}]}},{"resource":{"class":{"code":"ambulatory"},"id":"c102e191-70ba-4507-aa5c-33ebe1c585f3","meta":{"lastUpdated":"2019-04-09T09:59:21.038330+00:00","versionId":"MTU1NDgwMzk2MTAzODMzMDAwMA"},"participant":[{"individual":{"reference":"Practitioner/0d8a105b-bf25-4161-b635-3ea23d8eece3"}}],"period":{"end":"2000-08-15T20:34:52-04:00","start":"2000-08-01T20:34:52-04:00"},"reason":[{"coding":[{"code":"232353008","display":"Perennial allergic rhinitis with seasonal variation","system":"http://snomed.info/sct"}]}],"resourceType":"Encounter","serviceProvider":{"reference":"Organization/b1d44a9d-02af-4ad2-845a-0d262fdc836f"},"status":"finished","subject":{"reference":"Patient/00bbc092-5868-40db-8eee-fe79d6a40e76"},"type":[{"coding":[{"code":"185345009","display":"Encounter for symptom","system":"http://snomed.info/sct"}],"text":"Encounter for symptom"}]}},{"resource":{"class":{"code":"ambulatory"},"id":"c40fc5bd-1d07-4c4b-9492-2c586a65aa23","meta":{"lastUpdated":"2019-04-09T09:59:22.091598+00:00","versionId":"MTU1NDgwMzk2MjA5MTU5ODAwMA"},"participant":[{"individual":{"reference":"Practitioner/0d8a105b-bf25-4161-b635-3ea23d8eece3"}}],"period":{"end":"2011-10-23T21:13:52-04:00","start":"2011-10-23T20:34:52-04:00"},"resourceType":"Encounter","serviceProvider":{"reference":"Organization/b1d44a9d-02af-4ad2-845a-0d262fdc836f"},"status":"finished","subject":{"reference":"Patient/00bbc092-5868-40db-8eee-fe79d6a40e76"},"type":[{"coding":[{"code":"371883000","display":"Outpatient procedure","system":"http://snomed.info/sct"}],"text":"Outpatient procedure"}]}},{"resource":{"class":{"code":"ambulatory"},"id":"c6a99392-3ad9-454a-bed9-8a06fee048f5","meta":{"lastUpdated":"2019-04-09T09:59:22.094585+00:00","versionId":"MTU1NDgwMzk2MjA5NDU4NTAwMA"},"participant":[{"individual":{"reference":"Practitioner/0d8a105b-bf25-4161-b635-3ea23d8eece3"}}],"period":{"end":"2011-12-31T19:49:52-05:00","start":"2011-12-31T19:34:52-05:00"},"reason":[{"coding":[{"code":"195662009","display":"Acute viral pharyngitis (disorder)","system":"http://snomed.info/sct"}]}],"resourceType":"Encounter","serviceProvider":{"reference":"Organization/b1d44a9d-02af-4ad2-845a-0d262fdc836f"},"status":"finished","subject":{"reference":"Patient/00bbc092-5868-40db-8eee-fe79d6a40e76"},"type":[{"coding":[{"code":"185345009","display":"Encounter for symptom","system":"http://snomed.info/sct"}],"text":"Encounter for symptom"}]}},{"resource":{"class":{"code":"ambulatory"},"id":"d1e9c302-33f1-42d1-ad42-efbf715ea83f","meta":{"lastUpdated":"2019-04-09T09:59:23.119457+00:00","versionId":"MTU1NDgwMzk2MzExOTQ1NzAwMA"},"participant":[{"individual":{"reference":"Practitioner/0d8a105b-bf25-4161-b635-3ea23d8eece3"}}],"period":{"end":"2012-09-23T21:27:52-04:00","start":"2012-09-23T20:34:52-04:00"},"resourceType":"Encounter","serviceProvider":{"reference":"Organization/b1d44a9d-02af-4ad2-845a-0d262fdc836f"},"status":"finished","subject":{"reference":"Patient/00bbc092-5868-40db-8eee-fe79d6a40e76"},"type":[{"coding":[{"code":"371883000","display":"Outpatient procedure","system":"http://snomed.info/sct"}],"text":"Outpatient procedure"}]}},{"resource":{"class":{"code":"WELLNESS"},"id":"d37d0954-1461-4ae3-8559-895452773274","meta":{"lastUpdated":"2019-04-09T09:59:23.143956+00:00","versionId":"MTU1NDgwMzk2MzE0Mzk1NjAwMA"},"participant":[{"individual":{"reference":"Practitioner/0d8a105b-bf25-4161-b635-3ea23d8eece3"}}],"period":{"end":"2013-09-01T20:49:52-04:00","start":"2013-09-01T20:34:52-04:00"},"resourceType":"Encounter","serviceProvider":{"reference":"Organization/b1d44a9d-02af-4ad2-845a-0d262fdc836f"},"status":"finished","subject":{"reference":"Patient/00bbc092-5868-40db-8eee-fe79d6a40e76"},"type":[{"coding":[{"code":"185349003","display":"Encounter for check up (procedure)","system":"http://snomed.info/sct"}],"text":"Encounter for check up (procedure)"}]}},{"resource":{"class":{"code":"ambulatory"},"id":"d6c7af4d-ea7b-45df-965c-3dab4bb1393b","meta":{"lastUpdated":"2019-04-09T09:59:22.084426+00:00","versionId":"MTU1NDgwMzk2MjA4NDQyNjAwMA"},"participant":[{"individual":{"reference":"Practitioner/0d8a105b-bf25-4161-b635-3ea23d8eece3"}}],"period":{"end":"2011-12-25T20:15:52-05:00","start":"2011-12-25T19:34:52-05:00"},"resourceType":"Encounter","serviceProvider":{"reference":"Organization/b1d44a9d-02af-4ad2-845a-0d262fdc836f"},"status":"finished","subject":{"reference":"Patient/00bbc092-5868-40db-8eee-fe79d6a40e76"},"type":[{"coding":[{"code":"371883000","display":"Outpatient procedure","system":"http://snomed.info/sct"}],"text":"Outpatient procedure"}]}},{"resource":{"class":{"code":"ambulatory"},"id":"d7431046-fc43-4151-8da9-5cb23593b878","meta":{"lastUpdated":"2019-04-09T09:59:24.138670+00:00","versionId":"MTU1NDgwMzk2NDEzODY3MDAwMA"},"participant":[{"individual":{"reference":"Practitioner/0d8a105b-bf25-4161-b635-3ea23d8eece3"}}],"period":{"end":"2013-10-06T21:11:52-04:00","start":"2013-10-06T20:34:52-04:00"},"resourceType":"Encounter","serviceProvider":{"reference":"Organization/b1d44a9d-02af-4ad2-845a-0d262fdc836f"},"status":"finished","subject":{"reference":"Patient/00bbc092-5868-40db-8eee-fe79d6a40e76"},"type":[{"coding":[{"code":"371883000","display":"Outpatient procedure","system":"http://snomed.info/sct"}],"text":"Outpatient procedure"}]}},{"resource":{"class":{"code":"WELLNESS"},"id":"d811ad6c-4578-444d-98d9-af17d39d21c4","meta":{"lastUpdated":"2019-04-09T09:59:21.055099+00:00","versionId":"MTU1NDgwMzk2MTA1NTA5OTAwMA"},"participant":[{"individual":{"reference":"Practitioner/0d8a105b-bf25-4161-b635-3ea23d8eece3"}}],"period":{"end":"2010-08-15T20:49:52-04:00","start":"2010-08-15T20:34:52-04:00"},"resourceType":"Encounter","serviceProvider":{"reference":"Organization/b1d44a9d-02af-4ad2-845a-0d262fdc836f"},"status":"finished","subject":{"reference":"Patient/00bbc092-5868-40db-8eee-fe79d6a40e76"},"type":[{"coding":[{"code":"185349003","display":"Encounter for check up (procedure)","system":"http://snomed.info/sct"}],"text":"Encounter for check up (procedure)"}]}},{"resource":{"class":{"code":"ambulatory"},"id":"d8c55a43-b278-4ce3-bd32-5f197b88c5da","meta":{"lastUpdated":"2019-04-09T09:59:24.134452+00:00","versionId":"MTU1NDgwMzk2NDEzNDQ1MjAwMA"},"participant":[{"individual":{"reference":"Practitioner/0d8a105b-bf25-4161-b635-3ea23d8eece3"}}],"period":{"end":"2013-11-17T20:39:52-05:00","start":"2013-11-17T19:34:52-05:00"},"resourceType":"Encounter","serviceProvider":{"reference":"Organization/b1d44a9d-02af-4ad2-845a-0d262fdc836f"},"status":"finished","subject":{"reference":"Patient/00bbc092-5868-40db-8eee-fe79d6a40e76"},"type":[{"coding":[{"code":"371883000","display":"Outpatient procedure","system":"http://snomed.info/sct"}],"text":"Outpatient procedure"}]}},{"resource":{"class":{"code":"ambulatory"},"id":"df4c9ccb-e74e-4a3f-a26f-8ee73c4dece4","meta":{"lastUpdated":"2019-04-09T09:59:24.145211+00:00","versionId":"MTU1NDgwMzk2NDE0NTIxMTAwMA"},"participant":[{"individual":{"reference":"Practitioner/0d8a105b-bf25-4161-b635-3ea23d8eece3"}}],"period":{"end":"2014-01-19T20:09:52-05:00","start":"2014-01-19T19:34:52-05:00"},"resourceType":"Encounter","serviceProvider":{"reference":"Organization/b1d44a9d-02af-4ad2-845a-0d262fdc836f"},"status":"finished","subject":{"reference":"Patient/00bbc092-5868-40db-8eee-fe79d6a40e76"},"type":[{"coding":[{"code":"371883000","display":"Outpatient procedure","system":"http://snomed.info/sct"}],"text":"Outpatient procedure"}]}},{"resource":{"class":{"code":"ambulatory"},"id":"e04a7d83-0310-46e5-8e4d-16cf0bf01873","meta":{"lastUpdated":"2019-04-09T09:59:24.148929+00:00","versionId":"MTU1NDgwMzk2NDE0ODkyOTAwMA"},"participant":[{"individual":{"reference":"Practitioner/0d8a105b-bf25-4161-b635-3ea23d8eece3"}}],"period":{"end":"2014-02-09T20:28:52-05:00","start":"2014-02-09T19:34:52-05:00"},"resourceType":"Encounter","serviceProvider":{"reference":"Organization/b1d44a9d-02af-4ad2-845a-0d262fdc836f"},"status":"finished","subject":{"reference":"Patient/00bbc092-5868-40db-8eee-fe79d6a40e76"},"type":[{"coding":[{"code":"371883000","display":"Outpatient procedure","system":"http://snomed.info/sct"}],"text":"Outpatient procedure"}]}},{"resource":{"class":{"code":"ambulatory"},"id":"e078f4ca-a41c-4dee-a350-dce2cb3d96c5","meta":{"lastUpdated":"2019-04-09T09:59:23.107810+00:00","versionId":"MTU1NDgwMzk2MzEwNzgxMDAwMA"},"participant":[{"individual":{"reference":"Practitioner/0d8a105b-bf25-4161-b635-3ea23d8eece3"}}],"period":{"end":"2012-10-14T21:15:52-04:00","start":"2012-10-14T20:34:52-04:00"},"resourceType":"Encounter","serviceProvider":{"reference":"Organization/b1d44a9d-02af-4ad2-845a-0d262fdc836f"},"status":"finished","subject":{"reference":"Patient/00bbc092-5868-40db-8eee-fe79d6a40e76"},"type":[{"coding":[{"code":"371883000","display":"Outpatient procedure","system":"http://snomed.info/sct"}],"text":"Outpatient procedure"}]}},{"resource":{"class":{"code":"ambulatory"},"id":"e744c6f9-ec5c-49b7-989f-bd256519e5b2","meta":{"lastUpdated":"2019-04-09T09:59:25.171784+00:00","versionId":"MTU1NDgwMzk2NTE3MTc4NDAwMA"},"participant":[{"individual":{"reference":"Practitioner/0d8a105b-bf25-4161-b635-3ea23d8eece3"}}],"period":{"end":"2014-12-21T20:46:52-05:00","start":"2014-12-21T19:34:52-05:00"},"resourceType":"Encounter","serviceProvider":{"reference":"Organization/b1d44a9d-02af-4ad2-845a-0d262fdc836f"},"status":"finished","subject":{"reference":"Patient/00bbc092-5868-40db-8eee-fe79d6a40e76"},"type":[{"coding":[{"code":"371883000","display":"Outpatient procedure","system":"http://snomed.info/sct"}],"text":"Outpatient procedure"}]}},{"resource":{"class":{"code":"URGENTCARE"},"id":"ea839092-0589-4563-b9a1-6d85d88e2cc1","meta":{"lastUpdated":"2019-04-09T09:59:25.158611+00:00","versionId":"MTU1NDgwMzk2NTE1ODYxMTAwMA"},"participant":[{"individual":{"reference":"Practitioner/bec515cc-f5ea-4994-a145-f5ee65ce4ef2"}}],"period":{"end":"2015-06-07T20:49:52-04:00","start":"2015-06-07T20:34:52-04:00"},"resourceType":"Encounter","serviceProvider":{"reference":"Organization/16078c8f-26d2-4c8b-9b1a-dbcb3ada0f7a"},"status":"finished","subject":{"reference":"Patient/00bbc092-5868-40db-8eee-fe79d6a40e76"},"type":[{"coding":[{"code":"371883000","display":"Outpatient procedure (procedure)","system":"http://snomed.info/sct"}],"text":"Outpatient procedure (procedure)"}]}},{"resource":{"class":{"code":"emergency"},"id":"eb706670-24e7-4c66-92a9-6ffebf2757a7","meta":{"lastUpdated":"2019-04-09T09:59:25.165536+00:00","versionId":"MTU1NDgwMzk2NTE2NTUzNjAwMA"},"participant":[{"individual":{"reference":"Practitioner/0d8a105b-bf25-4161-b635-3ea23d8eece3"}}],"period":{"end":"2016-07-03T23:04:52-04:00","start":"2016-07-03T20:34:52-04:00"},"resourceType":"Encounter","serviceProvider":{"reference":"Organization/b1d44a9d-02af-4ad2-845a-0d262fdc836f"},"status":"finished","subject":{"reference":"Patient/00bbc092-5868-40db-8eee-fe79d6a40e76"},"type":[{"coding":[{"code":"50849002","display":"Emergency room admission (procedure)","system":"http://snomed.info/sct"}],"text":"Emergency room admission (procedure)"}]}},{"resource":{"class":{"code":"ambulatory"},"id":"ee34f273-b531-4f17-aabc-c429d7990e04","meta":{"lastUpdated":"2019-04-09T09:59:24.131594+00:00","versionId":"MTU1NDgwMzk2NDEzMTU5NDAwMA"},"participant":[{"individual":{"reference":"Practitioner/0d8a105b-bf25-4161-b635-3ea23d8eece3"}}],"period":{"end":"2014-06-15T21:12:52-04:00","start":"2014-06-15T20:34:52-04:00"},"resourceType":"Encounter","serviceProvider":{"reference":"Organization/b1d44a9d-02af-4ad2-845a-0d262fdc836f"},"status":"finished","subject":{"reference":"Patient/00bbc092-5868-40db-8eee-fe79d6a40e76"},"type":[{"coding":[{"code":"371883000","display":"Outpatient procedure","system":"http://snomed.info/sct"}],"text":"Outpatient procedure"}]}},{"resource":{"class":{"code":"WELLNESS"},"id":"eeeefa0a-ea8d-47d7-b5b3-6fe7e2251c42","meta":{"lastUpdated":"2019-04-09T09:59:21.044773+00:00","versionId":"MTU1NDgwMzk2MTA0NDc3MzAwMA"},"participant":[{"individual":{"reference":"Practitioner/0d8a105b-bf25-4161-b635-3ea23d8eece3"}}],"period":{"end":"2009-08-09T20:49:52-04:00","start":"2009-08-09T20:34:52-04:00"},"resourceType":"Encounter","serviceProvider":{"reference":"Organization/b1d44a9d-02af-4ad2-845a-0d262fdc836f"},"status":"finished","subject":{"reference":"Patient/00bbc092-5868-40db-8eee-fe79d6a40e76"},"type":[{"coding":[{"code":"185349003","display":"Encounter for check up (procedure)","system":"http://snomed.info/sct"}],"text":"Encounter for check up (procedure)"}]}},{"resource":{"class":{"code":"ambulatory"},"id":"f13cb0af-17cb-4e4b-9c40-1ba8855972a9","meta":{"lastUpdated":"2019-04-09T09:59:23.108815+00:00","versionId":"MTU1NDgwMzk2MzEwODgxNTAwMA"},"participant":[{"individual":{"reference":"Practitioner/0d8a105b-bf25-4161-b635-3ea23d8eece3"}}],"period":{"end":"2012-12-16T20:08:52-05:00","start":"2012-12-16T19:34:52-05:00"},"resourceType":"Encounter","serviceProvider":{"reference":"Organization/b1d44a9d-02af-4ad2-845a-0d262fdc836f"},"status":"finished","subject":{"reference":"Patient/00bbc092-5868-40db-8eee-fe79d6a40e76"},"type":[{"coding":[{"code":"371883000","display":"Outpatient procedure","system":"http://snomed.info/sct"}],"text":"Outpatient procedure"}]}},{"resource":{"class":{"code":"ambulatory"},"id":"f8df3b9b-59bc-4b66-ae17-d46cf80a7606","meta":{"lastUpdated":"2019-04-09T09:59:24.138672+00:00","versionId":"MTU1NDgwMzk2NDEzODY3MjAwMA"},"participant":[{"individual":{"reference":"Practitioner/0d8a105b-bf25-4161-b635-3ea23d8eece3"}}],"period":{"end":"2014-03-23T21:07:52-04:00","start":"2014-03-23T20:34:52-04:00"},"resourceType":"Encounter","serviceProvider":{"reference":"Organization/b1d44a9d-02af-4ad2-845a-0d262fdc836f"},"status":"finished","subject":{"reference":"Patient/00bbc092-5868-40db-8eee-fe79d6a40e76"},"type":[{"coding":[{"code":"371883000","display":"Outpatient procedure","system":"http://snomed.info/sct"}],"text":"Outpatient procedure"}]}},{"resource":{"class":{"code":"ambulatory"},"id":"f99dbf4f-580a-4b40-90d8-f958fef9b2b1","meta":{"lastUpdated":"2019-04-09T09:59:24.134837+00:00","versionId":"MTU1NDgwMzk2NDEzNDgzNzAwMA"},"participant":[{"individual":{"reference":"Practitioner/0d8a105b-bf25-4161-b635-3ea23d8eece3"}}],"period":{"end":"2013-12-29T20:29:52-05:00","start":"2013-12-29T19:34:52-05:00"},"resourceType":"Encounter","serviceProvider":{"reference":"Organization/b1d44a9d-02af-4ad2-845a-0d262fdc836f"},"status":"finished","subject":{"reference":"Patient/00bbc092-5868-40db-8eee-fe79d6a40e76"},"type":[{"coding":[{"code":"371883000","display":"Outpatient procedure","system":"http://snomed.info/sct"}],"text":"Outpatient procedure"}]}},{"resource":{"class":{"code":"ambulatory"},"id":"fa8f8544-bee6-4759-a369-b30ec0a1893f","meta":{"lastUpdated":"2019-04-09T09:59:23.105441+00:00","versionId":"MTU1NDgwMzk2MzEwNTQ0MTAwMA"},"participant":[{"individual":{"reference":"Practitioner/0d8a105b-bf25-4161-b635-3ea23d8eece3"}}],"period":{"end":"2013-07-14T21:17:52-04:00","start":"2013-07-14T20:34:52-04:00"},"resourceType":"Encounter","serviceProvider":{"reference":"Organization/b1d44a9d-02af-4ad2-845a-0d262fdc836f"},"status":"finished","subject":{"reference":"Patient/00bbc092-5868-40db-8eee-fe79d6a40e76"},"type":[{"coding":[{"code":"371883000","display":"Outpatient procedure","system":"http://snomed.info/sct"}],"text":"Outpatient procedure"}]}},{"resource":{"class":{"code":"ambulatory"},"id":"fd8bf04e-1677-4227-a9e4-663b34592174","meta":{"lastUpdated":"2019-04-09T09:59:23.108817+00:00","versionId":"MTU1NDgwMzk2MzEwODgxNzAwMA"},"participant":[{"individual":{"reference":"Practitioner/0d8a105b-bf25-4161-b635-3ea23d8eece3"}}],"period":{"end":"2013-04-21T21:36:52-04:00","start":"2013-04-21T20:34:52-04:00"},"resourceType":"Encounter","serviceProvider":{"reference":"Organization/b1d44a9d-02af-4ad2-845a-0d262fdc836f"},"status":"finished","subject":{"reference":"Patient/00bbc092-5868-40db-8eee-fe79d6a40e76"},"type":[{"coding":[{"code":"371883000","display":"Outpatient procedure","system":"http://snomed.info/sct"}],"text":"Outpatient procedure"}]}},{"resource":{"billablePeriod":{"end":"2015-09-28T21:31:52-04:00","extension":[{"url":"https://bluebutton.cms.gov/assets/ig/StructureDefinition-bluebutton-inpatient-claim-query-cd-extension","valueCoding":{"code":"3","display":"Final Bill","system":"https://bluebutton.cms.gov/assets/ig/ValueSet-claim-query-cd"}}],"start":"2014-09-28T21:31:52-04:00"},"careTeam":[{"provider":{"identifier":{"system":"http://hl7.org/fhir/sid/us-npi","value":"99999999"}},"role":{"coding":[{"code":"primary","display":"Primary Care Practitioner","system":"http://hl7.org/fhir/claimcareteamrole"}]},"sequence":1}],"contained":[{"id":"coverage","resourceType":"Coverage","type":{"text":"medicaid"}}],"extension":[{"url":"https://bluebutton.cms.gov/assets/ig/StructureDefinition-bluebutton-inpatient-ime-op-clm-val-amt-extension","valueMoney":{"code":"USD","system":"urn:iso:std:iso:4217","value":400}},{"url":"https://bluebutton.cms.gov/assets/ig/StructureDefinition-bluebutton-inpatient-dsh-op-clm-val-amt-extension","valueMoney":{"code":"USD","system":"urn:iso:std:iso:4217","value":0}},{"url":"https://bluebutton.cms.gov/assets/ig/StructureDefinition-bluebutton-inpatient-clm-pass-thru-per-diem-amt-extension","valueMoney":{"code":"USD","system":"urn:iso:std:iso:4217","value":0}},{"url":"https://bluebutton.cms.gov/assets/ig/StructureDefinition-bluebutton-inpatient-nch-profnl-cmpnt-chrg-amt-extension","valueMoney":{"code":"USD","system":"urn:iso:std:iso:4217","value":0}},{"url":"https://bluebutton.cms.gov/assets/ig/StructureDefinition-bluebutton-inpatient-clm-tot-pps-cptl-amt-extension","valueMoney":{"code":"USD","system":"urn:iso:std:iso:4217","value":0}},{"url":"https://bluebutton.cms.gov/assets/ig/StructureDefinition-bluebutton-inpatient-nch-bene-ip-ddctbl-amt-extension","valueMoney":{"code":"USD","system":"urn:iso:std:iso:4217","value":0}},{"url":"https://bluebutton.cms.gov/assets/ig/StructureDefinition-bluebutton-inpatient-nch-bene-pta-coinsrnc-lblty-amt-extension","valueMoney":{"code":"USD","system":"urn:iso:std:iso:4217","value":0}},{"url":"https://bluebutton.cms.gov/assets/ig/StructureDefinition-bluebutton-inpatient-nch-ip-ncvrd-chrg-amt-extension","valueMoney":{"code":"USD","system":"urn:iso:std:iso:4217","value":0}},{"url":"https://bluebutton.cms.gov/assets/ig/StructureDefinition-bluebutton-inpatient-nch-ip-tot-ddctn-amt-extension","valueMoney":{"code":"USD","system":"urn:iso:std:iso:4217","value":0}},{"url":"https://bluebutton.cms.gov/assets/ig/StructureDefinition-bluebutton-inpatient-clm-pps-cptl-dsprprtnt-shr-amt-extension","valueMoney":{"code":"USD","system":"urn:iso:std:iso:4217","value":0}},{"url":"https://bluebutton.cms.gov/assets/ig/StructureDefinition-bluebutton-inpatient-clm-pps-cptl-excptn-amt-extension","valueMoney":{"code":"USD","system":"urn:iso:std:iso:4217","value":0}},{"url":"https://bluebutton.cms.gov/assets/ig/StructureDefinition-bluebutton-inpatient-clm-pps-cptl-fsp-amt-extension","valueMoney":{"code":"USD","system":"urn:iso:std:iso:4217","value":0}},{"url":"https://bluebutton.cms.gov/assets/ig/StructureDefinition-bluebutton-inpatient-clm-pps-cptl-ime-amt-extension","valueMoney":{"code":"USD","system":"urn:iso:std:iso:4217","value":400}},{"url":"https://bluebutton.cms.gov/assets/ig/StructureDefinition-bluebutton-inpatient-clm-pps-cptl-outlier-amt-extension","valueMoney":{"code":"USD","system":"urn:iso:std:iso:4217","value":0}},{"url":"https://bluebutton.cms.gov/assets/ig/StructureDefinition-bluebutton-inpatient-clm-pps-old-cptl-hld-hrmls-amt-extension","valueMoney":{"code":"USD","system":"urn:iso:std:iso:4217","value":0}},{"url":"https://bluebutton.cms.gov/assets/ig/StructureDefinition-bluebutton-inpatient-nch-drg-outlier-aprvd-pmt-amt-extension","valueMoney":{"code":"USD","system":"urn:iso:std:iso:4217","value":0}},{"url":"https://bluebutton.cms.gov/assets/ig/StructureDefinition-bluebutton-inpatient-nch-bene-blood-ddctbl-lblty-am-extension","valueMoney":{"code":"USD","system":"urn:iso:std:iso:4217","value":0}},{"url":"https://bluebutton.cms.gov/assets/ig/StructureDefinition-bluebutton-inpatient-clm-mdcr-non-pmt-rsn-cd-extension","valueCoding":{"code":"N","display":"All other reasons for non-payment","system":"https://bluebutton.cms.gov/assets/ig/CodeSystem-clm-mdcr-non-pmt-rsn-cd"}},{"url":"https://bluebutton.cms.gov/assets/ig/StructureDefinition-bluebutton-inpatient-prpayamt-extension","valueMoney":{"code":"USD","system":"urn:iso:std:iso:4217","value":0}},{"url":"https://bluebutton.cms.gov/assets/ig/StructureDefinition-bluebutton-inpatient-fi-num-extension","valueIdentifier":{"system":"https://bluebutton.cms.gov/assets/ig/CodeSystem-fi-num","value":"002000"}}],"id":"01c90c30-081f-47b1-8529-fe5e19a389ab","identifier":[{"system":"https://bluebutton.cms.gov/resources/variables/clm_id","value":"b96f9ac1-38eb-4b2b-a5cc-9a7c7af83759"},{"system":"https://bluebutton.cms.gov/resources/identifier/claim-group","value":"99999999999"}],"insurance":{"coverage":{"reference":"#coverage"}},"item":[{"extension":[{"url":"https://bluebutton.cms.gov/assets/ig/StructureDefinition-bluebutton-inpatient-rev-cntr-ndc-qty-extension","valueQuantity":{"value":0}}],"locationCodeableConcept":{"coding":[{"code":"21","display":"Inpatient Hospital","system":"https://bluebutton.cms.gov/resources/variables/line_place_of_srvc_cd"}]},"sequence":1},{"adjudication":[{"amount":{"code":"USD","system":"urn:iso:std:iso:4217","value":3025.1540000000005},"category":{"coding":[{"code":"https://bluebutton.cms.gov/resources/variables/line_coinsrnc_amt","display":"Line Beneficiary Coinsurance Amount","system":"https://bluebutton.cms.gov/resources/codesystem/adjudication"}]}},{"amount":{"code":"USD","system":"urn:iso:std:iso:4217","value":12100.616000000002},"category":{"coding":[{"code":"https://bluebutton.cms.gov/resources/variables/line_prvdr_pmt_amt","display":"Line Provider Payment Amount","system":"https://bluebutton.cms.gov/resources/codesystem/adjudication"}]}},{"amount":{"code":"USD","system":"urn:iso:std:iso:4217","value":15125.77},"category":{"coding":[{"code":"https://bluebutton.cms.gov/resources/variables/line_sbmtd_chrg_amt","display":"Line Submitted Charge Amount","system":"https://bluebutton.cms.gov/resources/codesystem/adjudication"}]}},{"amount":{"code":"USD","system":"urn:iso:std:iso:4217","value":15125.77},"category":{"coding":[{"code":"https://bluebutton.cms.gov/resources/variables/line_alowd_chrg_amt","display":"Line Allowed Charge Amount","system":"https://bluebutton.cms.gov/resources/codesystem/adjudication"}]}},{"amount":{"code":"USD","system":"urn:iso:std:iso:4217","value":0},"category":{"coding":[{"code":"https://bluebutton.cms.gov/resources/variables/line_bene_ptb_ddctbl_amt","display":"Line Beneficiary Part B Deductible Amount","system":"https://bluebutton.cms.gov/resources/codesystem/adjudication"}]}},{"category":{"coding":[{"code":"https://bluebutton.cms.gov/resources/variables/line_prcsg_ind_cd","display":"Line Processing Indicator Code","system":"https://bluebutton.cms.gov/resources/codesystem/adjudication"}]}}],"extension":[{"url":"https://bluebutton.cms.gov/assets/ig/StructureDefinition-bluebutton-inpatient-rev-cntr-ndc-qty-extension","valueQuantity":{"value":0}}],"locationCodeableConcept":{"coding":[{"code":"21","display":"Inpatient Hospital","system":"https://bluebutton.cms.gov/resources/variables/line_place_of_srvc_cd"}]},"sequence":2,"service":{"coding":[{"code":"180256009","system":"http://snomed.info/sct","version":"v1"}]}}],"meta":{"lastUpdated":"2019-04-09T09:59:24.131599+00:00","profile":["https://bluebutton.cms.gov/assets/ig/StructureDefinition-bluebutton-inpatient-claim"],"versionId":"MTU1NDgwMzk2NDEzMTU5OTAwMA"},"organization":{"identifier":{"value":"b1d44a9d-02af-4ad2-845a-0d262fdc836f"}},"patient":{"reference":"Patient/00bbc092-5868-40db-8eee-fe79d6a40e76"},"payment":{"amount":{"code":"USD","system":"urn:iso:std:iso:4217","value":12100.616000000002}},"provider":{"identifier":{"value":"0d8a105b-bf25-4161-b635-3ea23d8eece3"}},"resourceType":"ExplanationOfBenefit","status":"active","totalCost":{"code":"USD","system":"urn:iso:std:iso:4217","value":15250.77},"type":{"coding":[{"code":"71","display":"Local carrier non-durable medical equipment, prosthetics, orthotics, and supplies (DMEPOS) claim","system":"https://bluebutton.cms.gov/resources/variables/nch_clm_type_cd"},{"code":"CARRIER","display":"EOB Type","system":"https://bluebutton.cms.gov/resources/codesystem/eob-type"},{"code":"professional","display":"Claim Type","system":"http://hl7.org/fhir/ex-claimtype"},{"code":"O","display":"Part B physician/supplier claim record (processed by local carriers; can include DMEPOS services)","system":"https://bluebutton.cms.gov/resources/variables/nch_near_line_rec_ident_cd"}]}}},{"resource":{"billablePeriod":{"end":"2013-03-18T21:32:52-04:00","extension":[{"url":"https://bluebutton.cms.gov/assets/ig/StructureDefinition-bluebutton-inpatient-claim-query-cd-extension","valueCoding":{"code":"3","display":"Final Bill","system":"https://bluebutton.cms.gov/assets/ig/ValueSet-claim-query-cd"}}],"start":"2012-03-18T21:32:52-04:00"},"careTeam":[{"provider":{"identifier":{"system":"http://hl7.org/fhir/sid/us-npi","value":"99999999"}},"role":{"coding":[{"code":"primary","display":"Primary Care Practitioner","system":"http://hl7.org/fhir/claimcareteamrole"}]},"sequence":1}],"contained":[{"id":"coverage","resourceType":"Coverage","type":{"text":"medicaid"}}],"extension":[{"url":"https://bluebutton.cms.gov/assets/ig/StructureDefinition-bluebutton-inpatient-ime-op-clm-val-amt-extension","valueMoney":{"code":"USD","system":"urn:iso:std:iso:4217","value":400}},{"url":"https://bluebutton.cms.gov/assets/ig/StructureDefinition-bluebutton-inpatient-dsh-op-clm-val-amt-extension","valueMoney":{"code":"USD","system":"urn:iso:std:iso:4217","value":0}},{"url":"https://bluebutton.cms.gov/assets/ig/StructureDefinition-bluebutton-inpatient-clm-pass-thru-per-diem-amt-extension","valueMoney":{"code":"USD","system":"urn:iso:std:iso:4217","value":0}},{"url":"https://bluebutton.cms.gov/assets/ig/StructureDefinition-bluebutton-inpatient-nch-profnl-cmpnt-chrg-amt-extension","valueMoney":{"code":"USD","system":"urn:iso:std:iso:4217","value":0}},{"url":"https://bluebutton.cms.gov/assets/ig/StructureDefinition-bluebutton-inpatient-clm-tot-pps-cptl-amt-extension","valueMoney":{"code":"USD","system":"urn:iso:std:iso:4217","value":0}},{"url":"https://bluebutton.cms.gov/assets/ig/StructureDefinition-bluebutton-inpatient-nch-bene-ip-ddctbl-amt-extension","valueMoney":{"code":"USD","system":"urn:iso:std:iso:4217","value":0}},{"url":"https://bluebutton.cms.gov/assets/ig/StructureDefinition-bluebutton-inpatient-nch-bene-pta-coinsrnc-lblty-amt-extension","valueMoney":{"code":"USD","system":"urn:iso:std:iso:4217","value":0}},{"url":"https://bluebutton.cms.gov/assets/ig/StructureDefinition-bluebutton-inpatient-nch-ip-ncvrd-chrg-amt-extension","valueMoney":{"code":"USD","system":"urn:iso:std:iso:4217","value":0}},{"url":"https://bluebutton.cms.gov/assets/ig/StructureDefinition-bluebutton-inpatient-nch-ip-tot-ddctn-amt-extension","valueMoney":{"code":"USD","system":"urn:iso:std:iso:4217","value":0}},{"url":"https://bluebutton.cms.gov/assets/ig/StructureDefinition-bluebutton-inpatient-clm-pps-cptl-dsprprtnt-shr-amt-extension","valueMoney":{"code":"USD","system":"urn:iso:std:iso:4217","value":0}},{"url":"https://bluebutton.cms.gov/assets/ig/StructureDefinition-bluebutton-inpatient-clm-pps-cptl-excptn-amt-extension","valueMoney":{"code":"USD","system":"urn:iso:std:iso:4217","value":0}},{"url":"https://bluebutton.cms.gov/assets/ig/StructureDefinition-bluebutton-inpatient-clm-pps-cptl-fsp-amt-extension","valueMoney":{"code":"USD","system":"urn:iso:std:iso:4217","value":0}},{"url":"https://bluebutton.cms.gov/assets/ig/StructureDefinition-bluebutton-inpatient-clm-pps-cptl-ime-amt-extension","valueMoney":{"code":"USD","system":"urn:iso:std:iso:4217","value":400}},{"url":"https://bluebutton.cms.gov/assets/ig/StructureDefinition-bluebutton-inpatient-clm-pps-cptl-outlier-amt-extension","valueMoney":{"code":"USD","system":"urn:iso:std:iso:4217","value":0}},{"url":"https://bluebutton.cms.gov/assets/ig/StructureDefinition-bluebutton-inpatient-clm-pps-old-cptl-hld-hrmls-amt-extension","valueMoney":{"code":"USD","system":"urn:iso:std:iso:4217","value":0}},{"url":"https://bluebutton.cms.gov/assets/ig/StructureDefinition-bluebutton-inpatient-nch-drg-outlier-aprvd-pmt-amt-extension","valueMoney":{"code":"USD","system":"urn:iso:std:iso:4217","value":0}},{"url":"https://bluebutton.cms.gov/assets/ig/StructureDefinition-bluebutton-inpatient-nch-bene-blood-ddctbl-lblty-am-extension","valueMoney":{"code":"USD","system":"urn:iso:std:iso:4217","value":0}},{"url":"https://bluebutton.cms.gov/assets/ig/StructureDefinition-bluebutton-inpatient-clm-mdcr-non-pmt-rsn-cd-extension","valueCoding":{"code":"N","display":"All other reasons for non-payment","system":"https://bluebutton.cms.gov/assets/ig/CodeSystem-clm-mdcr-non-pmt-rsn-cd"}},{"url":"https://bluebutton.cms.gov/assets/ig/StructureDefinition-bluebutton-inpatient-prpayamt-extension","valueMoney":{"code":"USD","system":"urn:iso:std:iso:4217","value":0}},{"url":"https://bluebutton.cms.gov/assets/ig/StructureDefinition-bluebutton-inpatient-fi-num-extension","valueIdentifier":{"system":"https://bluebutton.cms.gov/assets/ig/CodeSystem-fi-num","value":"002000"}}],"id":"03438cdb-c06e-4636-8028-d883616be114","identifier":[{"system":"https://bluebutton.cms.gov/resources/variables/clm_id","value":"bd10fecd-b082-419d-856c-75b9c5e604e6"},{"system":"https://bluebutton.cms.gov/resources/identifier/claim-group","value":"99999999999"}],"insurance":{"coverage":{"reference":"#coverage"}},"item":[{"extension":[{"url":"https://bluebutton.cms.gov/assets/ig/StructureDefinition-bluebutton-inpatient-rev-cntr-ndc-qty-extension","valueQuantity":{"value":0}}],"locationCodeableConcept":{"coding":[{"code":"21","display":"Inpatient Hospital","system":"https://bluebutton.cms.gov/resources/variables/line_place_of_srvc_cd"}]},"sequence":1},{"adjudication":[{"amount":{"code":"USD","system":"urn:iso:std:iso:4217","value":4561.036},"category":{"coding":[{"code":"https://bluebutton.cms.gov/resources/variables/line_coinsrnc_amt","display":"Line Beneficiary Coinsurance Amount","system":"https://bluebutton.cms.gov/resources/codesystem/adjudication"}]}},{"amount":{"code":"USD","system":"urn:iso:std:iso:4217","value":18244.144},"category":{"coding":[{"code":"https://bluebutton.cms.gov/resources/variables/line_prvdr_pmt_amt","display":"Line Provider Payment Amount","system":"https://bluebutton.cms.gov/resources/codesystem/adjudication"}]}},{"amount":{"code":"USD","system":"urn:iso:std:iso:4217","value":22805.18},"category":{"coding":[{"code":"https://bluebutton.cms.gov/resources/variables/line_sbmtd_chrg_amt","display":"Line Submitted Charge Amount","system":"https://bluebutton.cms.gov/resources/codesystem/adjudication"}]}},{"amount":{"code":"USD","system":"urn:iso:std:iso:4217","value":22805.18},"category":{"coding":[{"code":"https://bluebutton.cms.gov/resources/variables/line_alowd_chrg_amt","display":"Line Allowed Charge Amount","system":"https://bluebutton.cms.gov/resources/codesystem/adjudication"}]}},{"amount":{"code":"USD","system":"urn:iso:std:iso:4217","value":0},"category":{"coding":[{"code":"https://bluebutton.cms.gov/resources/variables/line_bene_ptb_ddctbl_amt","display":"Line Beneficiary Part B Deductible Amount","system":"https://bluebutton.cms.gov/resources/codesystem/adjudication"}]}},{"category":{"coding":[{"code":"https://bluebutton.cms.gov/resources/variables/line_prcsg_ind_cd","display":"Line Processing Indicator Code","system":"https://bluebutton.cms.gov/resources/codesystem/adjudication"}]}}],"extension":[{"url":"https://bluebutton.cms.gov/assets/ig/StructureDefinition-bluebutton-inpatient-rev-cntr-ndc-qty-extension","valueQuantity":{"value":0}}],"locationCodeableConcept":{"coding":[{"code":"21","display":"Inpatient Hospital","system":"https://bluebutton.cms.gov/resources/variables/line_place_of_srvc_cd"}]},"sequence":2,"service":{"coding":[{"code":"180256009","system":"http://snomed.info/sct","version":"v1"}]}}],"meta":{"lastUpdated":"2019-04-09T09:59:22.077827+00:00","profile":["https://bluebutton.cms.gov/assets/ig/StructureDefinition-bluebutton-inpatient-claim"],"versionId":"MTU1NDgwMzk2MjA3NzgyNzAwMA"},"organization":{"identifier":{"value":"b1d44a9d-02af-4ad2-845a-0d262fdc836f"}},"patient":{"reference":"Patient/00bbc092-5868-40db-8eee-fe79d6a40e76"},"payment":{"amount":{"code":"USD","system":"urn:iso:std:iso:4217","value":18244.144}},"provider":{"identifier":{"value":"0d8a105b-bf25-4161-b635-3ea23d8eece3"}},"resourceType":"ExplanationOfBenefit","status":"active","totalCost":{"code":"USD","system":"urn:iso:std:iso:4217","value":22930.18},"type":{"coding":[{"code":"71","display":"Local carrier non-durable medical equipment, prosthetics, orthotics, and supplies (DMEPOS) claim","system":"https://bluebutton.cms.gov/resources/variables/nch_clm_type_cd"},{"code":"CARRIER","display":"EOB Type","system":"https://bluebutton.cms.gov/resources/codesystem/eob-type"},{"code":"professional","display":"Claim Type","system":"http://hl7.org/fhir/ex-claimtype"},{"code":"O","display":"Part B physician/supplier claim record (processed by local carriers; can include DMEPOS services)","system":"https://bluebutton.cms.gov/resources/variables/nch_near_line_rec_ident_cd"}]}}},{"resource":{"billablePeriod":{"end":"2016-05-29T21:06:52-04:00","extension":[{"url":"https://bluebutton.cms.gov/assets/ig/StructureDefinition-bluebutton-inpatient-claim-query-cd-extension","valueCoding":{"code":"3","display":"Final Bill","system":"https://bluebutton.cms.gov/assets/ig/ValueSet-claim-query-cd"}}],"start":"2015-05-29T21:06:52-04:00"},"careTeam":[{"provider":{"identifier":{"system":"http://hl7.org/fhir/sid/us-npi","value":"99999999"}},"role":{"coding":[{"code":"primary","display":"Primary Care Practitioner","system":"http://hl7.org/fhir/claimcareteamrole"}]},"sequence":1}],"contained":[{"id":"coverage","resourceType":"Coverage","type":{"text":"medicaid"}}],"diagnosis":[{"diagnosisReference":{"reference":"Condition/8ab637a0-edfc-4a93-a722-8c881948639e"},"extension":[{"url":"https://bluebutton.cms.gov/assets/ig/StructureDefinition-bluebutton-inpatient-clm-poa-ind-sw1-extension","valueCoding":{"code":"Y","display":"Diagnosis present at time of admission","system":"https://bluebutton.cms.gov/assets/ig/CodeSystem-clm-poa-ind-sw1"}}],"sequence":1,"type":[{"coding":[{"code":"principal","system":"https://bluebutton.cms.gov/resources/codesystem/diagnosis-type"}]}]}],"extension":[{"url":"https://bluebutton.cms.gov/assets/ig/StructureDefinition-bluebutton-inpatient-ime-op-clm-val-amt-extension","valueMoney":{"code":"USD","system":"urn:iso:std:iso:4217","value":400}},{"url":"https://bluebutton.cms.gov/assets/ig/StructureDefinition-bluebutton-inpatient-dsh-op-clm-val-amt-extension","valueMoney":{"code":"USD","system":"urn:iso:std:iso:4217","value":0}},{"url":"https://bluebutton.cms.gov/assets/ig/StructureDefinition-bluebutton-inpatient-clm-pass-thru-per-diem-amt-extension","valueMoney":{"code":"USD","system":"urn:iso:std:iso:4217","value":0}},{"url":"https://bluebutton.cms.gov/assets/ig/StructureDefinition-bluebutton-inpatient-nch-profnl-cmpnt-chrg-amt-extension","valueMoney":{"code":"USD","system":"urn:iso:std:iso:4217","value":0}},{"url":"https://bluebutton.cms.gov/assets/ig/StructureDefinition-bluebutton-inpatient-clm-tot-pps-cptl-amt-extension","valueMoney":{"code":"USD","system":"urn:iso:std:iso:4217","value":0}},{"url":"https://bluebutton.cms.gov/assets/ig/StructureDefinition-bluebutton-inpatient-nch-bene-ip-ddctbl-amt-extension","valueMoney":{"code":"USD","system":"urn:iso:std:iso:4217","value":0}},{"url":"https://bluebutton.cms.gov/assets/ig/StructureDefinition-bluebutton-inpatient-nch-bene-pta-coinsrnc-lblty-amt-extension","valueMoney":{"code":"USD","system":"urn:iso:std:iso:4217","value":0}},{"url":"https://bluebutton.cms.gov/assets/ig/StructureDefinition-bluebutton-inpatient-nch-ip-ncvrd-chrg-amt-extension","valueMoney":{"code":"USD","system":"urn:iso:std:iso:4217","value":0}},{"url":"https://bluebutton.cms.gov/assets/ig/StructureDefinition-bluebutton-inpatient-nch-ip-tot-ddctn-amt-extension","valueMoney":{"code":"USD","system":"urn:iso:std:iso:4217","value":0}},{"url":"https://bluebutton.cms.gov/assets/ig/StructureDefinition-bluebutton-inpatient-clm-pps-cptl-dsprprtnt-shr-amt-extension","valueMoney":{"code":"USD","system":"urn:iso:std:iso:4217","value":0}},{"url":"https://bluebutton.cms.gov/assets/ig/StructureDefinition-bluebutton-inpatient-clm-pps-cptl-excptn-amt-extension","valueMoney":{"code":"USD","system":"urn:iso:std:iso:4217","value":0}},{"url":"https://bluebutton.cms.gov/assets/ig/StructureDefinition-bluebutton-inpatient-clm-pps-cptl-fsp-amt-extension","valueMoney":{"code":"USD","system":"urn:iso:std:iso:4217","value":0}},{"url":"https://bluebutton.cms.gov/assets/ig/StructureDefinition-bluebutton-inpatient-clm-pps-cptl-ime-amt-extension","valueMoney":{"code":"USD","system":"urn:iso:std:iso:4217","value":400}},{"url":"https://bluebutton.cms.gov/assets/ig/StructureDefinition-bluebutton-inpatient-clm-pps-cptl-outlier-amt-extension","valueMoney":{"code":"USD","system":"urn:iso:std:iso:4217","value":0}},{"url":"https://bluebutton.cms.gov/assets/ig/StructureDefinition-bluebutton-inpatient-clm-pps-old-cptl-hld-hrmls-amt-extension","valueMoney":{"code":"USD","system":"urn:iso:std:iso:4217","value":0}},{"url":"https://bluebutton.cms.gov/assets/ig/StructureDefinition-bluebutton-inpatient-nch-drg-outlier-aprvd-pmt-amt-extension","valueMoney":{"code":"USD","system":"urn:iso:std:iso:4217","value":0}},{"url":"https://bluebutton.cms.gov/assets/ig/StructureDefinition-bluebutton-inpatient-nch-bene-blood-ddctbl-lblty-am-extension","valueMoney":{"code":"USD","system":"urn:iso:std:iso:4217","value":0}},{"url":"https://bluebutton.cms.gov/assets/ig/StructureDefinition-bluebutton-inpatient-clm-mdcr-non-pmt-rsn-cd-extension","valueCoding":{"code":"N","display":"All other reasons for non-payment","system":"https://bluebutton.cms.gov/assets/ig/CodeSystem-clm-mdcr-non-pmt-rsn-cd"}},{"url":"https://bluebutton.cms.gov/assets/ig/StructureDefinition-bluebutton-inpatient-prpayamt-extension","valueMoney":{"code":"USD","system":"urn:iso:std:iso:4217","value":0}},{"url":"https://bluebutton.cms.gov/assets/ig/StructureDefinition-bluebutton-inpatient-fi-num-extension","valueIdentifier":{"system":"https://bluebutton.cms.gov/assets/ig/CodeSystem-fi-num","value":"002000"}}],"id":"095e9684-5bf2-4712-98da-957acf668fbd","identifier":[{"system":"https://bluebutton.cms.gov/resources/variables/clm_id","value":"ec05c64e-4090-4680-84b2-1fe959a73dd5"},{"system":"https://bluebutton.cms.gov/resources/identifier/claim-group","value":"99999999999"}],"insurance":{"coverage":{"reference":"#coverage"}},"item":[{"extension":[{"url":"https://bluebutton.cms.gov/assets/ig/StructureDefinition-bluebutton-inpatient-rev-cntr-ndc-qty-extension","valueQuantity":{"value":0}}],"locationCodeableConcept":{"coding":[{"code":"21","display":"Inpatient Hospital","system":"https://bluebutton.cms.gov/resources/variables/line_place_of_srvc_cd"}]},"sequence":1},{"extension":[{"url":"https://bluebutton.cms.gov/assets/ig/StructureDefinition-bluebutton-inpatient-rev-cntr-ndc-qty-extension","valueQuantity":{"value":0}}],"locationCodeableConcept":{"coding":[{"code":"21","display":"Inpatient Hospital","system":"https://bluebutton.cms.gov/resources/variables/line_place_of_srvc_cd"}]},"sequence":2},{"adjudication":[{"amount":{"code":"USD","system":"urn:iso:std:iso:4217","value":103.33},"category":{"coding":[{"code":"https://bluebutton.cms.gov/resources/variables/line_coinsrnc_amt","display":"Line Beneficiary Coinsurance Amount","system":"https://bluebutton.cms.gov/resources/codesystem/adjudication"}]}},{"amount":{"code":"USD","system":"urn:iso:std:iso:4217","value":413.32},"category":{"coding":[{"code":"https://bluebutton.cms.gov/resources/variables/line_prvdr_pmt_amt","display":"Line Provider Payment Amount","system":"https://bluebutton.cms.gov/resources/codesystem/adjudication"}]}},{"amount":{"code":"USD","system":"urn:iso:std:iso:4217","value":516.65},"category":{"coding":[{"code":"https://bluebutton.cms.gov/resources/variables/line_sbmtd_chrg_amt","display":"Line Submitted Charge Amount","system":"https://bluebutton.cms.gov/resources/codesystem/adjudication"}]}},{"amount":{"code":"USD","system":"urn:iso:std:iso:4217","value":516.65},"category":{"coding":[{"code":"https://bluebutton.cms.gov/resources/variables/line_alowd_chrg_amt","display":"Line Allowed Charge Amount","system":"https://bluebutton.cms.gov/resources/codesystem/adjudication"}]}},{"amount":{"code":"USD","system":"urn:iso:std:iso:4217","value":0},"category":{"coding":[{"code":"https://bluebutton.cms.gov/resources/variables/line_bene_ptb_ddctbl_amt","display":"Line Beneficiary Part B Deductible Amount","system":"https://bluebutton.cms.gov/resources/codesystem/adjudication"}]}},{"category":{"coding":[{"code":"https://bluebutton.cms.gov/resources/variables/line_prcsg_ind_cd","display":"Line Processing Indicator Code","system":"https://bluebutton.cms.gov/resources/codesystem/adjudication"}]}}],"extension":[{"url":"https://bluebutton.cms.gov/assets/ig/StructureDefinition-bluebutton-inpatient-rev-cntr-ndc-qty-extension","valueQuantity":{"value":0}}],"locationCodeableConcept":{"coding":[{"code":"21","display":"Inpatient Hospital","system":"https://bluebutton.cms.gov/resources/variables/line_place_of_srvc_cd"}]},"sequence":3,"service":{"coding":[{"code":"23426006","system":"http://snomed.info/sct","version":"v1"}]}}],"meta":{"lastUpdated":"2019-04-09T09:59:25.161011+00:00","profile":["https://bluebutton.cms.gov/assets/ig/StructureDefinition-bluebutton-inpatient-claim"],"versionId":"MTU1NDgwMzk2NTE2MTAxMTAwMA"},"organization":{"identifier":{"value":"b1d44a9d-02af-4ad2-845a-0d262fdc836f"}},"patient":{"reference":"Patient/00bbc092-5868-40db-8eee-fe79d6a40e76"},"payment":{"amount":{"code":"USD","system":"urn:iso:std:iso:4217","value":413.32}},"provider":{"identifier":{"value":"0d8a105b-bf25-4161-b635-3ea23d8eece3"}},"resourceType":"ExplanationOfBenefit","status":"active","totalCost":{"code":"USD","system":"urn:iso:std:iso:4217","value":641.65},"type":{"coding":[{"code":"71","display":"Local carrier non-durable medical equipment, prosthetics, orthotics, and supplies (DMEPOS) claim","system":"https://bluebutton.cms.gov/resources/variables/nch_clm_type_cd"},{"code":"CARRIER","display":"EOB Type","system":"https://bluebutton.cms.gov/resources/codesystem/eob-type"},{"code":"professional","display":"Claim Type","system":"http://hl7.org/fhir/ex-claimtype"},{"code":"O","display":"Part B physician/supplier claim record (processed by local carriers; can include DMEPOS services)","system":"https://bluebutton.cms.gov/resources/variables/nch_near_line_rec_ident_cd"}]}}},{"resource":{"billablePeriod":{"end":"2013-04-29T21:41:52-04:00","extension":[{"url":"https://bluebutton.cms.gov/assets/ig/StructureDefinition-bluebutton-inpatient-claim-query-cd-extension","valueCoding":{"code":"3","display":"Final Bill","system":"https://bluebutton.cms.gov/assets/ig/ValueSet-claim-query-cd"}}],"start":"2012-04-29T21:41:52-04:00"},"careTeam":[{"provider":{"identifier":{"system":"http://hl7.org/fhir/sid/us-npi","value":"99999999"}},"role":{"coding":[{"code":"primary","display":"Primary Care Practitioner","system":"http://hl7.org/fhir/claimcareteamrole"}]},"sequence":1}],"contained":[{"id":"coverage","resourceType":"Coverage","type":{"text":"medicaid"}}],"extension":[{"url":"https://bluebutton.cms.gov/assets/ig/StructureDefinition-bluebutton-inpatient-ime-op-clm-val-amt-extension","valueMoney":{"code":"USD","system":"urn:iso:std:iso:4217","value":400}},{"url":"https://bluebutton.cms.gov/assets/ig/StructureDefinition-bluebutton-inpatient-dsh-op-clm-val-amt-extension","valueMoney":{"code":"USD","system":"urn:iso:std:iso:4217","value":0}},{"url":"https://bluebutton.cms.gov/assets/ig/StructureDefinition-bluebutton-inpatient-clm-pass-thru-per-diem-amt-extension","valueMoney":{"code":"USD","system":"urn:iso:std:iso:4217","value":0}},{"url":"https://bluebutton.cms.gov/assets/ig/StructureDefinition-bluebutton-inpatient-nch-profnl-cmpnt-chrg-amt-extension","valueMoney":{"code":"USD","system":"urn:iso:std:iso:4217","value":0}},{"url":"https://bluebutton.cms.gov/assets/ig/StructureDefinition-bluebutton-inpatient-clm-tot-pps-cptl-amt-extension","valueMoney":{"code":"USD","system":"urn:iso:std:iso:4217","value":0}},{"url":"https://bluebutton.cms.gov/assets/ig/StructureDefinition-bluebutton-inpatient-nch-bene-ip-ddctbl-amt-extension","valueMoney":{"code":"USD","system":"urn:iso:std:iso:4217","value":0}},{"url":"https://bluebutton.cms.gov/assets/ig/StructureDefinition-bluebutton-inpatient-nch-bene-pta-coinsrnc-lblty-amt-extension","valueMoney":{"code":"USD","system":"urn:iso:std:iso:4217","value":0}},{"url":"https://bluebutton.cms.gov/assets/ig/StructureDefinition-bluebutton-inpatient-nch-ip-ncvrd-chrg-amt-extension","valueMoney":{"code":"USD","system":"urn:iso:std:iso:4217","value":0}},{"url":"https://bluebutton.cms.gov/assets/ig/StructureDefinition-bluebutton-inpatient-nch-ip-tot-ddctn-amt-extension","valueMoney":{"code":"USD","system":"urn:iso:std:iso:4217","value":0}},{"url":"https://bluebutton.cms.gov/assets/ig/StructureDefinition-bluebutton-inpatient-clm-pps-cptl-dsprprtnt-shr-amt-extension","valueMoney":{"code":"USD","system":"urn:iso:std:iso:4217","value":0}},{"url":"https://bluebutton.cms.gov/assets/ig/StructureDefinition-bluebutton-inpatient-clm-pps-cptl-excptn-amt-extension","valueMoney":{"code":"USD","system":"urn:iso:std:iso:4217","value":0}},{"url":"https://bluebutton.cms.gov/assets/ig/StructureDefinition-bluebutton-inpatient-clm-pps-cptl-fsp-amt-extension","valueMoney":{"code":"USD","system":"urn:iso:std:iso:4217","value":0}},{"url":"https://bluebutton.cms.gov/assets/ig/StructureDefinition-bluebutton-inpatient-clm-pps-cptl-ime-amt-extension","valueMoney":{"code":"USD","system":"urn:iso:std:iso:4217","value":400}},{"url":"https://bluebutton.cms.gov/assets/ig/StructureDefinition-bluebutton-inpatient-clm-pps-cptl-outlier-amt-extension","valueMoney":{"code":"USD","system":"urn:iso:std:iso:4217","value":0}},{"url":"https://bluebutton.cms.gov/assets/ig/StructureDefinition-bluebutton-inpatient-clm-pps-old-cptl-hld-hrmls-amt-extension","valueMoney":{"code":"USD","system":"urn:iso:std:iso:4217","value":0}},{"url":"https://bluebutton.cms.gov/assets/ig/StructureDefinition-bluebutton-inpatient-nch-drg-outlier-aprvd-pmt-amt-extension","valueMoney":{"code":"USD","system":"urn:iso:std:iso:4217","value":0}},{"url":"https://bluebutton.cms.gov/assets/ig/StructureDefinition-bluebutton-inpatient-nch-bene-blood-ddctbl-lblty-am-extension","valueMoney":{"code":"USD","system":"urn:iso:std:iso:4217","value":0}},{"url":"https://bluebutton.cms.gov/assets/ig/StructureDefinition-bluebutton-inpatient-clm-mdcr-non-pmt-rsn-cd-extension","valueCoding":{"code":"N","display":"All other reasons for non-payment","system":"https://bluebutton.cms.gov/assets/ig/CodeSystem-clm-mdcr-non-pmt-rsn-cd"}},{"url":"https://bluebutton.cms.gov/assets/ig/StructureDefinition-bluebutton-inpatient-prpayamt-extension","valueMoney":{"code":"USD","system":"urn:iso:std:iso:4217","value":0}},{"url":"https://bluebutton.cms.gov/assets/ig/StructureDefinition-bluebutton-inpatient-fi-num-extension","valueIdentifier":{"system":"https://bluebutton.cms.gov/assets/ig/CodeSystem-fi-num","value":"002000"}}],"id":"0d0e7999-b563-4e85-a02b-9988dc25d17d","identifier":[{"system":"https://bluebutton.cms.gov/resources/variables/clm_id","value":"0c97ac3c-5db8-403b-91e5-486506965640"},{"system":"https://bluebutton.cms.gov/resources/identifier/claim-group","value":"99999999999"}],"insurance":{"coverage":{"reference":"#coverage"}},"item":[{"extension":[{"url":"https://bluebutton.cms.gov/assets/ig/StructureDefinition-bluebutton-inpatient-rev-cntr-ndc-qty-extension","valueQuantity":{"value":0}}],"locationCodeableConcept":{"coding":[{"code":"21","display":"Inpatient Hospital","system":"https://bluebutton.cms.gov/resources/variables/line_place_of_srvc_cd"}]},"sequence":1},{"adjudication":[{"amount":{"code":"USD","system":"urn:iso:std:iso:4217","value":2831.9300000000003},"category":{"coding":[{"code":"https://bluebutton.cms.gov/resources/variables/line_coinsrnc_amt","display":"Line Beneficiary Coinsurance Amount","system":"https://bluebutton.cms.gov/resources/codesystem/adjudication"}]}},{"amount":{"code":"USD","system":"urn:iso:std:iso:4217","value":11327.720000000001},"category":{"coding":[{"code":"https://bluebutton.cms.gov/resources/variables/line_prvdr_pmt_amt","display":"Line Provider Payment Amount","system":"https://bluebutton.cms.gov/resources/codesystem/adjudication"}]}},{"amount":{"code":"USD","system":"urn:iso:std:iso:4217","value":14159.65},"category":{"coding":[{"code":"https://bluebutton.cms.gov/resources/variables/line_sbmtd_chrg_amt","display":"Line Submitted Charge Amount","system":"https://bluebutton.cms.gov/resources/codesystem/adjudication"}]}},{"amount":{"code":"USD","system":"urn:iso:std:iso:4217","value":14159.65},"category":{"coding":[{"code":"https://bluebutton.cms.gov/resources/variables/line_alowd_chrg_amt","display":"Line Allowed Charge Amount","system":"https://bluebutton.cms.gov/resources/codesystem/adjudication"}]}},{"amount":{"code":"USD","system":"urn:iso:std:iso:4217","value":0},"category":{"coding":[{"code":"https://bluebutton.cms.gov/resources/variables/line_bene_ptb_ddctbl_amt","display":"Line Beneficiary Part B Deductible Amount","system":"https://bluebutton.cms.gov/resources/codesystem/adjudication"}]}},{"category":{"coding":[{"code":"https://bluebutton.cms.gov/resources/variables/line_prcsg_ind_cd","display":"Line Processing Indicator Code","system":"https://bluebutton.cms.gov/resources/codesystem/adjudication"}]}}],"extension":[{"url":"https://bluebutton.cms.gov/assets/ig/StructureDefinition-bluebutton-inpatient-rev-cntr-ndc-qty-extension","valueQuantity":{"value":0}}],"locationCodeableConcept":{"coding":[{"code":"21","display":"Inpatient Hospital","system":"https://bluebutton.cms.gov/resources/variables/line_place_of_srvc_cd"}]},"sequence":2,"service":{"coding":[{"code":"180256009","system":"http://snomed.info/sct","version":"v1"}]}}],"meta":{"lastUpdated":"2019-04-09T09:59:22.077699+00:00","profile":["https://bluebutton.cms.gov/assets/ig/StructureDefinition-bluebutton-inpatient-claim"],"versionId":"MTU1NDgwMzk2MjA3NzY5OTAwMA"},"organization":{"identifier":{"value":"b1d44a9d-02af-4ad2-845a-0d262fdc836f"}},"patient":{"reference":"Patient/00bbc092-5868-40db-8eee-fe79d6a40e76"},"payment":{"amount":{"code":"USD","system":"urn:iso:std:iso:4217","value":11327.720000000001}},"provider":{"identifier":{"value":"0d8a105b-bf25-4161-b635-3ea23d8eece3"}},"resourceType":"ExplanationOfBenefit","status":"active","totalCost":{"code":"USD","system":"urn:iso:std:iso:4217","value":14284.65},"type":{"coding":[{"code":"71","display":"Local carrier non-durable medical equipment, prosthetics, orthotics, and supplies (DMEPOS) claim","system":"https://bluebutton.cms.gov/resources/variables/nch_clm_type_cd"},{"code":"CARRIER","display":"EOB Type","system":"https://bluebutton.cms.gov/resources/codesystem/eob-type"},{"code":"professional","display":"Claim Type","system":"http://hl7.org/fhir/ex-claimtype"},{"code":"O","display":"Part B physician/supplier claim record (processed by local carriers; can include DMEPOS services)","system":"https://bluebutton.cms.gov/resources/variables/nch_near_line_rec_ident_cd"}]}}},{"resource":{"billablePeriod":{"end":"2015-10-19T21:16:52-04:00","extension":[{"url":"https://bluebutton.cms.gov/assets/ig/StructureDefinition-bluebutton-inpatient-claim-query-cd-extension","valueCoding":{"code":"3","display":"Final Bill","system":"https://bluebutton.cms.gov/assets/ig/ValueSet-claim-query-cd"}}],"start":"2014-10-19T21:16:52-04:00"},"careTeam":[{"provider":{"identifier":{"system":"http://hl7.org/fhir/sid/us-npi","value":"99999999"}},"role":{"coding":[{"code":"primary","display":"Primary Care Practitioner","system":"http://hl7.org/fhir/claimcareteamrole"}]},"sequence":1}],"contained":[{"id":"coverage","resourceType":"Coverage","type":{"text":"medicaid"}}],"extension":[{"url":"https://bluebutton.cms.gov/assets/ig/StructureDefinition-bluebutton-inpatient-ime-op-clm-val-amt-extension","valueMoney":{"code":"USD","system":"urn:iso:std:iso:4217","value":400}},{"url":"https://bluebutton.cms.gov/assets/ig/StructureDefinition-bluebutton-inpatient-dsh-op-clm-val-amt-extension","valueMoney":{"code":"USD","system":"urn:iso:std:iso:4217","value":0}},{"url":"https://bluebutton.cms.gov/assets/ig/StructureDefinition-bluebutton-inpatient-clm-pass-thru-per-diem-amt-extension","valueMoney":{"code":"USD","system":"urn:iso:std:iso:4217","value":0}},{"url":"https://bluebutton.cms.gov/assets/ig/StructureDefinition-bluebutton-inpatient-nch-profnl-cmpnt-chrg-amt-extension","valueMoney":{"code":"USD","system":"urn:iso:std:iso:4217","value":0}},{"url":"https://bluebutton.cms.gov/assets/ig/StructureDefinition-bluebutton-inpatient-clm-tot-pps-cptl-amt-extension","valueMoney":{"code":"USD","system":"urn:iso:std:iso:4217","value":0}},{"url":"https://bluebutton.cms.gov/assets/ig/StructureDefinition-bluebutton-inpatient-nch-bene-ip-ddctbl-amt-extension","valueMoney":{"code":"USD","system":"urn:iso:std:iso:4217","value":0}},{"url":"https://bluebutton.cms.gov/assets/ig/StructureDefinition-bluebutton-inpatient-nch-bene-pta-coinsrnc-lblty-amt-extension","valueMoney":{"code":"USD","system":"urn:iso:std:iso:4217","value":0}},{"url":"https://bluebutton.cms.gov/assets/ig/StructureDefinition-bluebutton-inpatient-nch-ip-ncvrd-chrg-amt-extension","valueMoney":{"code":"USD","system":"urn:iso:std:iso:4217","value":0}},{"url":"https://bluebutton.cms.gov/assets/ig/StructureDefinition-bluebutton-inpatient-nch-ip-tot-ddctn-amt-extension","valueMoney":{"code":"USD","system":"urn:iso:std:iso:4217","value":0}},{"url":"https://bluebutton.cms.gov/assets/ig/StructureDefinition-bluebutton-inpatient-clm-pps-cptl-dsprprtnt-shr-amt-extension","valueMoney":{"code":"USD","system":"urn:iso:std:iso:4217","value":0}},{"url":"https://bluebutton.cms.gov/assets/ig/StructureDefinition-bluebutton-inpatient-clm-pps-cptl-excptn-amt-extension","valueMoney":{"code":"USD","system":"urn:iso:std:iso:4217","value":0}},{"url":"https://bluebutton.cms.gov/assets/ig/StructureDefinition-bluebutton-inpatient-clm-pps-cptl-fsp-amt-extension","valueMoney":{"code":"USD","system":"urn:iso:std:iso:4217","value":0}},{"url":"https://bluebutton.cms.gov/assets/ig/StructureDefinition-bluebutton-inpatient-clm-pps-cptl-ime-amt-extension","valueMoney":{"code":"USD","system":"urn:iso:std:iso:4217","value":400}},{"url":"https://bluebutton.cms.gov/assets/ig/StructureDefinition-bluebutton-inpatient-clm-pps-cptl-outlier-amt-extension","valueMoney":{"code":"USD","system":"urn:iso:std:iso:4217","value":0}},{"url":"https://bluebutton.cms.gov/assets/ig/StructureDefinition-bluebutton-inpatient-clm-pps-old-cptl-hld-hrmls-amt-extension","valueMoney":{"code":"USD","system":"urn:iso:std:iso:4217","value":0}},{"url":"https://bluebutton.cms.gov/assets/ig/StructureDefinition-bluebutton-inpatient-nch-drg-outlier-aprvd-pmt-amt-extension","valueMoney":{"code":"USD","system":"urn:iso:std:iso:4217","value":0}},{"url":"https://bluebutton.cms.gov/assets/ig/StructureDefinition-bluebutton-inpatient-nch-bene-blood-ddctbl-lblty-am-extension","valueMoney":{"code":"USD","system":"urn:iso:std:iso:4217","value":0}},{"url":"https://bluebutton.cms.gov/assets/ig/StructureDefinition-bluebutton-inpatient-clm-mdcr-non-pmt-rsn-cd-extension","valueCoding":{"code":"N","display":"All other reasons for non-payment","system":"https://bluebutton.cms.gov/assets/ig/CodeSystem-clm-mdcr-non-pmt-rsn-cd"}},{"url":"https://bluebutton.cms.gov/assets/ig/StructureDefinition-bluebutton-inpatient-prpayamt-extension","valueMoney":{"code":"USD","system":"urn:iso:std:iso:4217","value":0}},{"url":"https://bluebutton.cms.gov/assets/ig/StructureDefinition-bluebutton-inpatient-fi-num-extension","valueIdentifier":{"system":"https://bluebutton.cms.gov/assets/ig/CodeSystem-fi-num","value":"002000"}}],"id":"0ff201eb-872d-490d-95d6-17f3456bdf91","identifier":[{"system":"https://bluebutton.cms.gov/resources/variables/clm_id","value":"8db22d22-5495-423b-999d-67f7e93eabf3"},{"system":"https://bluebutton.cms.gov/resources/identifier/claim-group","value":"99999999999"}],"insurance":{"coverage":{"reference":"#coverage"}},"item":[{"extension":[{"url":"https://bluebutton.cms.gov/assets/ig/StructureDefinition-bluebutton-inpatient-rev-cntr-ndc-qty-extension","valueQuantity":{"value":0}}],"locationCodeableConcept":{"coding":[{"code":"21","display":"Inpatient Hospital","system":"https://bluebutton.cms.gov/resources/variables/line_place_of_srvc_cd"}]},"sequence":1},{"adjudication":[{"amount":{"code":"USD","system":"urn:iso:std:iso:4217","value":4325.322},"category":{"coding":[{"code":"https://bluebutton.cms.gov/resources/variables/line_coinsrnc_amt","display":"Line Beneficiary Coinsurance Amount","system":"https://bluebutton.cms.gov/resources/codesystem/adjudication"}]}},{"amount":{"code":"USD","system":"urn:iso:std:iso:4217","value":17301.288},"category":{"coding":[{"code":"https://bluebutton.cms.gov/resources/variables/line_prvdr_pmt_amt","display":"Line Provider Payment Amount","system":"https://bluebutton.cms.gov/resources/codesystem/adjudication"}]}},{"amount":{"code":"USD","system":"urn:iso:std:iso:4217","value":21626.61},"category":{"coding":[{"code":"https://bluebutton.cms.gov/resources/variables/line_sbmtd_chrg_amt","display":"Line Submitted Charge Amount","system":"https://bluebutton.cms.gov/resources/codesystem/adjudication"}]}},{"amount":{"code":"USD","system":"urn:iso:std:iso:4217","value":21626.61},"category":{"coding":[{"code":"https://bluebutton.cms.gov/resources/variables/line_alowd_chrg_amt","display":"Line Allowed Charge Amount","system":"https://bluebutton.cms.gov/resources/codesystem/adjudication"}]}},{"amount":{"code":"USD","system":"urn:iso:std:iso:4217","value":0},"category":{"coding":[{"code":"https://bluebutton.cms.gov/resources/variables/line_bene_ptb_ddctbl_amt","display":"Line Beneficiary Part B Deductible Amount","system":"https://bluebutton.cms.gov/resources/codesystem/adjudication"}]}},{"category":{"coding":[{"code":"https://bluebutton.cms.gov/resources/variables/line_prcsg_ind_cd","display":"Line Processing Indicator Code","system":"https://bluebutton.cms.gov/resources/codesystem/adjudication"}]}}],"extension":[{"url":"https://bluebutton.cms.gov/assets/ig/StructureDefinition-bluebutton-inpatient-rev-cntr-ndc-qty-extension","valueQuantity":{"value":0}}],"locationCodeableConcept":{"coding":[{"code":"21","display":"Inpatient Hospital","system":"https://bluebutton.cms.gov/resources/variables/line_place_of_srvc_cd"}]},"sequence":2,"service":{"coding":[{"code":"180256009","system":"http://snomed.info/sct","version":"v1"}]}}],"meta":{"lastUpdated":"2019-04-09T09:59:25.164932+00:00","profile":["https://bluebutton.cms.gov/assets/ig/StructureDefinition-bluebutton-inpatient-claim"],"versionId":"MTU1NDgwMzk2NTE2NDkzMjAwMA"},"organization":{"identifier":{"value":"b1d44a9d-02af-4ad2-845a-0d262fdc836f"}},"patient":{"reference":"Patient/00bbc092-5868-40db-8eee-fe79d6a40e76"},"payment":{"amount":{"code":"USD","system":"urn:iso:std:iso:4217","value":17301.288}},"provider":{"identifier":{"value":"0d8a105b-bf25-4161-b635-3ea23d8eece3"}},"resourceType":"ExplanationOfBenefit","status":"active","totalCost":{"code":"USD","system":"urn:iso:std:iso:4217","value":21751.61},"type":{"coding":[{"code":"71","display":"Local carrier non-durable medical equipment, prosthetics, orthotics, and supplies (DMEPOS) claim","system":"https://bluebutton.cms.gov/resources/variables/nch_clm_type_cd"},{"code":"CARRIER","display":"EOB Type","system":"https://bluebutton.cms.gov/resources/codesystem/eob-type"},{"code":"professional","display":"Claim Type","system":"http://hl7.org/fhir/ex-claimtype"},{"code":"O","display":"Part B physician/supplier claim record (processed by local carriers; can include DMEPOS services)","system":"https://bluebutton.cms.gov/resources/variables/nch_near_line_rec_ident_cd"}]}}},{"resource":{"billablePeriod":{"end":"2012-10-23T21:13:52-04:00","extension":[{"url":"https://bluebutton.cms.gov/assets/ig/StructureDefinition-bluebutton-inpatient-claim-query-cd-extension","valueCoding":{"code":"3","display":"Final Bill","system":"https://bluebutton.cms.gov/assets/ig/ValueSet-claim-query-cd"}}],"start":"2011-10-23T21:13:52-04:00"},"careTeam":[{"provider":{"identifier":{"system":"http://hl7.org/fhir/sid/us-npi","value":"99999999"}},"role":{"coding":[{"code":"primary","display":"Primary Care Practitioner","system":"http://hl7.org/fhir/claimcareteamrole"}]},"sequence":1}],"contained":[{"id":"coverage","resourceType":"Coverage","type":{"text":"medicaid"}}],"extension":[{"url":"https://bluebutton.cms.gov/assets/ig/StructureDefinition-bluebutton-inpatient-ime-op-clm-val-amt-extension","valueMoney":{"code":"USD","system":"urn:iso:std:iso:4217","value":400}},{"url":"https://bluebutton.cms.gov/assets/ig/StructureDefinition-bluebutton-inpatient-dsh-op-clm-val-amt-extension","valueMoney":{"code":"USD","system":"urn:iso:std:iso:4217","value":0}},{"url":"https://bluebutton.cms.gov/assets/ig/StructureDefinition-bluebutton-inpatient-clm-pass-thru-per-diem-amt-extension","valueMoney":{"code":"USD","system":"urn:iso:std:iso:4217","value":0}},{"url":"https://bluebutton.cms.gov/assets/ig/StructureDefinition-bluebutton-inpatient-nch-profnl-cmpnt-chrg-amt-extension","valueMoney":{"code":"USD","system":"urn:iso:std:iso:4217","value":0}},{"url":"https://bluebutton.cms.gov/assets/ig/StructureDefinition-bluebutton-inpatient-clm-tot-pps-cptl-amt-extension","valueMoney":{"code":"USD","system":"urn:iso:std:iso:4217","value":0}},{"url":"https://bluebutton.cms.gov/assets/ig/StructureDefinition-bluebutton-inpatient-nch-bene-ip-ddctbl-amt-extension","valueMoney":{"code":"USD","system":"urn:iso:std:iso:4217","value":0}},{"url":"https://bluebutton.cms.gov/assets/ig/StructureDefinition-bluebutton-inpatient-nch-bene-pta-coinsrnc-lblty-amt-extension","valueMoney":{"code":"USD","system":"urn:iso:std:iso:4217","value":0}},{"url":"https://bluebutton.cms.gov/assets/ig/StructureDefinition-bluebutton-inpatient-nch-ip-ncvrd-chrg-amt-extension","valueMoney":{"code":"USD","system":"urn:iso:std:iso:4217","value":0}},{"url":"https://bluebutton.cms.gov/assets/ig/StructureDefinition-bluebutton-inpatient-nch-ip-tot-ddctn-amt-extension","valueMoney":{"code":"USD","system":"urn:iso:std:iso:4217","value":0}},{"url":"https://bluebutton.cms.gov/assets/ig/StructureDefinition-bluebutton-inpatient-clm-pps-cptl-dsprprtnt-shr-amt-extension","valueMoney":{"code":"USD","system":"urn:iso:std:iso:4217","value":0}},{"url":"https://bluebutton.cms.gov/assets/ig/StructureDefinition-bluebutton-inpatient-clm-pps-cptl-excptn-amt-extension","valueMoney":{"code":"USD","system":"urn:iso:std:iso:4217","value":0}},{"url":"https://bluebutton.cms.gov/assets/ig/StructureDefinition-bluebutton-inpatient-clm-pps-cptl-fsp-amt-extension","valueMoney":{"code":"USD","system":"urn:iso:std:iso:4217","value":0}},{"url":"https://bluebutton.cms.gov/assets/ig/StructureDefinition-bluebutton-inpatient-clm-pps-cptl-ime-amt-extension","valueMoney":{"code":"USD","system":"urn:iso:std:iso:4217","value":400}},{"url":"https://bluebutton.cms.gov/assets/ig/StructureDefinition-bluebutton-inpatient-clm-pps-cptl-outlier-amt-extension","valueMoney":{"code":"USD","system":"urn:iso:std:iso:4217","value":0}},{"url":"https://bluebutton.cms.gov/assets/ig/StructureDefinition-bluebutton-inpatient-clm-pps-old-cptl-hld-hrmls-amt-extension","valueMoney":{"code":"USD","system":"urn:iso:std:iso:4217","value":0}},{"url":"https://bluebutton.cms.gov/assets/ig/StructureDefinition-bluebutton-inpatient-nch-drg-outlier-aprvd-pmt-amt-extension","valueMoney":{"code":"USD","system":"urn:iso:std:iso:4217","value":0}},{"url":"https://bluebutton.cms.gov/assets/ig/StructureDefinition-bluebutton-inpatient-nch-bene-blood-ddctbl-lblty-am-extension","valueMoney":{"code":"USD","system":"urn:iso:std:iso:4217","value":0}},{"url":"https://bluebutton.cms.gov/assets/ig/StructureDefinition-bluebutton-inpatient-clm-mdcr-non-pmt-rsn-cd-extension","valueCoding":{"code":"N","display":"All other reasons for non-payment","system":"https://bluebutton.cms.gov/assets/ig/CodeSystem-clm-mdcr-non-pmt-rsn-cd"}},{"url":"https://bluebutton.cms.gov/assets/ig/StructureDefinition-bluebutton-inpatient-prpayamt-extension","valueMoney":{"code":"USD","system":"urn:iso:std:iso:4217","value":0}},{"url":"https://bluebutton.cms.gov/assets/ig/StructureDefinition-bluebutton-inpatient-fi-num-extension","valueIdentifier":{"system":"https://bluebutton.cms.gov/assets/ig/CodeSystem-fi-num","value":"002000"}}],"id":"12e85932-6352-41d8-af1a-7a2c73f1a65a","identifier":[{"system":"https://bluebutton.cms.gov/resources/variables/clm_id","value":"0e9f4b58-347a-4e1a-9bc5-7fd084b2dbaa"},{"system":"https://bluebutton.cms.gov/resources/identifier/claim-group","value":"99999999999"}],"insurance":{"coverage":{"reference":"#coverage"}},"item":[{"extension":[{"url":"https://bluebutton.cms.gov/assets/ig/StructureDefinition-bluebutton-inpatient-rev-cntr-ndc-qty-extension","valueQuantity":{"value":0}}],"locationCodeableConcept":{"coding":[{"code":"21","display":"Inpatient Hospital","system":"https://bluebutton.cms.gov/resources/variables/line_place_of_srvc_cd"}]},"sequence":1},{"adjudication":[{"amount":{"code":"USD","system":"urn:iso:std:iso:4217","value":1931.4240000000002},"category":{"coding":[{"code":"https://bluebutton.cms.gov/resources/variables/line_coinsrnc_amt","display":"Line Beneficiary Coinsurance Amount","system":"https://bluebutton.cms.gov/resources/codesystem/adjudication"}]}},{"amount":{"code":"USD","system":"urn:iso:std:iso:4217","value":7725.696000000001},"category":{"coding":[{"code":"https://bluebutton.cms.gov/resources/variables/line_prvdr_pmt_amt","display":"Line Provider Payment Amount","system":"https://bluebutton.cms.gov/resources/codesystem/adjudication"}]}},{"amount":{"code":"USD","system":"urn:iso:std:iso:4217","value":9657.12},"category":{"coding":[{"code":"https://bluebutton.cms.gov/resources/variables/line_sbmtd_chrg_amt","display":"Line Submitted Charge Amount","system":"https://bluebutton.cms.gov/resources/codesystem/adjudication"}]}},{"amount":{"code":"USD","system":"urn:iso:std:iso:4217","value":9657.12},"category":{"coding":[{"code":"https://bluebutton.cms.gov/resources/variables/line_alowd_chrg_amt","display":"Line Allowed Charge Amount","system":"https://bluebutton.cms.gov/resources/codesystem/adjudication"}]}},{"amount":{"code":"USD","system":"urn:iso:std:iso:4217","value":0},"category":{"coding":[{"code":"https://bluebutton.cms.gov/resources/variables/line_bene_ptb_ddctbl_amt","display":"Line Beneficiary Part B Deductible Amount","system":"https://bluebutton.cms.gov/resources/codesystem/adjudication"}]}},{"category":{"coding":[{"code":"https://bluebutton.cms.gov/resources/variables/line_prcsg_ind_cd","display":"Line Processing Indicator Code","system":"https://bluebutton.cms.gov/resources/codesystem/adjudication"}]}}],"extension":[{"url":"https://bluebutton.cms.gov/assets/ig/StructureDefinition-bluebutton-inpatient-rev-cntr-ndc-qty-extension","valueQuantity":{"value":0}}],"locationCodeableConcept":{"coding":[{"code":"21","display":"Inpatient Hospital","system":"https://bluebutton.cms.gov/resources/variables/line_place_of_srvc_cd"}]},"sequence":2,"service":{"coding":[{"code":"180256009","system":"http://snomed.info/sct","version":"v1"}]}}],"meta":{"lastUpdated":"2019-04-09T09:59:22.081073+00:00","profile":["https://bluebutton.cms.gov/assets/ig/StructureDefinition-bluebutton-inpatient-claim"],"versionId":"MTU1NDgwMzk2MjA4MTA3MzAwMA"},"organization":{"identifier":{"value":"b1d44a9d-02af-4ad2-845a-0d262fdc836f"}},"patient":{"reference":"Patient/00bbc092-5868-40db-8eee-fe79d6a40e76"},"payment":{"amount":{"code":"USD","system":"urn:iso:std:iso:4217","value":7725.696000000001}},"provider":{"identifier":{"value":"0d8a105b-bf25-4161-b635-3ea23d8eece3"}},"resourceType":"ExplanationOfBenefit","status":"active","totalCost":{"code":"USD","system":"urn:iso:std:iso:4217","value":9782.12},"type":{"coding":[{"code":"71","display":"Local carrier non-durable medical equipment, prosthetics, orthotics, and supplies (DMEPOS) claim","system":"https://bluebutton.cms.gov/resources/variables/nch_clm_type_cd"},{"code":"CARRIER","display":"EOB Type","system":"https://bluebutton.cms.gov/resources/codesystem/eob-type"},{"code":"professional","display":"Claim Type","system":"http://hl7.org/fhir/ex-claimtype"},{"code":"O","display":"Part B physician/supplier claim record (processed by local carriers; can include DMEPOS services)","system":"https://bluebutton.cms.gov/resources/variables/nch_near_line_rec_ident_cd"}]}}},{"resource":{"billablePeriod":{"end":"2012-11-29T20:34:52-05:00","start":"2011-11-29T20:34:52-05:00"},"careTeam":[{"provider":{"identifier":{"system":"http://hl7.org/fhir/sid/us-npi","value":"99999999"}},"role":{"coding":[{"code":"primary","display":"Primary Care Practitioner","system":"http://hl7.org/fhir/claimcareteamrole"}]},"sequence":1}],"claim":{"reference":"Claim/95204258-d69d-4129-b8eb-7accfa05da0d"},"contained":[{"id":"1","intent":"order","recipient":[{"identifier":{"system":"http://hl7.org/fhir/sid/us-npi","value":"99999999"}}],"requester":{"agent":{"identifier":{"system":"http://hl7.org/fhir/sid/us-npi","value":"99999999"}}},"resourceType":"ReferralRequest","status":"completed","subject":{"reference":"Patient/00bbc092-5868-40db-8eee-fe79d6a40e76"}},{"id":"coverage","resourceType":"Coverage","type":{"text":"medicaid"}}],"created":"2011-11-29T20:34:52-05:00","diagnosis":[{"diagnosisReference":{"reference":"Condition/c140c68d-0abe-4d7b-8518-e8a3832d80d9"},"extension":[{"url":"https://bluebutton.cms.gov/assets/ig/StructureDefinition-bluebutton-inpatient-clm-poa-ind-sw1-extension","valueCoding":{"code":"Y","display":"Diagnosis present at time of admission","system":"https://bluebutton.cms.gov/assets/ig/CodeSystem-clm-poa-ind-sw1"}}],"sequence":1,"type":[{"coding":[{"code":"principal","system":"https://bluebutton.cms.gov/resources/codesystem/diagnosis-type"}]}]}],"id":"15184044-a2a2-409e-8a8e-206dfa0c76d0","identifier":[{"system":"https://bluebutton.cms.gov/resources/variables/clm_id","value":"95204258-d69d-4129-b8eb-7accfa05da0d"},{"system":"https://bluebutton.cms.gov/resources/identifier/claim-group","value":"99999999999"}],"insurance":{"coverage":{"reference":"#coverage"}},"item":[{"category":{"coding":[{"code":"1","display":"Medical care","system":"https://bluebutton.cms.gov/resources/variables/line_cms_type_srvc_cd"}]},"encounter":[{"reference":"Encounter/400c26e8-cd02-4f18-92a9-b530d4a00225"}],"locationCodeableConcept":{"coding":[{"code":"23","display":"Emergency Room","system":"https://bluebutton.cms.gov/resources/variables/line_place_of_srvc_cd"}]},"sequence":1,"servicedPeriod":{"end":"2011-11-29T20:34:52-05:00","start":"2011-11-29T19:34:52-05:00"}},{"category":{"coding":[{"code":"1","display":"Medical care","system":"https://bluebutton.cms.gov/resources/variables/line_cms_type_srvc_cd"}]},"diagnosisLinkId":[1],"locationCodeableConcept":{"coding":[{"code":"23","display":"Emergency Room","system":"https://bluebutton.cms.gov/resources/variables/line_place_of_srvc_cd"}]},"sequence":2,"servicedPeriod":{"end":"2011-11-29T20:34:52-05:00","start":"2011-11-29T19:34:52-05:00"}}],"meta":{"lastUpdated":"2019-04-09T09:59:22.091602+00:00","versionId":"MTU1NDgwMzk2MjA5MTYwMjAwMA"},"organization":{"identifier":{"value":"b1d44a9d-02af-4ad2-845a-0d262fdc836f"}},"patient":{"reference":"Patient/00bbc092-5868-40db-8eee-fe79d6a40e76"},"payment":{"amount":{"code":"USD","system":"urn:iso:std:iso:4217","value":0}},"provider":{"identifier":{"value":"0d8a105b-bf25-4161-b635-3ea23d8eece3"}},"referral":{"reference":"#1"},"resourceType":"ExplanationOfBenefit","status":"active","totalCost":{"code":"USD","system":"urn:iso:std:iso:4217","value":125},"type":{"coding":[{"code":"71","display":"Local carrier non-durable medical equipment, prosthetics, orthotics, and supplies (DMEPOS) claim","system":"https://bluebutton.cms.gov/resources/variables/nch_clm_type_cd"},{"code":"CARRIER","display":"EOB Type","system":"https://bluebutton.cms.gov/resources/codesystem/eob-type"},{"code":"professional","display":"Claim Type","system":"http://hl7.org/fhir/ex-claimtype"},{"code":"O","display":"Part B physician/supplier claim record (processed by local carriers; can include DMEPOS services)","system":"https://bluebutton.cms.gov/resources/variables/nch_near_line_rec_ident_cd"}]}}},{"resource":{"billablePeriod":{"end":"2014-12-08T20:26:52-05:00","extension":[{"url":"https://bluebutton.cms.gov/assets/ig/StructureDefinition-bluebutton-inpatient-claim-query-cd-extension","valueCoding":{"code":"3","display":"Final Bill","system":"https://bluebutton.cms.gov/assets/ig/ValueSet-claim-query-cd"}}],"start":"2013-12-08T20:26:52-05:00"},"careTeam":[{"provider":{"identifier":{"system":"http://hl7.org/fhir/sid/us-npi","value":"99999999"}},"role":{"coding":[{"code":"primary","display":"Primary Care Practitioner","system":"http://hl7.org/fhir/claimcareteamrole"}]},"sequence":1}],"contained":[{"id":"coverage","resourceType":"Coverage","type":{"text":"medicaid"}}],"extension":[{"url":"https://bluebutton.cms.gov/assets/ig/StructureDefinition-bluebutton-inpatient-ime-op-clm-val-amt-extension","valueMoney":{"code":"USD","system":"urn:iso:std:iso:4217","value":400}},{"url":"https://bluebutton.cms.gov/assets/ig/StructureDefinition-bluebutton-inpatient-dsh-op-clm-val-amt-extension","valueMoney":{"code":"USD","system":"urn:iso:std:iso:4217","value":0}},{"url":"https://bluebutton.cms.gov/assets/ig/StructureDefinition-bluebutton-inpatient-clm-pass-thru-per-diem-amt-extension","valueMoney":{"code":"USD","system":"urn:iso:std:iso:4217","value":0}},{"url":"https://bluebutton.cms.gov/assets/ig/StructureDefinition-bluebutton-inpatient-nch-profnl-cmpnt-chrg-amt-extension","valueMoney":{"code":"USD","system":"urn:iso:std:iso:4217","value":0}},{"url":"https://bluebutton.cms.gov/assets/ig/StructureDefinition-bluebutton-inpatient-clm-tot-pps-cptl-amt-extension","valueMoney":{"code":"USD","system":"urn:iso:std:iso:4217","value":0}},{"url":"https://bluebutton.cms.gov/assets/ig/StructureDefinition-bluebutton-inpatient-nch-bene-ip-ddctbl-amt-extension","valueMoney":{"code":"USD","system":"urn:iso:std:iso:4217","value":0}},{"url":"https://bluebutton.cms.gov/assets/ig/StructureDefinition-bluebutton-inpatient-nch-bene-pta-coinsrnc-lblty-amt-extension","valueMoney":{"code":"USD","system":"urn:iso:std:iso:4217","value":0}},{"url":"https://bluebutton.cms.gov/assets/ig/StructureDefinition-bluebutton-inpatient-nch-ip-ncvrd-chrg-amt-extension","valueMoney":{"code":"USD","system":"urn:iso:std:iso:4217","value":0}},{"url":"https://bluebutton.cms.gov/assets/ig/StructureDefinition-bluebutton-inpatient-nch-ip-tot-ddctn-amt-extension","valueMoney":{"code":"USD","system":"urn:iso:std:iso:4217","value":0}},{"url":"https://bluebutton.cms.gov/assets/ig/StructureDefinition-bluebutton-inpatient-clm-pps-cptl-dsprprtnt-shr-amt-extension","valueMoney":{"code":"USD","system":"urn:iso:std:iso:4217","value":0}},{"url":"https://bluebutton.cms.gov/assets/ig/StructureDefinition-bluebutton-inpatient-clm-pps-cptl-excptn-amt-extension","valueMoney":{"code":"USD","system":"urn:iso:std:iso:4217","value":0}},{"url":"https://bluebutton.cms.gov/assets/ig/StructureDefinition-bluebutton-inpatient-clm-pps-cptl-fsp-amt-extension","valueMoney":{"code":"USD","system":"urn:iso:std:iso:4217","value":0}},{"url":"https://bluebutton.cms.gov/assets/ig/StructureDefinition-bluebutton-inpatient-clm-pps-cptl-ime-amt-extension","valueMoney":{"code":"USD","system":"urn:iso:std:iso:4217","value":400}},{"url":"https://bluebutton.cms.gov/assets/ig/StructureDefinition-bluebutton-inpatient-clm-pps-cptl-outlier-amt-extension","valueMoney":{"code":"USD","system":"urn:iso:std:iso:4217","value":0}},{"url":"https://bluebutton.cms.gov/assets/ig/StructureDefinition-bluebutton-inpatient-clm-pps-old-cptl-hld-hrmls-amt-extension","valueMoney":{"code":"USD","system":"urn:iso:std:iso:4217","value":0}},{"url":"https://bluebutton.cms.gov/assets/ig/StructureDefinition-bluebutton-inpatient-nch-drg-outlier-aprvd-pmt-amt-extension","valueMoney":{"code":"USD","system":"urn:iso:std:iso:4217","value":0}},{"url":"https://bluebutton.cms.gov/assets/ig/StructureDefinition-bluebutton-inpatient-nch-bene-blood-ddctbl-lblty-am-extension","valueMoney":{"code":"USD","system":"urn:iso:std:iso:4217","value":0}},{"url":"https://bluebutton.cms.gov/assets/ig/StructureDefinition-bluebutton-inpatient-clm-mdcr-non-pmt-rsn-cd-extension","valueCoding":{"code":"N","display":"All other reasons for non-payment","system":"https://bluebutton.cms.gov/assets/ig/CodeSystem-clm-mdcr-non-pmt-rsn-cd"}},{"url":"https://bluebutton.cms.gov/assets/ig/StructureDefinition-bluebutton-inpatient-prpayamt-extension","valueMoney":{"code":"USD","system":"urn:iso:std:iso:4217","value":0}},{"url":"https://bluebutton.cms.gov/assets/ig/StructureDefinition-bluebutton-inpatient-fi-num-extension","valueIdentifier":{"system":"https://bluebutton.cms.gov/assets/ig/CodeSystem-fi-num","value":"002000"}}],"id":"16bd9377-139e-4df5-b47b-304f4dcde757","identifier":[{"system":"https://bluebutton.cms.gov/resources/variables/clm_id","value":"2661aafb-e59e-422f-93b0-5c637cd1408d"},{"system":"https://bluebutton.cms.gov/resources/identifier/claim-group","value":"99999999999"}],"insurance":{"coverage":{"reference":"#coverage"}},"item":[{"extension":[{"url":"https://bluebutton.cms.gov/assets/ig/StructureDefinition-bluebutton-inpatient-rev-cntr-ndc-qty-extension","valueQuantity":{"value":0}}],"locationCodeableConcept":{"coding":[{"code":"21","display":"Inpatient Hospital","system":"https://bluebutton.cms.gov/resources/variables/line_place_of_srvc_cd"}]},"sequence":1},{"adjudication":[{"amount":{"code":"USD","system":"urn:iso:std:iso:4217","value":3370.2580000000003},"category":{"coding":[{"code":"https://bluebutton.cms.gov/resources/variables/line_coinsrnc_amt","display":"Line Beneficiary Coinsurance Amount","system":"https://bluebutton.cms.gov/resources/codesystem/adjudication"}]}},{"amount":{"code":"USD","system":"urn:iso:std:iso:4217","value":13481.032000000001},"category":{"coding":[{"code":"https://bluebutton.cms.gov/resources/variables/line_prvdr_pmt_amt","display":"Line Provider Payment Amount","system":"https://bluebutton.cms.gov/resources/codesystem/adjudication"}]}},{"amount":{"code":"USD","system":"urn:iso:std:iso:4217","value":16851.29},"category":{"coding":[{"code":"https://bluebutton.cms.gov/resources/variables/line_sbmtd_chrg_amt","display":"Line Submitted Charge Amount","system":"https://bluebutton.cms.gov/resources/codesystem/adjudication"}]}},{"amount":{"code":"USD","system":"urn:iso:std:iso:4217","value":16851.29},"category":{"coding":[{"code":"https://bluebutton.cms.gov/resources/variables/line_alowd_chrg_amt","display":"Line Allowed Charge Amount","system":"https://bluebutton.cms.gov/resources/codesystem/adjudication"}]}},{"amount":{"code":"USD","system":"urn:iso:std:iso:4217","value":0},"category":{"coding":[{"code":"https://bluebutton.cms.gov/resources/variables/line_bene_ptb_ddctbl_amt","display":"Line Beneficiary Part B Deductible Amount","system":"https://bluebutton.cms.gov/resources/codesystem/adjudication"}]}},{"category":{"coding":[{"code":"https://bluebutton.cms.gov/resources/variables/line_prcsg_ind_cd","display":"Line Processing Indicator Code","system":"https://bluebutton.cms.gov/resources/codesystem/adjudication"}]}}],"extension":[{"url":"https://bluebutton.cms.gov/assets/ig/StructureDefinition-bluebutton-inpatient-rev-cntr-ndc-qty-extension","valueQuantity":{"value":0}}],"locationCodeableConcept":{"coding":[{"code":"21","display":"Inpatient Hospital","system":"https://bluebutton.cms.gov/resources/variables/line_place_of_srvc_cd"}]},"sequence":2,"service":{"coding":[{"code":"180256009","system":"http://snomed.info/sct","version":"v1"}]}}],"meta":{"lastUpdated":"2019-04-09T09:59:24.131542+00:00","profile":["https://bluebutton.cms.gov/assets/ig/StructureDefinition-bluebutton-inpatient-claim"],"versionId":"MTU1NDgwMzk2NDEzMTU0MjAwMA"},"organization":{"identifier":{"value":"b1d44a9d-02af-4ad2-845a-0d262fdc836f"}},"patient":{"reference":"Patient/00bbc092-5868-40db-8eee-fe79d6a40e76"},"payment":{"amount":{"code":"USD","system":"urn:iso:std:iso:4217","value":13481.032000000001}},"provider":{"identifier":{"value":"0d8a105b-bf25-4161-b635-3ea23d8eece3"}},"resourceType":"ExplanationOfBenefit","status":"active","totalCost":{"code":"USD","system":"urn:iso:std:iso:4217","value":16976.29},"type":{"coding":[{"code":"71","display":"Local carrier non-durable medical equipment, prosthetics, orthotics, and supplies (DMEPOS) claim","system":"https://bluebutton.cms.gov/resources/variables/nch_clm_type_cd"},{"code":"CARRIER","display":"EOB Type","system":"https://bluebutton.cms.gov/resources/codesystem/eob-type"},{"code":"professional","display":"Claim Type","system":"http://hl7.org/fhir/ex-claimtype"},{"code":"O","display":"Part B physician/supplier claim record (processed by local carriers; can include DMEPOS services)","system":"https://bluebutton.cms.gov/resources/variables/nch_near_line_rec_ident_cd"}]}}},{"resource":{"billablePeriod":{"end":"2014-09-01T20:49:52-04:00","start":"2013-09-01T20:49:52-04:00"},"careTeam":[{"provider":{"identifier":{"system":"http://hl7.org/fhir/sid/us-npi","value":"99999999"}},"role":{"coding":[{"code":"primary","display":"Primary Care Practitioner","system":"http://hl7.org/fhir/claimcareteamrole"}]},"sequence":1}],"claim":{"reference":"Claim/39de3d5e-cf29-4561-984b-8db41a45e2b1"},"contained":[{"id":"1","intent":"order","recipient":[{"identifier":{"system":"http://hl7.org/fhir/sid/us-npi","value":"99999999"}}],"requester":{"agent":{"identifier":{"system":"http://hl7.org/fhir/sid/us-npi","value":"99999999"}}},"resourceType":"ReferralRequest","status":"completed","subject":{"reference":"Patient/00bbc092-5868-40db-8eee-fe79d6a40e76"}},{"id":"coverage","resourceType":"Coverage","type":{"text":"medicaid"}}],"created":"2013-09-01T20:49:52-04:00","id":"1d345faf-6ac0-4814-87c8-5f3f6f6ef2ff","identifier":[{"system":"https://bluebutton.cms.gov/resources/variables/clm_id","value":"39de3d5e-cf29-4561-984b-8db41a45e2b1"},{"system":"https://bluebutton.cms.gov/resources/identifier/claim-group","value":"99999999999"}],"insurance":{"coverage":{"reference":"#coverage"}},"item":[{"category":{"coding":[{"code":"1","display":"Medical care","system":"https://bluebutton.cms.gov/resources/variables/line_cms_type_srvc_cd"}]},"encounter":[{"reference":"Encounter/d37d0954-1461-4ae3-8559-895452773274"}],"locationCodeableConcept":{"coding":[{"code":"21","display":"Inpatient Hospital","system":"https://bluebutton.cms.gov/resources/variables/line_place_of_srvc_cd"}]},"sequence":1,"servicedPeriod":{"end":"2013-09-01T20:49:52-04:00","start":"2013-09-01T20:34:52-04:00"}},{"adjudication":[{"amount":{"code":"USD","system":"urn:iso:std:iso:4217","value":28.104000000000003},"category":{"coding":[{"code":"https://bluebutton.cms.gov/resources/variables/line_coinsrnc_amt","display":"Line Beneficiary Coinsurance Amount","system":"https://bluebutton.cms.gov/resources/codesystem/adjudication"}]}},{"amount":{"code":"USD","system":"urn:iso:std:iso:4217","value":112.41600000000001},"category":{"coding":[{"code":"https://bluebutton.cms.gov/resources/variables/line_prvdr_pmt_amt","display":"Line Provider Payment Amount","system":"https://bluebutton.cms.gov/resources/codesystem/adjudication"}]}},{"amount":{"code":"USD","system":"urn:iso:std:iso:4217","value":140.52},"category":{"coding":[{"code":"https://bluebutton.cms.gov/resources/variables/line_sbmtd_chrg_amt","display":"Line Submitted Charge Amount","system":"https://bluebutton.cms.gov/resources/codesystem/adjudication"}]}},{"amount":{"code":"USD","system":"urn:iso:std:iso:4217","value":140.52},"category":{"coding":[{"code":"https://bluebutton.cms.gov/resources/variables/line_alowd_chrg_amt","display":"Line Allowed Charge Amount","system":"https://bluebutton.cms.gov/resources/codesystem/adjudication"}]}},{"amount":{"code":"USD","system":"urn:iso:std:iso:4217","value":0},"category":{"coding":[{"code":"https://bluebutton.cms.gov/resources/variables/line_bene_ptb_ddctbl_amt","display":"Line Beneficiary Part B Deductible Amount","system":"https://bluebutton.cms.gov/resources/codesystem/adjudication"}]}},{"category":{"coding":[{"code":"https://bluebutton.cms.gov/resources/variables/line_prcsg_ind_cd","display":"Line Processing Indicator Code","system":"https://bluebutton.cms.gov/resources/codesystem/adjudication"}]},"reason":{"coding":[{"code":"A","display":"Allowed","system":"https://bluebutton.cms.gov/resources/variables/line_prcsg_ind_cd"}]}}],"category":{"coding":[{"code":"1","display":"Medical care","system":"https://bluebutton.cms.gov/resources/variables/line_cms_type_srvc_cd"}]},"informationLinkId":[1],"locationCodeableConcept":{"coding":[{"code":"21","display":"Inpatient Hospital","system":"https://bluebutton.cms.gov/resources/variables/line_place_of_srvc_cd"}]},"net":{"code":"USD","system":"urn:iso:std:iso:4217","value":140.52},"sequence":2,"servicedPeriod":{"end":"2013-09-01T20:49:52-04:00","start":"2013-09-01T20:34:52-04:00"}}],"meta":{"lastUpdated":"2019-04-09T09:59:23.129137+00:00","versionId":"MTU1NDgwMzk2MzEyOTEzNzAwMA"},"organization":{"identifier":{"value":"b1d44a9d-02af-4ad2-845a-0d262fdc836f"}},"patient":{"reference":"Patient/00bbc092-5868-40db-8eee-fe79d6a40e76"},"payment":{"amount":{"code":"USD","system":"urn:iso:std:iso:4217","value":112.41600000000001}},"provider":{"identifier":{"value":"0d8a105b-bf25-4161-b635-3ea23d8eece3"}},"referral":{"reference":"#1"},"resourceType":"ExplanationOfBenefit","status":"active","totalCost":{"code":"USD","system":"urn:iso:std:iso:4217","value":265.52},"type":{"coding":[{"code":"71","display":"Local carrier non-durable medical equipment, prosthetics, orthotics, and supplies (DMEPOS) claim","system":"https://bluebutton.cms.gov/resources/variables/nch_clm_type_cd"},{"code":"CARRIER","display":"EOB Type","system":"https://bluebutton.cms.gov/resources/codesystem/eob-type"},{"code":"professional","display":"Claim Type","system":"http://hl7.org/fhir/ex-claimtype"},{"code":"O","display":"Part B physician/supplier claim record (processed by local carriers; can include DMEPOS services)","system":"https://bluebutton.cms.gov/resources/variables/nch_near_line_rec_ident_cd"}]}}},{"resource":{"billablePeriod":{"end":"2014-03-31T21:31:52-04:00","extension":[{"url":"https://bluebutton.cms.gov/assets/ig/StructureDefinition-bluebutton-inpatient-claim-query-cd-extension","valueCoding":{"code":"3","display":"Final Bill","system":"https://bluebutton.cms.gov/assets/ig/ValueSet-claim-query-cd"}}],"start":"2013-03-31T21:31:52-04:00"},"careTeam":[{"provider":{"identifier":{"system":"http://hl7.org/fhir/sid/us-npi","value":"99999999"}},"role":{"coding":[{"code":"primary","display":"Primary Care Practitioner","system":"http://hl7.org/fhir/claimcareteamrole"}]},"sequence":1}],"contained":[{"id":"coverage","resourceType":"Coverage","type":{"text":"medicaid"}}],"extension":[{"url":"https://bluebutton.cms.gov/assets/ig/StructureDefinition-bluebutton-inpatient-ime-op-clm-val-amt-extension","valueMoney":{"code":"USD","system":"urn:iso:std:iso:4217","value":400}},{"url":"https://bluebutton.cms.gov/assets/ig/StructureDefinition-bluebutton-inpatient-dsh-op-clm-val-amt-extension","valueMoney":{"code":"USD","system":"urn:iso:std:iso:4217","value":0}},{"url":"https://bluebutton.cms.gov/assets/ig/StructureDefinition-bluebutton-inpatient-clm-pass-thru-per-diem-amt-extension","valueMoney":{"code":"USD","system":"urn:iso:std:iso:4217","value":0}},{"url":"https://bluebutton.cms.gov/assets/ig/StructureDefinition-bluebutton-inpatient-nch-profnl-cmpnt-chrg-amt-extension","valueMoney":{"code":"USD","system":"urn:iso:std:iso:4217","value":0}},{"url":"https://bluebutton.cms.gov/assets/ig/StructureDefinition-bluebutton-inpatient-clm-tot-pps-cptl-amt-extension","valueMoney":{"code":"USD","system":"urn:iso:std:iso:4217","value":0}},{"url":"https://bluebutton.cms.gov/assets/ig/StructureDefinition-bluebutton-inpatient-nch-bene-ip-ddctbl-amt-extension","valueMoney":{"code":"USD","system":"urn:iso:std:iso:4217","value":0}},{"url":"https://bluebutton.cms.gov/assets/ig/StructureDefinition-bluebutton-inpatient-nch-bene-pta-coinsrnc-lblty-amt-extension","valueMoney":{"code":"USD","system":"urn:iso:std:iso:4217","value":0}},{"url":"https://bluebutton.cms.gov/assets/ig/StructureDefinition-bluebutton-inpatient-nch-ip-ncvrd-chrg-amt-extension","valueMoney":{"code":"USD","system":"urn:iso:std:iso:4217","value":0}},{"url":"https://bluebutton.cms.gov/assets/ig/StructureDefinition-bluebutton-inpatient-nch-ip-tot-ddctn-amt-extension","valueMoney":{"code":"USD","system":"urn:iso:std:iso:4217","value":0}},{"url":"https://bluebutton.cms.gov/assets/ig/StructureDefinition-bluebutton-inpatient-clm-pps-cptl-dsprprtnt-shr-amt-extension","valueMoney":{"code":"USD","system":"urn:iso:std:iso:4217","value":0}},{"url":"https://bluebutton.cms.gov/assets/ig/StructureDefinition-bluebutton-inpatient-clm-pps-cptl-excptn-amt-extension","valueMoney":{"code":"USD","system":"urn:iso:std:iso:4217","value":0}},{"url":"https://bluebutton.cms.gov/assets/ig/StructureDefinition-bluebutton-inpatient-clm-pps-cptl-fsp-amt-extension","valueMoney":{"code":"USD","system":"urn:iso:std:iso:4217","value":0}},{"url":"https://bluebutton.cms.gov/assets/ig/StructureDefinition-bluebutton-inpatient-clm-pps-cptl-ime-amt-extension","valueMoney":{"code":"USD","system":"urn:iso:std:iso:4217","value":400}},{"url":"https://bluebutton.cms.gov/assets/ig/StructureDefinition-bluebutton-inpatient-clm-pps-cptl-outlier-amt-extension","valueMoney":{"code":"USD","system":"urn:iso:std:iso:4217","value":0}},{"url":"https://bluebutton.cms.gov/assets/ig/StructureDefinition-bluebutton-inpatient-clm-pps-old-cptl-hld-hrmls-amt-extension","valueMoney":{"code":"USD","system":"urn:iso:std:iso:4217","value":0}},{"url":"https://bluebutton.cms.gov/assets/ig/StructureDefinition-bluebutton-inpatient-nch-drg-outlier-aprvd-pmt-amt-extension","valueMoney":{"code":"USD","system":"urn:iso:std:iso:4217","value":0}},{"url":"https://bluebutton.cms.gov/assets/ig/StructureDefinition-bluebutton-inpatient-nch-bene-blood-ddctbl-lblty-am-extension","valueMoney":{"code":"USD","system":"urn:iso:std:iso:4217","value":0}},{"url":"https://bluebutton.cms.gov/assets/ig/StructureDefinition-bluebutton-inpatient-clm-mdcr-non-pmt-rsn-cd-extension","valueCoding":{"code":"N","display":"All other reasons for non-payment","system":"https://bluebutton.cms.gov/assets/ig/CodeSystem-clm-mdcr-non-pmt-rsn-cd"}},{"url":"https://bluebutton.cms.gov/assets/ig/StructureDefinition-bluebutton-inpatient-prpayamt-extension","valueMoney":{"code":"USD","system":"urn:iso:std:iso:4217","value":0}},{"url":"https://bluebutton.cms.gov/assets/ig/StructureDefinition-bluebutton-inpatient-fi-num-extension","valueIdentifier":{"system":"https://bluebutton.cms.gov/assets/ig/CodeSystem-fi-num","value":"002000"}}],"id":"22eb0766-f3ef-44b6-97de-e85dd4ae65d7","identifier":[{"system":"https://bluebutton.cms.gov/resources/variables/clm_id","value":"ec7f037a-ad0a-4122-8c4a-0719ac401e9a"},{"system":"https://bluebutton.cms.gov/resources/identifier/claim-group","value":"99999999999"}],"insurance":{"coverage":{"reference":"#coverage"}},"item":[{"extension":[{"url":"https://bluebutton.cms.gov/assets/ig/StructureDefinition-bluebutton-inpatient-rev-cntr-ndc-qty-extension","valueQuantity":{"value":0}}],"locationCodeableConcept":{"coding":[{"code":"21","display":"Inpatient Hospital","system":"https://bluebutton.cms.gov/resources/variables/line_place_of_srvc_cd"}]},"sequence":1},{"adjudication":[{"amount":{"code":"USD","system":"urn:iso:std:iso:4217","value":3205.0400000000004},"category":{"coding":[{"code":"https://bluebutton.cms.gov/resources/variables/line_coinsrnc_amt","display":"Line Beneficiary Coinsurance Amount","system":"https://bluebutton.cms.gov/resources/codesystem/adjudication"}]}},{"amount":{"code":"USD","system":"urn:iso:std:iso:4217","value":12820.160000000002},"category":{"coding":[{"code":"https://bluebutton.cms.gov/resources/variables/line_prvdr_pmt_amt","display":"Line Provider Payment Amount","system":"https://bluebutton.cms.gov/resources/codesystem/adjudication"}]}},{"amount":{"code":"USD","system":"urn:iso:std:iso:4217","value":16025.2},"category":{"coding":[{"code":"https://bluebutton.cms.gov/resources/variables/line_sbmtd_chrg_amt","display":"Line Submitted Charge Amount","system":"https://bluebutton.cms.gov/resources/codesystem/adjudication"}]}},{"amount":{"code":"USD","system":"urn:iso:std:iso:4217","value":16025.2},"category":{"coding":[{"code":"https://bluebutton.cms.gov/resources/variables/line_alowd_chrg_amt","display":"Line Allowed Charge Amount","system":"https://bluebutton.cms.gov/resources/codesystem/adjudication"}]}},{"amount":{"code":"USD","system":"urn:iso:std:iso:4217","value":0},"category":{"coding":[{"code":"https://bluebutton.cms.gov/resources/variables/line_bene_ptb_ddctbl_amt","display":"Line Beneficiary Part B Deductible Amount","system":"https://bluebutton.cms.gov/resources/codesystem/adjudication"}]}},{"category":{"coding":[{"code":"https://bluebutton.cms.gov/resources/variables/line_prcsg_ind_cd","display":"Line Processing Indicator Code","system":"https://bluebutton.cms.gov/resources/codesystem/adjudication"}]}}],"extension":[{"url":"https://bluebutton.cms.gov/assets/ig/StructureDefinition-bluebutton-inpatient-rev-cntr-ndc-qty-extension","valueQuantity":{"value":0}}],"locationCodeableConcept":{"coding":[{"code":"21","display":"Inpatient Hospital","system":"https://bluebutton.cms.gov/resources/variables/line_place_of_srvc_cd"}]},"sequence":2,"service":{"coding":[{"code":"180256009","system":"http://snomed.info/sct","version":"v1"}]}}],"meta":{"lastUpdated":"2019-04-09T09:59:23.097215+00:00","profile":["https://bluebutton.cms.gov/assets/ig/StructureDefinition-bluebutton-inpatient-claim"],"versionId":"MTU1NDgwMzk2MzA5NzIxNTAwMA"},"organization":{"identifier":{"value":"b1d44a9d-02af-4ad2-845a-0d262fdc836f"}},"patient":{"reference":"Patient/00bbc092-5868-40db-8eee-fe79d6a40e76"},"payment":{"amount":{"code":"USD","system":"urn:iso:std:iso:4217","value":12820.160000000002}},"provider":{"identifier":{"value":"0d8a105b-bf25-4161-b635-3ea23d8eece3"}},"resourceType":"ExplanationOfBenefit","status":"active","totalCost":{"code":"USD","system":"urn:iso:std:iso:4217","value":16150.2},"type":{"coding":[{"code":"71","display":"Local carrier non-durable medical equipment, prosthetics, orthotics, and supplies (DMEPOS) claim","system":"https://bluebutton.cms.gov/resources/variables/nch_clm_type_cd"},{"code":"CARRIER","display":"EOB Type","system":"https://bluebutton.cms.gov/resources/codesystem/eob-type"},{"code":"professional","display":"Claim Type","system":"http://hl7.org/fhir/ex-claimtype"},{"code":"O","display":"Part B physician/supplier claim record (processed by local carriers; can include DMEPOS services)","system":"https://bluebutton.cms.gov/resources/variables/nch_near_line_rec_ident_cd"}]}}},{"resource":{"billablePeriod":{"end":"2014-12-29T20:29:52-05:00","extension":[{"url":"https://bluebutton.cms.gov/assets/ig/StructureDefinition-bluebutton-inpatient-claim-query-cd-extension","valueCoding":{"code":"3","display":"Final Bill","system":"https://bluebutton.cms.gov/assets/ig/ValueSet-claim-query-cd"}}],"start":"2013-12-29T20:29:52-05:00"},"careTeam":[{"provider":{"identifier":{"system":"http://hl7.org/fhir/sid/us-npi","value":"99999999"}},"role":{"coding":[{"code":"primary","display":"Primary Care Practitioner","system":"http://hl7.org/fhir/claimcareteamrole"}]},"sequence":1}],"contained":[{"id":"coverage","resourceType":"Coverage","type":{"text":"medicaid"}}],"extension":[{"url":"https://bluebutton.cms.gov/assets/ig/StructureDefinition-bluebutton-inpatient-ime-op-clm-val-amt-extension","valueMoney":{"code":"USD","system":"urn:iso:std:iso:4217","value":400}},{"url":"https://bluebutton.cms.gov/assets/ig/StructureDefinition-bluebutton-inpatient-dsh-op-clm-val-amt-extension","valueMoney":{"code":"USD","system":"urn:iso:std:iso:4217","value":0}},{"url":"https://bluebutton.cms.gov/assets/ig/StructureDefinition-bluebutton-inpatient-clm-pass-thru-per-diem-amt-extension","valueMoney":{"code":"USD","system":"urn:iso:std:iso:4217","value":0}},{"url":"https://bluebutton.cms.gov/assets/ig/StructureDefinition-bluebutton-inpatient-nch-profnl-cmpnt-chrg-amt-extension","valueMoney":{"code":"USD","system":"urn:iso:std:iso:4217","value":0}},{"url":"https://bluebutton.cms.gov/assets/ig/StructureDefinition-bluebutton-inpatient-clm-tot-pps-cptl-amt-extension","valueMoney":{"code":"USD","system":"urn:iso:std:iso:4217","value":0}},{"url":"https://bluebutton.cms.gov/assets/ig/StructureDefinition-bluebutton-inpatient-nch-bene-ip-ddctbl-amt-extension","valueMoney":{"code":"USD","system":"urn:iso:std:iso:4217","value":0}},{"url":"https://bluebutton.cms.gov/assets/ig/StructureDefinition-bluebutton-inpatient-nch-bene-pta-coinsrnc-lblty-amt-extension","valueMoney":{"code":"USD","system":"urn:iso:std:iso:4217","value":0}},{"url":"https://bluebutton.cms.gov/assets/ig/StructureDefinition-bluebutton-inpatient-nch-ip-ncvrd-chrg-amt-extension","valueMoney":{"code":"USD","system":"urn:iso:std:iso:4217","value":0}},{"url":"https://bluebutton.cms.gov/assets/ig/StructureDefinition-bluebutton-inpatient-nch-ip-tot-ddctn-amt-extension","valueMoney":{"code":"USD","system":"urn:iso:std:iso:4217","value":0}},{"url":"https://bluebutton.cms.gov/assets/ig/StructureDefinition-bluebutton-inpatient-clm-pps-cptl-dsprprtnt-shr-amt-extension","valueMoney":{"code":"USD","system":"urn:iso:std:iso:4217","value":0}},{"url":"https://bluebutton.cms.gov/assets/ig/StructureDefinition-bluebutton-inpatient-clm-pps-cptl-excptn-amt-extension","valueMoney":{"code":"USD","system":"urn:iso:std:iso:4217","value":0}},{"url":"https://bluebutton.cms.gov/assets/ig/StructureDefinition-bluebutton-inpatient-clm-pps-cptl-fsp-amt-extension","valueMoney":{"code":"USD","system":"urn:iso:std:iso:4217","value":0}},{"url":"https://bluebutton.cms.gov/assets/ig/StructureDefinition-bluebutton-inpatient-clm-pps-cptl-ime-amt-extension","valueMoney":{"code":"USD","system":"urn:iso:std:iso:4217","value":400}},{"url":"https://bluebutton.cms.gov/assets/ig/StructureDefinition-bluebutton-inpatient-clm-pps-cptl-outlier-amt-extension","valueMoney":{"code":"USD","system":"urn:iso:std:iso:4217","value":0}},{"url":"https://bluebutton.cms.gov/assets/ig/StructureDefinition-bluebutton-inpatient-clm-pps-old-cptl-hld-hrmls-amt-extension","valueMoney":{"code":"USD","system":"urn:iso:std:iso:4217","value":0}},{"url":"https://bluebutton.cms.gov/assets/ig/StructureDefinition-bluebutton-inpatient-nch-drg-outlier-aprvd-pmt-amt-extension","valueMoney":{"code":"USD","system":"urn:iso:std:iso:4217","value":0}},{"url":"https://bluebutton.cms.gov/assets/ig/StructureDefinition-bluebutton-inpatient-nch-bene-blood-ddctbl-lblty-am-extension","valueMoney":{"code":"USD","system":"urn:iso:std:iso:4217","value":0}},{"url":"https://bluebutton.cms.gov/assets/ig/StructureDefinition-bluebutton-inpatient-clm-mdcr-non-pmt-rsn-cd-extension","valueCoding":{"code":"N","display":"All other reasons for non-payment","system":"https://bluebutton.cms.gov/assets/ig/CodeSystem-clm-mdcr-non-pmt-rsn-cd"}},{"url":"https://bluebutton.cms.gov/assets/ig/StructureDefinition-bluebutton-inpatient-prpayamt-extension","valueMoney":{"code":"USD","system":"urn:iso:std:iso:4217","value":0}},{"url":"https://bluebutton.cms.gov/assets/ig/StructureDefinition-bluebutton-inpatient-fi-num-extension","valueIdentifier":{"system":"https://bluebutton.cms.gov/assets/ig/CodeSystem-fi-num","value":"002000"}}],"id":"23c09a73-a8cf-445b-b28e-9b1684ac255c","identifier":[{"system":"https://bluebutton.cms.gov/resources/variables/clm_id","value":"a95e54c5-1301-4f4a-839d-484e27a073cf"},{"system":"https://bluebutton.cms.gov/resources/identifier/claim-group","value":"99999999999"}],"insurance":{"coverage":{"reference":"#coverage"}},"item":[{"extension":[{"url":"https://bluebutton.cms.gov/assets/ig/StructureDefinition-bluebutton-inpatient-rev-cntr-ndc-qty-extension","valueQuantity":{"value":0}}],"locationCodeableConcept":{"coding":[{"code":"21","display":"Inpatient Hospital","system":"https://bluebutton.cms.gov/resources/variables/line_place_of_srvc_cd"}]},"sequence":1},{"adjudication":[{"amount":{"code":"USD","system":"urn:iso:std:iso:4217","value":2839.728},"category":{"coding":[{"code":"https://bluebutton.cms.gov/resources/variables/line_coinsrnc_amt","display":"Line Beneficiary Coinsurance Amount","system":"https://bluebutton.cms.gov/resources/codesystem/adjudication"}]}},{"amount":{"code":"USD","system":"urn:iso:std:iso:4217","value":11358.912},"category":{"coding":[{"code":"https://bluebutton.cms.gov/resources/variables/line_prvdr_pmt_amt","display":"Line Provider Payment Amount","system":"https://bluebutton.cms.gov/resources/codesystem/adjudication"}]}},{"amount":{"code":"USD","system":"urn:iso:std:iso:4217","value":14198.64},"category":{"coding":[{"code":"https://bluebutton.cms.gov/resources/variables/line_sbmtd_chrg_amt","display":"Line Submitted Charge Amount","system":"https://bluebutton.cms.gov/resources/codesystem/adjudication"}]}},{"amount":{"code":"USD","system":"urn:iso:std:iso:4217","value":14198.64},"category":{"coding":[{"code":"https://bluebutton.cms.gov/resources/variables/line_alowd_chrg_amt","display":"Line Allowed Charge Amount","system":"https://bluebutton.cms.gov/resources/codesystem/adjudication"}]}},{"amount":{"code":"USD","system":"urn:iso:std:iso:4217","value":0},"category":{"coding":[{"code":"https://bluebutton.cms.gov/resources/variables/line_bene_ptb_ddctbl_amt","display":"Line Beneficiary Part B Deductible Amount","system":"https://bluebutton.cms.gov/resources/codesystem/adjudication"}]}},{"category":{"coding":[{"code":"https://bluebutton.cms.gov/resources/variables/line_prcsg_ind_cd","display":"Line Processing Indicator Code","system":"https://bluebutton.cms.gov/resources/codesystem/adjudication"}]}}],"extension":[{"url":"https://bluebutton.cms.gov/assets/ig/StructureDefinition-bluebutton-inpatient-rev-cntr-ndc-qty-extension","valueQuantity":{"value":0}}],"locationCodeableConcept":{"coding":[{"code":"21","display":"Inpatient Hospital","system":"https://bluebutton.cms.gov/resources/variables/line_place_of_srvc_cd"}]},"sequence":2,"service":{"coding":[{"code":"180256009","system":"http://snomed.info/sct","version":"v1"}]}}],"meta":{"lastUpdated":"2019-04-09T09:59:24.131558+00:00","profile":["https://bluebutton.cms.gov/assets/ig/StructureDefinition-bluebutton-inpatient-claim"],"versionId":"MTU1NDgwMzk2NDEzMTU1ODAwMA"},"organization":{"identifier":{"value":"b1d44a9d-02af-4ad2-845a-0d262fdc836f"}},"patient":{"reference":"Patient/00bbc092-5868-40db-8eee-fe79d6a40e76"},"payment":{"amount":{"code":"USD","system":"urn:iso:std:iso:4217","value":11358.912}},"provider":{"identifier":{"value":"0d8a105b-bf25-4161-b635-3ea23d8eece3"}},"resourceType":"ExplanationOfBenefit","status":"active","totalCost":{"code":"USD","system":"urn:iso:std:iso:4217","value":14323.64},"type":{"coding":[{"code":"71","display":"Local carrier non-durable medical equipment, prosthetics, orthotics, and supplies (DMEPOS) claim","system":"https://bluebutton.cms.gov/resources/variables/nch_clm_type_cd"},{"code":"CARRIER","display":"EOB Type","system":"https://bluebutton.cms.gov/resources/codesystem/eob-type"},{"code":"professional","display":"Claim Type","system":"http://hl7.org/fhir/ex-claimtype"},{"code":"O","display":"Part B physician/supplier claim record (processed by local carriers; can include DMEPOS services)","system":"https://bluebutton.cms.gov/resources/variables/nch_near_line_rec_ident_cd"}]}}},{"resource":{"billablePeriod":{"end":"2012-12-25T20:15:52-05:00","extension":[{"url":"https://bluebutton.cms.gov/assets/ig/StructureDefinition-bluebutton-inpatient-claim-query-cd-extension","valueCoding":{"code":"3","display":"Final Bill","system":"https://bluebutton.cms.gov/assets/ig/ValueSet-claim-query-cd"}}],"start":"2011-12-25T20:15:52-05:00"},"careTeam":[{"provider":{"identifier":{"system":"http://hl7.org/fhir/sid/us-npi","value":"99999999"}},"role":{"coding":[{"code":"primary","display":"Primary Care Practitioner","system":"http://hl7.org/fhir/claimcareteamrole"}]},"sequence":1}],"contained":[{"id":"coverage","resourceType":"Coverage","type":{"text":"medicaid"}}],"extension":[{"url":"https://bluebutton.cms.gov/assets/ig/StructureDefinition-bluebutton-inpatient-ime-op-clm-val-amt-extension","valueMoney":{"code":"USD","system":"urn:iso:std:iso:4217","value":400}},{"url":"https://bluebutton.cms.gov/assets/ig/StructureDefinition-bluebutton-inpatient-dsh-op-clm-val-amt-extension","valueMoney":{"code":"USD","system":"urn:iso:std:iso:4217","value":0}},{"url":"https://bluebutton.cms.gov/assets/ig/StructureDefinition-bluebutton-inpatient-clm-pass-thru-per-diem-amt-extension","valueMoney":{"code":"USD","system":"urn:iso:std:iso:4217","value":0}},{"url":"https://bluebutton.cms.gov/assets/ig/StructureDefinition-bluebutton-inpatient-nch-profnl-cmpnt-chrg-amt-extension","valueMoney":{"code":"USD","system":"urn:iso:std:iso:4217","value":0}},{"url":"https://bluebutton.cms.gov/assets/ig/StructureDefinition-bluebutton-inpatient-clm-tot-pps-cptl-amt-extension","valueMoney":{"code":"USD","system":"urn:iso:std:iso:4217","value":0}},{"url":"https://bluebutton.cms.gov/assets/ig/StructureDefinition-bluebutton-inpatient-nch-bene-ip-ddctbl-amt-extension","valueMoney":{"code":"USD","system":"urn:iso:std:iso:4217","value":0}},{"url":"https://bluebutton.cms.gov/assets/ig/StructureDefinition-bluebutton-inpatient-nch-bene-pta-coinsrnc-lblty-amt-extension","valueMoney":{"code":"USD","system":"urn:iso:std:iso:4217","value":0}},{"url":"https://bluebutton.cms.gov/assets/ig/StructureDefinition-bluebutton-inpatient-nch-ip-ncvrd-chrg-amt-extension","valueMoney":{"code":"USD","system":"urn:iso:std:iso:4217","value":0}},{"url":"https://bluebutton.cms.gov/assets/ig/StructureDefinition-bluebutton-inpatient-nch-ip-tot-ddctn-amt-extension","valueMoney":{"code":"USD","system":"urn:iso:std:iso:4217","value":0}},{"url":"https://bluebutton.cms.gov/assets/ig/StructureDefinition-bluebutton-inpatient-clm-pps-cptl-dsprprtnt-shr-amt-extension","valueMoney":{"code":"USD","system":"urn:iso:std:iso:4217","value":0}},{"url":"https://bluebutton.cms.gov/assets/ig/StructureDefinition-bluebutton-inpatient-clm-pps-cptl-excptn-amt-extension","valueMoney":{"code":"USD","system":"urn:iso:std:iso:4217","value":0}},{"url":"https://bluebutton.cms.gov/assets/ig/StructureDefinition-bluebutton-inpatient-clm-pps-cptl-fsp-amt-extension","valueMoney":{"code":"USD","system":"urn:iso:std:iso:4217","value":0}},{"url":"https://bluebutton.cms.gov/assets/ig/StructureDefinition-bluebutton-inpatient-clm-pps-cptl-ime-amt-extension","valueMoney":{"code":"USD","system":"urn:iso:std:iso:4217","value":400}},{"url":"https://bluebutton.cms.gov/assets/ig/StructureDefinition-bluebutton-inpatient-clm-pps-cptl-outlier-amt-extension","valueMoney":{"code":"USD","system":"urn:iso:std:iso:4217","value":0}},{"url":"https://bluebutton.cms.gov/assets/ig/StructureDefinition-bluebutton-inpatient-clm-pps-old-cptl-hld-hrmls-amt-extension","valueMoney":{"code":"USD","system":"urn:iso:std:iso:4217","value":0}},{"url":"https://bluebutton.cms.gov/assets/ig/StructureDefinition-bluebutton-inpatient-nch-drg-outlier-aprvd-pmt-amt-extension","valueMoney":{"code":"USD","system":"urn:iso:std:iso:4217","value":0}},{"url":"https://bluebutton.cms.gov/assets/ig/StructureDefinition-bluebutton-inpatient-nch-bene-blood-ddctbl-lblty-am-extension","valueMoney":{"code":"USD","system":"urn:iso:std:iso:4217","value":0}},{"url":"https://bluebutton.cms.gov/assets/ig/StructureDefinition-bluebutton-inpatient-clm-mdcr-non-pmt-rsn-cd-extension","valueCoding":{"code":"N","display":"All other reasons for non-payment","system":"https://bluebutton.cms.gov/assets/ig/CodeSystem-clm-mdcr-non-pmt-rsn-cd"}},{"url":"https://bluebutton.cms.gov/assets/ig/StructureDefinition-bluebutton-inpatient-prpayamt-extension","valueMoney":{"code":"USD","system":"urn:iso:std:iso:4217","value":0}},{"url":"https://bluebutton.cms.gov/assets/ig/StructureDefinition-bluebutton-inpatient-fi-num-extension","valueIdentifier":{"system":"https://bluebutton.cms.gov/assets/ig/CodeSystem-fi-num","value":"002000"}}],"id":"25123566-bdcd-4cb6-9aa7-854e70ce77eb","identifier":[{"system":"https://bluebutton.cms.gov/resources/variables/clm_id","value":"01ee6713-5474-43d9-8850-e35ffec386e4"},{"system":"https://bluebutton.cms.gov/resources/identifier/claim-group","value":"99999999999"}],"insurance":{"coverage":{"reference":"#coverage"}},"item":[{"extension":[{"url":"https://bluebutton.cms.gov/assets/ig/StructureDefinition-bluebutton-inpatient-rev-cntr-ndc-qty-extension","valueQuantity":{"value":0}}],"locationCodeableConcept":{"coding":[{"code":"21","display":"Inpatient Hospital","system":"https://bluebutton.cms.gov/resources/variables/line_place_of_srvc_cd"}]},"sequence":1},{"adjudication":[{"amount":{"code":"USD","system":"urn:iso:std:iso:4217","value":3051.954},"category":{"coding":[{"code":"https://bluebutton.cms.gov/resources/variables/line_coinsrnc_amt","display":"Line Beneficiary Coinsurance Amount","system":"https://bluebutton.cms.gov/resources/codesystem/adjudication"}]}},{"amount":{"code":"USD","system":"urn:iso:std:iso:4217","value":12207.816},"category":{"coding":[{"code":"https://bluebutton.cms.gov/resources/variables/line_prvdr_pmt_amt","display":"Line Provider Payment Amount","system":"https://bluebutton.cms.gov/resources/codesystem/adjudication"}]}},{"amount":{"code":"USD","system":"urn:iso:std:iso:4217","value":15259.77},"category":{"coding":[{"code":"https://bluebutton.cms.gov/resources/variables/line_sbmtd_chrg_amt","display":"Line Submitted Charge Amount","system":"https://bluebutton.cms.gov/resources/codesystem/adjudication"}]}},{"amount":{"code":"USD","system":"urn:iso:std:iso:4217","value":15259.77},"category":{"coding":[{"code":"https://bluebutton.cms.gov/resources/variables/line_alowd_chrg_amt","display":"Line Allowed Charge Amount","system":"https://bluebutton.cms.gov/resources/codesystem/adjudication"}]}},{"amount":{"code":"USD","system":"urn:iso:std:iso:4217","value":0},"category":{"coding":[{"code":"https://bluebutton.cms.gov/resources/variables/line_bene_ptb_ddctbl_amt","display":"Line Beneficiary Part B Deductible Amount","system":"https://bluebutton.cms.gov/resources/codesystem/adjudication"}]}},{"category":{"coding":[{"code":"https://bluebutton.cms.gov/resources/variables/line_prcsg_ind_cd","display":"Line Processing Indicator Code","system":"https://bluebutton.cms.gov/resources/codesystem/adjudication"}]}}],"extension":[{"url":"https://bluebutton.cms.gov/assets/ig/StructureDefinition-bluebutton-inpatient-rev-cntr-ndc-qty-extension","valueQuantity":{"value":0}}],"locationCodeableConcept":{"coding":[{"code":"21","display":"Inpatient Hospital","system":"https://bluebutton.cms.gov/resources/variables/line_place_of_srvc_cd"}]},"sequence":2,"service":{"coding":[{"code":"180256009","system":"http://snomed.info/sct","version":"v1"}]}}],"meta":{"lastUpdated":"2019-04-09T09:59:22.078006+00:00","profile":["https://bluebutton.cms.gov/assets/ig/StructureDefinition-bluebutton-inpatient-claim"],"versionId":"MTU1NDgwMzk2MjA3ODAwNjAwMA"},"organization":{"identifier":{"value":"b1d44a9d-02af-4ad2-845a-0d262fdc836f"}},"patient":{"reference":"Patient/00bbc092-5868-40db-8eee-fe79d6a40e76"},"payment":{"amount":{"code":"USD","system":"urn:iso:std:iso:4217","value":12207.816}},"provider":{"identifier":{"value":"0d8a105b-bf25-4161-b635-3ea23d8eece3"}},"resourceType":"ExplanationOfBenefit","status":"active","totalCost":{"code":"USD","system":"urn:iso:std:iso:4217","value":15384.77},"type":{"coding":[{"code":"71","display":"Local carrier non-durable medical equipment, prosthetics, orthotics, and supplies (DMEPOS) claim","system":"https://bluebutton.cms.gov/resources/variables/nch_clm_type_cd"},{"code":"CARRIER","display":"EOB Type","system":"https://bluebutton.cms.gov/resources/codesystem/eob-type"},{"code":"professional","display":"Claim Type","system":"http://hl7.org/fhir/ex-claimtype"},{"code":"O","display":"Part B physician/supplier claim record (processed by local carriers; can include DMEPOS services)","system":"https://bluebutton.cms.gov/resources/variables/nch_near_line_rec_ident_cd"}]}}},{"resource":{"billablePeriod":{"end":"2014-05-12T21:24:52-04:00","extension":[{"url":"https://bluebutton.cms.gov/assets/ig/StructureDefinition-bluebutton-inpatient-claim-query-cd-extension","valueCoding":{"code":"3","display":"Final Bill","system":"https://bluebutton.cms.gov/assets/ig/ValueSet-claim-query-cd"}}],"start":"2013-05-12T21:24:52-04:00"},"careTeam":[{"provider":{"identifier":{"system":"http://hl7.org/fhir/sid/us-npi","value":"99999999"}},"role":{"coding":[{"code":"primary","display":"Primary Care Practitioner","system":"http://hl7.org/fhir/claimcareteamrole"}]},"sequence":1}],"contained":[{"id":"coverage","resourceType":"Coverage","type":{"text":"medicaid"}}],"extension":[{"url":"https://bluebutton.cms.gov/assets/ig/StructureDefinition-bluebutton-inpatient-ime-op-clm-val-amt-extension","valueMoney":{"code":"USD","system":"urn:iso:std:iso:4217","value":400}},{"url":"https://bluebutton.cms.gov/assets/ig/StructureDefinition-bluebutton-inpatient-dsh-op-clm-val-amt-extension","valueMoney":{"code":"USD","system":"urn:iso:std:iso:4217","value":0}},{"url":"https://bluebutton.cms.gov/assets/ig/StructureDefinition-bluebutton-inpatient-clm-pass-thru-per-diem-amt-extension","valueMoney":{"code":"USD","system":"urn:iso:std:iso:4217","value":0}},{"url":"https://bluebutton.cms.gov/assets/ig/StructureDefinition-bluebutton-inpatient-nch-profnl-cmpnt-chrg-amt-extension","valueMoney":{"code":"USD","system":"urn:iso:std:iso:4217","value":0}},{"url":"https://bluebutton.cms.gov/assets/ig/StructureDefinition-bluebutton-inpatient-clm-tot-pps-cptl-amt-extension","valueMoney":{"code":"USD","system":"urn:iso:std:iso:4217","value":0}},{"url":"https://bluebutton.cms.gov/assets/ig/StructureDefinition-bluebutton-inpatient-nch-bene-ip-ddctbl-amt-extension","valueMoney":{"code":"USD","system":"urn:iso:std:iso:4217","value":0}},{"url":"https://bluebutton.cms.gov/assets/ig/StructureDefinition-bluebutton-inpatient-nch-bene-pta-coinsrnc-lblty-amt-extension","valueMoney":{"code":"USD","system":"urn:iso:std:iso:4217","value":0}},{"url":"https://bluebutton.cms.gov/assets/ig/StructureDefinition-bluebutton-inpatient-nch-ip-ncvrd-chrg-amt-extension","valueMoney":{"code":"USD","system":"urn:iso:std:iso:4217","value":0}},{"url":"https://bluebutton.cms.gov/assets/ig/StructureDefinition-bluebutton-inpatient-nch-ip-tot-ddctn-amt-extension","valueMoney":{"code":"USD","system":"urn:iso:std:iso:4217","value":0}},{"url":"https://bluebutton.cms.gov/assets/ig/StructureDefinition-bluebutton-inpatient-clm-pps-cptl-dsprprtnt-shr-amt-extension","valueMoney":{"code":"USD","system":"urn:iso:std:iso:4217","value":0}},{"url":"https://bluebutton.cms.gov/assets/ig/StructureDefinition-bluebutton-inpatient-clm-pps-cptl-excptn-amt-extension","valueMoney":{"code":"USD","system":"urn:iso:std:iso:4217","value":0}},{"url":"https://bluebutton.cms.gov/assets/ig/StructureDefinition-bluebutton-inpatient-clm-pps-cptl-fsp-amt-extension","valueMoney":{"code":"USD","system":"urn:iso:std:iso:4217","value":0}},{"url":"https://bluebutton.cms.gov/assets/ig/StructureDefinition-bluebutton-inpatient-clm-pps-cptl-ime-amt-extension","valueMoney":{"code":"USD","system":"urn:iso:std:iso:4217","value":400}},{"url":"https://bluebutton.cms.gov/assets/ig/StructureDefinition-bluebutton-inpatient-clm-pps-cptl-outlier-amt-extension","valueMoney":{"code":"USD","system":"urn:iso:std:iso:4217","value":0}},{"url":"https://bluebutton.cms.gov/assets/ig/StructureDefinition-bluebutton-inpatient-clm-pps-old-cptl-hld-hrmls-amt-extension","valueMoney":{"code":"USD","system":"urn:iso:std:iso:4217","value":0}},{"url":"https://bluebutton.cms.gov/assets/ig/StructureDefinition-bluebutton-inpatient-nch-drg-outlier-aprvd-pmt-amt-extension","valueMoney":{"code":"USD","system":"urn:iso:std:iso:4217","value":0}},{"url":"https://bluebutton.cms.gov/assets/ig/StructureDefinition-bluebutton-inpatient-nch-bene-blood-ddctbl-lblty-am-extension","valueMoney":{"code":"USD","system":"urn:iso:std:iso:4217","value":0}},{"url":"https://bluebutton.cms.gov/assets/ig/StructureDefinition-bluebutton-inpatient-clm-mdcr-non-pmt-rsn-cd-extension","valueCoding":{"code":"N","display":"All other reasons for non-payment","system":"https://bluebutton.cms.gov/assets/ig/CodeSystem-clm-mdcr-non-pmt-rsn-cd"}},{"url":"https://bluebutton.cms.gov/assets/ig/StructureDefinition-bluebutton-inpatient-prpayamt-extension","valueMoney":{"code":"USD","system":"urn:iso:std:iso:4217","value":0}},{"url":"https://bluebutton.cms.gov/assets/ig/StructureDefinition-bluebutton-inpatient-fi-num-extension","valueIdentifier":{"system":"https://bluebutton.cms.gov/assets/ig/CodeSystem-fi-num","value":"002000"}}],"id":"2763a542-bf31-4869-8c16-e855864df884","identifier":[{"system":"https://bluebutton.cms.gov/resources/variables/clm_id","value":"c9532a56-0af1-415e-aaa3-ced2160e7f9f"},{"system":"https://bluebutton.cms.gov/resources/identifier/claim-group","value":"99999999999"}],"insurance":{"coverage":{"reference":"#coverage"}},"item":[{"extension":[{"url":"https://bluebutton.cms.gov/assets/ig/StructureDefinition-bluebutton-inpatient-rev-cntr-ndc-qty-extension","valueQuantity":{"value":0}}],"locationCodeableConcept":{"coding":[{"code":"21","display":"Inpatient Hospital","system":"https://bluebutton.cms.gov/resources/variables/line_place_of_srvc_cd"}]},"sequence":1},{"adjudication":[{"amount":{"code":"USD","system":"urn:iso:std:iso:4217","value":3635.882},"category":{"coding":[{"code":"https://bluebutton.cms.gov/resources/variables/line_coinsrnc_amt","display":"Line Beneficiary Coinsurance Amount","system":"https://bluebutton.cms.gov/resources/codesystem/adjudication"}]}},{"amount":{"code":"USD","system":"urn:iso:std:iso:4217","value":14543.528},"category":{"coding":[{"code":"https://bluebutton.cms.gov/resources/variables/line_prvdr_pmt_amt","display":"Line Provider Payment Amount","system":"https://bluebutton.cms.gov/resources/codesystem/adjudication"}]}},{"amount":{"code":"USD","system":"urn:iso:std:iso:4217","value":18179.41},"category":{"coding":[{"code":"https://bluebutton.cms.gov/resources/variables/line_sbmtd_chrg_amt","display":"Line Submitted Charge Amount","system":"https://bluebutton.cms.gov/resources/codesystem/adjudication"}]}},{"amount":{"code":"USD","system":"urn:iso:std:iso:4217","value":18179.41},"category":{"coding":[{"code":"https://bluebutton.cms.gov/resources/variables/line_alowd_chrg_amt","display":"Line Allowed Charge Amount","system":"https://bluebutton.cms.gov/resources/codesystem/adjudication"}]}},{"amount":{"code":"USD","system":"urn:iso:std:iso:4217","value":0},"category":{"coding":[{"code":"https://bluebutton.cms.gov/resources/variables/line_bene_ptb_ddctbl_amt","display":"Line Beneficiary Part B Deductible Amount","system":"https://bluebutton.cms.gov/resources/codesystem/adjudication"}]}},{"category":{"coding":[{"code":"https://bluebutton.cms.gov/resources/variables/line_prcsg_ind_cd","display":"Line Processing Indicator Code","system":"https://bluebutton.cms.gov/resources/codesystem/adjudication"}]}}],"extension":[{"url":"https://bluebutton.cms.gov/assets/ig/StructureDefinition-bluebutton-inpatient-rev-cntr-ndc-qty-extension","valueQuantity":{"value":0}}],"locationCodeableConcept":{"coding":[{"code":"21","display":"Inpatient Hospital","system":"https://bluebutton.cms.gov/resources/variables/line_place_of_srvc_cd"}]},"sequence":2,"service":{"coding":[{"code":"180256009","system":"http://snomed.info/sct","version":"v1"}]}}],"meta":{"lastUpdated":"2019-04-09T09:59:23.104990+00:00","profile":["https://bluebutton.cms.gov/assets/ig/StructureDefinition-bluebutton-inpatient-claim"],"versionId":"MTU1NDgwMzk2MzEwNDk5MDAwMA"},"organization":{"identifier":{"value":"b1d44a9d-02af-4ad2-845a-0d262fdc836f"}},"patient":{"reference":"Patient/00bbc092-5868-40db-8eee-fe79d6a40e76"},"payment":{"amount":{"code":"USD","system":"urn:iso:std:iso:4217","value":14543.528}},"provider":{"identifier":{"value":"0d8a105b-bf25-4161-b635-3ea23d8eece3"}},"resourceType":"ExplanationOfBenefit","status":"active","totalCost":{"code":"USD","system":"urn:iso:std:iso:4217","value":18304.41},"type":{"coding":[{"code":"71","display":"Local carrier non-durable medical equipment, prosthetics, orthotics, and supplies (DMEPOS) claim","system":"https://bluebutton.cms.gov/resources/variables/nch_clm_type_cd"},{"code":"CARRIER","display":"EOB Type","system":"https://bluebutton.cms.gov/resources/codesystem/eob-type"},{"code":"professional","display":"Claim Type","system":"http://hl7.org/fhir/ex-claimtype"},{"code":"O","display":"Part B physician/supplier claim record (processed by local carriers; can include DMEPOS services)","system":"https://bluebutton.cms.gov/resources/variables/nch_near_line_rec_ident_cd"}]}}},{"resource":{"billablePeriod":{"end":"2014-01-27T20:25:52-05:00","extension":[{"url":"https://bluebutton.cms.gov/assets/ig/StructureDefinition-bluebutton-inpatient-claim-query-cd-extension","valueCoding":{"code":"3","display":"Final Bill","system":"https://bluebutton.cms.gov/assets/ig/ValueSet-claim-query-cd"}}],"start":"2013-01-27T20:25:52-05:00"},"careTeam":[{"provider":{"identifier":{"system":"http://hl7.org/fhir/sid/us-npi","value":"99999999"}},"role":{"coding":[{"code":"primary","display":"Primary Care Practitioner","system":"http://hl7.org/fhir/claimcareteamrole"}]},"sequence":1}],"contained":[{"id":"coverage","resourceType":"Coverage","type":{"text":"medicaid"}}],"extension":[{"url":"https://bluebutton.cms.gov/assets/ig/StructureDefinition-bluebutton-inpatient-ime-op-clm-val-amt-extension","valueMoney":{"code":"USD","system":"urn:iso:std:iso:4217","value":400}},{"url":"https://bluebutton.cms.gov/assets/ig/StructureDefinition-bluebutton-inpatient-dsh-op-clm-val-amt-extension","valueMoney":{"code":"USD","system":"urn:iso:std:iso:4217","value":0}},{"url":"https://bluebutton.cms.gov/assets/ig/StructureDefinition-bluebutton-inpatient-clm-pass-thru-per-diem-amt-extension","valueMoney":{"code":"USD","system":"urn:iso:std:iso:4217","value":0}},{"url":"https://bluebutton.cms.gov/assets/ig/StructureDefinition-bluebutton-inpatient-nch-profnl-cmpnt-chrg-amt-extension","valueMoney":{"code":"USD","system":"urn:iso:std:iso:4217","value":0}},{"url":"https://bluebutton.cms.gov/assets/ig/StructureDefinition-bluebutton-inpatient-clm-tot-pps-cptl-amt-extension","valueMoney":{"code":"USD","system":"urn:iso:std:iso:4217","value":0}},{"url":"https://bluebutton.cms.gov/assets/ig/StructureDefinition-bluebutton-inpatient-nch-bene-ip-ddctbl-amt-extension","valueMoney":{"code":"USD","system":"urn:iso:std:iso:4217","value":0}},{"url":"https://bluebutton.cms.gov/assets/ig/StructureDefinition-bluebutton-inpatient-nch-bene-pta-coinsrnc-lblty-amt-extension","valueMoney":{"code":"USD","system":"urn:iso:std:iso:4217","value":0}},{"url":"https://bluebutton.cms.gov/assets/ig/StructureDefinition-bluebutton-inpatient-nch-ip-ncvrd-chrg-amt-extension","valueMoney":{"code":"USD","system":"urn:iso:std:iso:4217","value":0}},{"url":"https://bluebutton.cms.gov/assets/ig/StructureDefinition-bluebutton-inpatient-nch-ip-tot-ddctn-amt-extension","valueMoney":{"code":"USD","system":"urn:iso:std:iso:4217","value":0}},{"url":"https://bluebutton.cms.gov/assets/ig/StructureDefinition-bluebutton-inpatient-clm-pps-cptl-dsprprtnt-shr-amt-extension","valueMoney":{"code":"USD","system":"urn:iso:std:iso:4217","value":0}},{"url":"https://bluebutton.cms.gov/assets/ig/StructureDefinition-bluebutton-inpatient-clm-pps-cptl-excptn-amt-extension","valueMoney":{"code":"USD","system":"urn:iso:std:iso:4217","value":0}},{"url":"https://bluebutton.cms.gov/assets/ig/StructureDefinition-bluebutton-inpatient-clm-pps-cptl-fsp-amt-extension","valueMoney":{"code":"USD","system":"urn:iso:std:iso:4217","value":0}},{"url":"https://bluebutton.cms.gov/assets/ig/StructureDefinition-bluebutton-inpatient-clm-pps-cptl-ime-amt-extension","valueMoney":{"code":"USD","system":"urn:iso:std:iso:4217","value":400}},{"url":"https://bluebutton.cms.gov/assets/ig/StructureDefinition-bluebutton-inpatient-clm-pps-cptl-outlier-amt-extension","valueMoney":{"code":"USD","system":"urn:iso:std:iso:4217","value":0}},{"url":"https://bluebutton.cms.gov/assets/ig/StructureDefinition-bluebutton-inpatient-clm-pps-old-cptl-hld-hrmls-amt-extension","valueMoney":{"code":"USD","system":"urn:iso:std:iso:4217","value":0}},{"url":"https://bluebutton.cms.gov/assets/ig/StructureDefinition-bluebutton-inpatient-nch-drg-outlier-aprvd-pmt-amt-extension","valueMoney":{"code":"USD","system":"urn:iso:std:iso:4217","value":0}},{"url":"https://bluebutton.cms.gov/assets/ig/StructureDefinition-bluebutton-inpatient-nch-bene-blood-ddctbl-lblty-am-extension","valueMoney":{"code":"USD","system":"urn:iso:std:iso:4217","value":0}},{"url":"https://bluebutton.cms.gov/assets/ig/StructureDefinition-bluebutton-inpatient-clm-mdcr-non-pmt-rsn-cd-extension","valueCoding":{"code":"N","display":"All other reasons for non-payment","system":"https://bluebutton.cms.gov/assets/ig/CodeSystem-clm-mdcr-non-pmt-rsn-cd"}},{"url":"https://bluebutton.cms.gov/assets/ig/StructureDefinition-bluebutton-inpatient-prpayamt-extension","valueMoney":{"code":"USD","system":"urn:iso:std:iso:4217","value":0}},{"url":"https://bluebutton.cms.gov/assets/ig/StructureDefinition-bluebutton-inpatient-fi-num-extension","valueIdentifier":{"system":"https://bluebutton.cms.gov/assets/ig/CodeSystem-fi-num","value":"002000"}}],"id":"29008795-31f0-40a3-be63-27bcbd6e739f","identifier":[{"system":"https://bluebutton.cms.gov/resources/variables/clm_id","value":"1d063252-33a5-4f84-8d79-133c74adaab1"},{"system":"https://bluebutton.cms.gov/resources/identifier/claim-group","value":"99999999999"}],"insurance":{"coverage":{"reference":"#coverage"}},"item":[{"extension":[{"url":"https://bluebutton.cms.gov/assets/ig/StructureDefinition-bluebutton-inpatient-rev-cntr-ndc-qty-extension","valueQuantity":{"value":0}}],"locationCodeableConcept":{"coding":[{"code":"21","display":"Inpatient Hospital","system":"https://bluebutton.cms.gov/resources/variables/line_place_of_srvc_cd"}]},"sequence":1},{"adjudication":[{"amount":{"code":"USD","system":"urn:iso:std:iso:4217","value":2656.42},"category":{"coding":[{"code":"https://bluebutton.cms.gov/resources/variables/line_coinsrnc_amt","display":"Line Beneficiary Coinsurance Amount","system":"https://bluebutton.cms.gov/resources/codesystem/adjudication"}]}},{"amount":{"code":"USD","system":"urn:iso:std:iso:4217","value":10625.68},"category":{"coding":[{"code":"https://bluebutton.cms.gov/resources/variables/line_prvdr_pmt_amt","display":"Line Provider Payment Amount","system":"https://bluebutton.cms.gov/resources/codesystem/adjudication"}]}},{"amount":{"code":"USD","system":"urn:iso:std:iso:4217","value":13282.1},"category":{"coding":[{"code":"https://bluebutton.cms.gov/resources/variables/line_sbmtd_chrg_amt","display":"Line Submitted Charge Amount","system":"https://bluebutton.cms.gov/resources/codesystem/adjudication"}]}},{"amount":{"code":"USD","system":"urn:iso:std:iso:4217","value":13282.1},"category":{"coding":[{"code":"https://bluebutton.cms.gov/resources/variables/line_alowd_chrg_amt","display":"Line Allowed Charge Amount","system":"https://bluebutton.cms.gov/resources/codesystem/adjudication"}]}},{"amount":{"code":"USD","system":"urn:iso:std:iso:4217","value":0},"category":{"coding":[{"code":"https://bluebutton.cms.gov/resources/variables/line_bene_ptb_ddctbl_amt","display":"Line Beneficiary Part B Deductible Amount","system":"https://bluebutton.cms.gov/resources/codesystem/adjudication"}]}},{"category":{"coding":[{"code":"https://bluebutton.cms.gov/resources/variables/line_prcsg_ind_cd","display":"Line Processing Indicator Code","system":"https://bluebutton.cms.gov/resources/codesystem/adjudication"}]}}],"extension":[{"url":"https://bluebutton.cms.gov/assets/ig/StructureDefinition-bluebutton-inpatient-rev-cntr-ndc-qty-extension","valueQuantity":{"value":0}}],"locationCodeableConcept":{"coding":[{"code":"21","display":"Inpatient Hospital","system":"https://bluebutton.cms.gov/resources/variables/line_place_of_srvc_cd"}]},"sequence":2,"service":{"coding":[{"code":"180256009","system":"http://snomed.info/sct","version":"v1"}]}}],"meta":{"lastUpdated":"2019-04-09T09:59:23.104759+00:00","profile":["https://bluebutton.cms.gov/assets/ig/StructureDefinition-bluebutton-inpatient-claim"],"versionId":"MTU1NDgwMzk2MzEwNDc1OTAwMA"},"organization":{"identifier":{"value":"b1d44a9d-02af-4ad2-845a-0d262fdc836f"}},"patient":{"reference":"Patient/00bbc092-5868-40db-8eee-fe79d6a40e76"},"payment":{"amount":{"code":"USD","system":"urn:iso:std:iso:4217","value":10625.68}},"provider":{"identifier":{"value":"0d8a105b-bf25-4161-b635-3ea23d8eece3"}},"resourceType":"ExplanationOfBenefit","status":"active","totalCost":{"code":"USD","system":"urn:iso:std:iso:4217","value":13407.1},"type":{"coding":[{"code":"71","display":"Local carrier non-durable medical equipment, prosthetics, orthotics, and supplies (DMEPOS) claim","system":"https://bluebutton.cms.gov/resources/variables/nch_clm_type_cd"},{"code":"CARRIER","display":"EOB Type","system":"https://bluebutton.cms.gov/resources/codesystem/eob-type"},{"code":"professional","display":"Claim Type","system":"http://hl7.org/fhir/ex-claimtype"},{"code":"O","display":"Part B physician/supplier claim record (processed by local carriers; can include DMEPOS services)","system":"https://bluebutton.cms.gov/resources/variables/nch_near_line_rec_ident_cd"}]}}},{"resource":{"billablePeriod":{"end":"2013-08-26T20:49:52-04:00","start":"2012-08-26T20:49:52-04:00"},"careTeam":[{"provider":{"identifier":{"system":"http://hl7.org/fhir/sid/us-npi","value":"99999999"}},"role":{"coding":[{"code":"primary","display":"Primary Care Practitioner","system":"http://hl7.org/fhir/claimcareteamrole"}]},"sequence":1}],"claim":{"reference":"Claim/2070f006-ad7a-4d12-8c6f-f536b90f0765"},"contained":[{"id":"1","intent":"order","recipient":[{"identifier":{"system":"http://hl7.org/fhir/sid/us-npi","value":"99999999"}}],"requester":{"agent":{"identifier":{"system":"http://hl7.org/fhir/sid/us-npi","value":"99999999"}}},"resourceType":"ReferralRequest","status":"completed","subject":{"reference":"Patient/00bbc092-5868-40db-8eee-fe79d6a40e76"}},{"id":"coverage","resourceType":"Coverage","type":{"text":"medicaid"}}],"created":"2012-08-26T20:49:52-04:00","id":"2d07d64d-91aa-4cdf-8c0c-07401df39750","identifier":[{"system":"https://bluebutton.cms.gov/resources/variables/clm_id","value":"2070f006-ad7a-4d12-8c6f-f536b90f0765"},{"system":"https://bluebutton.cms.gov/resources/identifier/claim-group","value":"99999999999"}],"insurance":{"coverage":{"reference":"#coverage"}},"item":[{"category":{"coding":[{"code":"1","display":"Medical care","system":"https://bluebutton.cms.gov/resources/variables/line_cms_type_srvc_cd"}]},"encounter":[{"reference":"Encounter/2e52596f-888a-41e9-9395-fe582cc3e394"}],"locationCodeableConcept":{"coding":[{"code":"21","display":"Inpatient Hospital","system":"https://bluebutton.cms.gov/resources/variables/line_place_of_srvc_cd"}]},"sequence":1,"servicedPeriod":{"end":"2012-08-26T20:49:52-04:00","start":"2012-08-26T20:34:52-04:00"}},{"adjudication":[{"amount":{"code":"USD","system":"urn:iso:std:iso:4217","value":28.104000000000003},"category":{"coding":[{"code":"https://bluebutton.cms.gov/resources/variables/line_coinsrnc_amt","display":"Line Beneficiary Coinsurance Amount","system":"https://bluebutton.cms.gov/resources/codesystem/adjudication"}]}},{"amount":{"code":"USD","system":"urn:iso:std:iso:4217","value":112.41600000000001},"category":{"coding":[{"code":"https://bluebutton.cms.gov/resources/variables/line_prvdr_pmt_amt","display":"Line Provider Payment Amount","system":"https://bluebutton.cms.gov/resources/codesystem/adjudication"}]}},{"amount":{"code":"USD","system":"urn:iso:std:iso:4217","value":140.52},"category":{"coding":[{"code":"https://bluebutton.cms.gov/resources/variables/line_sbmtd_chrg_amt","display":"Line Submitted Charge Amount","system":"https://bluebutton.cms.gov/resources/codesystem/adjudication"}]}},{"amount":{"code":"USD","system":"urn:iso:std:iso:4217","value":140.52},"category":{"coding":[{"code":"https://bluebutton.cms.gov/resources/variables/line_alowd_chrg_amt","display":"Line Allowed Charge Amount","system":"https://bluebutton.cms.gov/resources/codesystem/adjudication"}]}},{"amount":{"code":"USD","system":"urn:iso:std:iso:4217","value":0},"category":{"coding":[{"code":"https://bluebutton.cms.gov/resources/variables/line_bene_ptb_ddctbl_amt","display":"Line Beneficiary Part B Deductible Amount","system":"https://bluebutton.cms.gov/resources/codesystem/adjudication"}]}},{"category":{"coding":[{"code":"https://bluebutton.cms.gov/resources/variables/line_prcsg_ind_cd","display":"Line Processing Indicator Code","system":"https://bluebutton.cms.gov/resources/codesystem/adjudication"}]},"reason":{"coding":[{"code":"A","display":"Allowed","system":"https://bluebutton.cms.gov/resources/variables/line_prcsg_ind_cd"}]}}],"category":{"coding":[{"code":"1","display":"Medical care","system":"https://bluebutton.cms.gov/resources/variables/line_cms_type_srvc_cd"}]},"informationLinkId":[1],"locationCodeableConcept":{"coding":[{"code":"21","display":"Inpatient Hospital","system":"https://bluebutton.cms.gov/resources/variables/line_place_of_srvc_cd"}]},"net":{"code":"USD","system":"urn:iso:std:iso:4217","value":140.52},"sequence":2,"servicedPeriod":{"end":"2012-08-26T20:49:52-04:00","start":"2012-08-26T20:34:52-04:00"}}],"meta":{"lastUpdated":"2019-04-09T09:59:23.110506+00:00","versionId":"MTU1NDgwMzk2MzExMDUwNjAwMA"},"organization":{"identifier":{"value":"b1d44a9d-02af-4ad2-845a-0d262fdc836f"}},"patient":{"reference":"Patient/00bbc092-5868-40db-8eee-fe79d6a40e76"},"payment":{"amount":{"code":"USD","system":"urn:iso:std:iso:4217","value":112.41600000000001}},"provider":{"identifier":{"value":"0d8a105b-bf25-4161-b635-3ea23d8eece3"}},"referral":{"reference":"#1"},"resourceType":"ExplanationOfBenefit","status":"active","totalCost":{"code":"USD","system":"urn:iso:std:iso:4217","value":265.52},"type":{"coding":[{"code":"71","display":"Local carrier non-durable medical equipment, prosthetics, orthotics, and supplies (DMEPOS) claim","system":"https://bluebutton.cms.gov/resources/variables/nch_clm_type_cd"},{"code":"CARRIER","display":"EOB Type","system":"https://bluebutton.cms.gov/resources/codesystem/eob-type"},{"code":"professional","display":"Claim Type","system":"http://hl7.org/fhir/ex-claimtype"},{"code":"O","display":"Part B physician/supplier claim record (processed by local carriers; can include DMEPOS services)","system":"https://bluebutton.cms.gov/resources/variables/nch_near_line_rec_ident_cd"}]}}},{"resource":{"billablePeriod":{"end":"2014-06-23T21:36:52-04:00","extension":[{"url":"https://bluebutton.cms.gov/assets/ig/StructureDefinition-bluebutton-inpatient-claim-query-cd-extension","valueCoding":{"code":"3","display":"Final Bill","system":"https://bluebutton.cms.gov/assets/ig/ValueSet-claim-query-cd"}}],"start":"2013-06-23T21:36:52-04:00"},"careTeam":[{"provider":{"identifier":{"system":"http://hl7.org/fhir/sid/us-npi","value":"99999999"}},"role":{"coding":[{"code":"primary","display":"Primary Care Practitioner","system":"http://hl7.org/fhir/claimcareteamrole"}]},"sequence":1}],"contained":[{"id":"coverage","resourceType":"Coverage","type":{"text":"medicaid"}}],"extension":[{"url":"https://bluebutton.cms.gov/assets/ig/StructureDefinition-bluebutton-inpatient-ime-op-clm-val-amt-extension","valueMoney":{"code":"USD","system":"urn:iso:std:iso:4217","value":400}},{"url":"https://bluebutton.cms.gov/assets/ig/StructureDefinition-bluebutton-inpatient-dsh-op-clm-val-amt-extension","valueMoney":{"code":"USD","system":"urn:iso:std:iso:4217","value":0}},{"url":"https://bluebutton.cms.gov/assets/ig/StructureDefinition-bluebutton-inpatient-clm-pass-thru-per-diem-amt-extension","valueMoney":{"code":"USD","system":"urn:iso:std:iso:4217","value":0}},{"url":"https://bluebutton.cms.gov/assets/ig/StructureDefinition-bluebutton-inpatient-nch-profnl-cmpnt-chrg-amt-extension","valueMoney":{"code":"USD","system":"urn:iso:std:iso:4217","value":0}},{"url":"https://bluebutton.cms.gov/assets/ig/StructureDefinition-bluebutton-inpatient-clm-tot-pps-cptl-amt-extension","valueMoney":{"code":"USD","system":"urn:iso:std:iso:4217","value":0}},{"url":"https://bluebutton.cms.gov/assets/ig/StructureDefinition-bluebutton-inpatient-nch-bene-ip-ddctbl-amt-extension","valueMoney":{"code":"USD","system":"urn:iso:std:iso:4217","value":0}},{"url":"https://bluebutton.cms.gov/assets/ig/StructureDefinition-bluebutton-inpatient-nch-bene-pta-coinsrnc-lblty-amt-extension","valueMoney":{"code":"USD","system":"urn:iso:std:iso:4217","value":0}},{"url":"https://bluebutton.cms.gov/assets/ig/StructureDefinition-bluebutton-inpatient-nch-ip-ncvrd-chrg-amt-extension","valueMoney":{"code":"USD","system":"urn:iso:std:iso:4217","value":0}},{"url":"https://bluebutton.cms.gov/assets/ig/StructureDefinition-bluebutton-inpatient-nch-ip-tot-ddctn-amt-extension","valueMoney":{"code":"USD","system":"urn:iso:std:iso:4217","value":0}},{"url":"https://bluebutton.cms.gov/assets/ig/StructureDefinition-bluebutton-inpatient-clm-pps-cptl-dsprprtnt-shr-amt-extension","valueMoney":{"code":"USD","system":"urn:iso:std:iso:4217","value":0}},{"url":"https://bluebutton.cms.gov/assets/ig/StructureDefinition-bluebutton-inpatient-clm-pps-cptl-excptn-amt-extension","valueMoney":{"code":"USD","system":"urn:iso:std:iso:4217","value":0}},{"url":"https://bluebutton.cms.gov/assets/ig/StructureDefinition-bluebutton-inpatient-clm-pps-cptl-fsp-amt-extension","valueMoney":{"code":"USD","system":"urn:iso:std:iso:4217","value":0}},{"url":"https://bluebutton.cms.gov/assets/ig/StructureDefinition-bluebutton-inpatient-clm-pps-cptl-ime-amt-extension","valueMoney":{"code":"USD","system":"urn:iso:std:iso:4217","value":400}},{"url":"https://bluebutton.cms.gov/assets/ig/StructureDefinition-bluebutton-inpatient-clm-pps-cptl-outlier-amt-extension","valueMoney":{"code":"USD","system":"urn:iso:std:iso:4217","value":0}},{"url":"https://bluebutton.cms.gov/assets/ig/StructureDefinition-bluebutton-inpatient-clm-pps-old-cptl-hld-hrmls-amt-extension","valueMoney":{"code":"USD","system":"urn:iso:std:iso:4217","value":0}},{"url":"https://bluebutton.cms.gov/assets/ig/StructureDefinition-bluebutton-inpatient-nch-drg-outlier-aprvd-pmt-amt-extension","valueMoney":{"code":"USD","system":"urn:iso:std:iso:4217","value":0}},{"url":"https://bluebutton.cms.gov/assets/ig/StructureDefinition-bluebutton-inpatient-nch-bene-blood-ddctbl-lblty-am-extension","valueMoney":{"code":"USD","system":"urn:iso:std:iso:4217","value":0}},{"url":"https://bluebutton.cms.gov/assets/ig/StructureDefinition-bluebutton-inpatient-clm-mdcr-non-pmt-rsn-cd-extension","valueCoding":{"code":"N","display":"All other reasons for non-payment","system":"https://bluebutton.cms.gov/assets/ig/CodeSystem-clm-mdcr-non-pmt-rsn-cd"}},{"url":"https://bluebutton.cms.gov/assets/ig/StructureDefinition-bluebutton-inpatient-prpayamt-extension","valueMoney":{"code":"USD","system":"urn:iso:std:iso:4217","value":0}},{"url":"https://bluebutton.cms.gov/assets/ig/StructureDefinition-bluebutton-inpatient-fi-num-extension","valueIdentifier":{"system":"https://bluebutton.cms.gov/assets/ig/CodeSystem-fi-num","value":"002000"}}],"id":"320cffc4-7325-4dd8-b68d-294c050f2f30","identifier":[{"system":"https://bluebutton.cms.gov/resources/variables/clm_id","value":"39b5bcb5-49e8-4f33-8f93-4e28590371db"},{"system":"https://bluebutton.cms.gov/resources/identifier/claim-group","value":"99999999999"}],"insurance":{"coverage":{"reference":"#coverage"}},"item":[{"extension":[{"url":"https://bluebutton.cms.gov/assets/ig/StructureDefinition-bluebutton-inpatient-rev-cntr-ndc-qty-extension","valueQuantity":{"value":0}}],"locationCodeableConcept":{"coding":[{"code":"21","display":"Inpatient Hospital","system":"https://bluebutton.cms.gov/resources/variables/line_place_of_srvc_cd"}]},"sequence":1},{"adjudication":[{"amount":{"code":"USD","system":"urn:iso:std:iso:4217","value":2762.938},"category":{"coding":[{"code":"https://bluebutton.cms.gov/resources/variables/line_coinsrnc_amt","display":"Line Beneficiary Coinsurance Amount","system":"https://bluebutton.cms.gov/resources/codesystem/adjudication"}]}},{"amount":{"code":"USD","system":"urn:iso:std:iso:4217","value":11051.752},"category":{"coding":[{"code":"https://bluebutton.cms.gov/resources/variables/line_prvdr_pmt_amt","display":"Line Provider Payment Amount","system":"https://bluebutton.cms.gov/resources/codesystem/adjudication"}]}},{"amount":{"code":"USD","system":"urn:iso:std:iso:4217","value":13814.69},"category":{"coding":[{"code":"https://bluebutton.cms.gov/resources/variables/line_sbmtd_chrg_amt","display":"Line Submitted Charge Amount","system":"https://bluebutton.cms.gov/resources/codesystem/adjudication"}]}},{"amount":{"code":"USD","system":"urn:iso:std:iso:4217","value":13814.69},"category":{"coding":[{"code":"https://bluebutton.cms.gov/resources/variables/line_alowd_chrg_amt","display":"Line Allowed Charge Amount","system":"https://bluebutton.cms.gov/resources/codesystem/adjudication"}]}},{"amount":{"code":"USD","system":"urn:iso:std:iso:4217","value":0},"category":{"coding":[{"code":"https://bluebutton.cms.gov/resources/variables/line_bene_ptb_ddctbl_amt","display":"Line Beneficiary Part B Deductible Amount","system":"https://bluebutton.cms.gov/resources/codesystem/adjudication"}]}},{"category":{"coding":[{"code":"https://bluebutton.cms.gov/resources/variables/line_prcsg_ind_cd","display":"Line Processing Indicator Code","system":"https://bluebutton.cms.gov/resources/codesystem/adjudication"}]}}],"extension":[{"url":"https://bluebutton.cms.gov/assets/ig/StructureDefinition-bluebutton-inpatient-rev-cntr-ndc-qty-extension","valueQuantity":{"value":0}}],"locationCodeableConcept":{"coding":[{"code":"21","display":"Inpatient Hospital","system":"https://bluebutton.cms.gov/resources/variables/line_place_of_srvc_cd"}]},"sequence":2,"service":{"coding":[{"code":"180256009","system":"http://snomed.info/sct","version":"v1"}]}}],"meta":{"lastUpdated":"2019-04-09T09:59:23.105476+00:00","profile":["https://bluebutton.cms.gov/assets/ig/StructureDefinition-bluebutton-inpatient-claim"],"versionId":"MTU1NDgwMzk2MzEwNTQ3NjAwMA"},"organization":{"identifier":{"value":"b1d44a9d-02af-4ad2-845a-0d262fdc836f"}},"patient":{"reference":"Patient/00bbc092-5868-40db-8eee-fe79d6a40e76"},"payment":{"amount":{"code":"USD","system":"urn:iso:std:iso:4217","value":11051.752}},"provider":{"identifier":{"value":"0d8a105b-bf25-4161-b635-3ea23d8eece3"}},"resourceType":"ExplanationOfBenefit","status":"active","totalCost":{"code":"USD","system":"urn:iso:std:iso:4217","value":13939.69},"type":{"coding":[{"code":"71","display":"Local carrier non-durable medical equipment, prosthetics, orthotics, and supplies (DMEPOS) claim","system":"https://bluebutton.cms.gov/resources/variables/nch_clm_type_cd"},{"code":"CARRIER","display":"EOB Type","system":"https://bluebutton.cms.gov/resources/codesystem/eob-type"},{"code":"professional","display":"Claim Type","system":"http://hl7.org/fhir/ex-claimtype"},{"code":"O","display":"Part B physician/supplier claim record (processed by local carriers; can include DMEPOS services)","system":"https://bluebutton.cms.gov/resources/variables/nch_near_line_rec_ident_cd"}]}}},{"resource":{"billablePeriod":{"end":"2013-09-02T21:44:52-04:00","extension":[{"url":"https://bluebutton.cms.gov/assets/ig/StructureDefinition-bluebutton-inpatient-claim-query-cd-extension","valueCoding":{"code":"3","display":"Final Bill","system":"https://bluebutton.cms.gov/assets/ig/ValueSet-claim-query-cd"}}],"start":"2012-09-02T21:44:52-04:00"},"careTeam":[{"provider":{"identifier":{"system":"http://hl7.org/fhir/sid/us-npi","value":"99999999"}},"role":{"coding":[{"code":"primary","display":"Primary Care Practitioner","system":"http://hl7.org/fhir/claimcareteamrole"}]},"sequence":1}],"contained":[{"id":"coverage","resourceType":"Coverage","type":{"text":"medicaid"}}],"extension":[{"url":"https://bluebutton.cms.gov/assets/ig/StructureDefinition-bluebutton-inpatient-ime-op-clm-val-amt-extension","valueMoney":{"code":"USD","system":"urn:iso:std:iso:4217","value":400}},{"url":"https://bluebutton.cms.gov/assets/ig/StructureDefinition-bluebutton-inpatient-dsh-op-clm-val-amt-extension","valueMoney":{"code":"USD","system":"urn:iso:std:iso:4217","value":0}},{"url":"https://bluebutton.cms.gov/assets/ig/StructureDefinition-bluebutton-inpatient-clm-pass-thru-per-diem-amt-extension","valueMoney":{"code":"USD","system":"urn:iso:std:iso:4217","value":0}},{"url":"https://bluebutton.cms.gov/assets/ig/StructureDefinition-bluebutton-inpatient-nch-profnl-cmpnt-chrg-amt-extension","valueMoney":{"code":"USD","system":"urn:iso:std:iso:4217","value":0}},{"url":"https://bluebutton.cms.gov/assets/ig/StructureDefinition-bluebutton-inpatient-clm-tot-pps-cptl-amt-extension","valueMoney":{"code":"USD","system":"urn:iso:std:iso:4217","value":0}},{"url":"https://bluebutton.cms.gov/assets/ig/StructureDefinition-bluebutton-inpatient-nch-bene-ip-ddctbl-amt-extension","valueMoney":{"code":"USD","system":"urn:iso:std:iso:4217","value":0}},{"url":"https://bluebutton.cms.gov/assets/ig/StructureDefinition-bluebutton-inpatient-nch-bene-pta-coinsrnc-lblty-amt-extension","valueMoney":{"code":"USD","system":"urn:iso:std:iso:4217","value":0}},{"url":"https://bluebutton.cms.gov/assets/ig/StructureDefinition-bluebutton-inpatient-nch-ip-ncvrd-chrg-amt-extension","valueMoney":{"code":"USD","system":"urn:iso:std:iso:4217","value":0}},{"url":"https://bluebutton.cms.gov/assets/ig/StructureDefinition-bluebutton-inpatient-nch-ip-tot-ddctn-amt-extension","valueMoney":{"code":"USD","system":"urn:iso:std:iso:4217","value":0}},{"url":"https://bluebutton.cms.gov/assets/ig/StructureDefinition-bluebutton-inpatient-clm-pps-cptl-dsprprtnt-shr-amt-extension","valueMoney":{"code":"USD","system":"urn:iso:std:iso:4217","value":0}},{"url":"https://bluebutton.cms.gov/assets/ig/StructureDefinition-bluebutton-inpatient-clm-pps-cptl-excptn-amt-extension","valueMoney":{"code":"USD","system":"urn:iso:std:iso:4217","value":0}},{"url":"https://bluebutton.cms.gov/assets/ig/StructureDefinition-bluebutton-inpatient-clm-pps-cptl-fsp-amt-extension","valueMoney":{"code":"USD","system":"urn:iso:std:iso:4217","value":0}},{"url":"https://bluebutton.cms.gov/assets/ig/StructureDefinition-bluebutton-inpatient-clm-pps-cptl-ime-amt-extension","valueMoney":{"code":"USD","system":"urn:iso:std:iso:4217","value":400}},{"url":"https://bluebutton.cms.gov/assets/ig/StructureDefinition-bluebutton-inpatient-clm-pps-cptl-outlier-amt-extension","valueMoney":{"code":"USD","system":"urn:iso:std:iso:4217","value":0}},{"url":"https://bluebutton.cms.gov/assets/ig/StructureDefinition-bluebutton-inpatient-clm-pps-old-cptl-hld-hrmls-amt-extension","valueMoney":{"code":"USD","system":"urn:iso:std:iso:4217","value":0}},{"url":"https://bluebutton.cms.gov/assets/ig/StructureDefinition-bluebutton-inpatient-nch-drg-outlier-aprvd-pmt-amt-extension","valueMoney":{"code":"USD","system":"urn:iso:std:iso:4217","value":0}},{"url":"https://bluebutton.cms.gov/assets/ig/StructureDefinition-bluebutton-inpatient-nch-bene-blood-ddctbl-lblty-am-extension","valueMoney":{"code":"USD","system":"urn:iso:std:iso:4217","value":0}},{"url":"https://bluebutton.cms.gov/assets/ig/StructureDefinition-bluebutton-inpatient-clm-mdcr-non-pmt-rsn-cd-extension","valueCoding":{"code":"N","display":"All other reasons for non-payment","system":"https://bluebutton.cms.gov/assets/ig/CodeSystem-clm-mdcr-non-pmt-rsn-cd"}},{"url":"https://bluebutton.cms.gov/assets/ig/StructureDefinition-bluebutton-inpatient-prpayamt-extension","valueMoney":{"code":"USD","system":"urn:iso:std:iso:4217","value":0}},{"url":"https://bluebutton.cms.gov/assets/ig/StructureDefinition-bluebutton-inpatient-fi-num-extension","valueIdentifier":{"system":"https://bluebutton.cms.gov/assets/ig/CodeSystem-fi-num","value":"002000"}}],"id":"3ad64bde-54b5-4ea6-ae97-fd6e518bef79","identifier":[{"system":"https://bluebutton.cms.gov/resources/variables/clm_id","value":"176bce66-d95f-4d6d-9a25-b915c0679547"},{"system":"https://bluebutton.cms.gov/resources/identifier/claim-group","value":"99999999999"}],"insurance":{"coverage":{"reference":"#coverage"}},"item":[{"extension":[{"url":"https://bluebutton.cms.gov/assets/ig/StructureDefinition-bluebutton-inpatient-rev-cntr-ndc-qty-extension","valueQuantity":{"value":0}}],"locationCodeableConcept":{"coding":[{"code":"21","display":"Inpatient Hospital","system":"https://bluebutton.cms.gov/resources/variables/line_place_of_srvc_cd"}]},"sequence":1},{"adjudication":[{"amount":{"code":"USD","system":"urn:iso:std:iso:4217","value":2353.18},"category":{"coding":[{"code":"https://bluebutton.cms.gov/resources/variables/line_coinsrnc_amt","display":"Line Beneficiary Coinsurance Amount","system":"https://bluebutton.cms.gov/resources/codesystem/adjudication"}]}},{"amount":{"code":"USD","system":"urn:iso:std:iso:4217","value":9412.72},"category":{"coding":[{"code":"https://bluebutton.cms.gov/resources/variables/line_prvdr_pmt_amt","display":"Line Provider Payment Amount","system":"https://bluebutton.cms.gov/resources/codesystem/adjudication"}]}},{"amount":{"code":"USD","system":"urn:iso:std:iso:4217","value":11765.9},"category":{"coding":[{"code":"https://bluebutton.cms.gov/resources/variables/line_sbmtd_chrg_amt","display":"Line Submitted Charge Amount","system":"https://bluebutton.cms.gov/resources/codesystem/adjudication"}]}},{"amount":{"code":"USD","system":"urn:iso:std:iso:4217","value":11765.9},"category":{"coding":[{"code":"https://bluebutton.cms.gov/resources/variables/line_alowd_chrg_amt","display":"Line Allowed Charge Amount","system":"https://bluebutton.cms.gov/resources/codesystem/adjudication"}]}},{"amount":{"code":"USD","system":"urn:iso:std:iso:4217","value":0},"category":{"coding":[{"code":"https://bluebutton.cms.gov/resources/variables/line_bene_ptb_ddctbl_amt","display":"Line Beneficiary Part B Deductible Amount","system":"https://bluebutton.cms.gov/resources/codesystem/adjudication"}]}},{"category":{"coding":[{"code":"https://bluebutton.cms.gov/resources/variables/line_prcsg_ind_cd","display":"Line Processing Indicator Code","system":"https://bluebutton.cms.gov/resources/codesystem/adjudication"}]}}],"extension":[{"url":"https://bluebutton.cms.gov/assets/ig/StructureDefinition-bluebutton-inpatient-rev-cntr-ndc-qty-extension","valueQuantity":{"value":0}}],"locationCodeableConcept":{"coding":[{"code":"21","display":"Inpatient Hospital","system":"https://bluebutton.cms.gov/resources/variables/line_place_of_srvc_cd"}]},"sequence":2,"service":{"coding":[{"code":"180256009","system":"http://snomed.info/sct","version":"v1"}]}}],"meta":{"lastUpdated":"2019-04-09T09:59:23.090451+00:00","profile":["https://bluebutton.cms.gov/assets/ig/StructureDefinition-bluebutton-inpatient-claim"],"versionId":"MTU1NDgwMzk2MzA5MDQ1MTAwMA"},"organization":{"identifier":{"value":"b1d44a9d-02af-4ad2-845a-0d262fdc836f"}},"patient":{"reference":"Patient/00bbc092-5868-40db-8eee-fe79d6a40e76"},"payment":{"amount":{"code":"USD","system":"urn:iso:std:iso:4217","value":9412.72}},"provider":{"identifier":{"value":"0d8a105b-bf25-4161-b635-3ea23d8eece3"}},"resourceType":"ExplanationOfBenefit","status":"active","totalCost":{"code":"USD","system":"urn:iso:std:iso:4217","value":11890.9},"type":{"coding":[{"code":"71","display":"Local carrier non-durable medical equipment, prosthetics, orthotics, and supplies (DMEPOS) claim","system":"https://bluebutton.cms.gov/resources/variables/nch_clm_type_cd"},{"code":"CARRIER","display":"EOB Type","system":"https://bluebutton.cms.gov/resources/codesystem/eob-type"},{"code":"professional","display":"Claim Type","system":"http://hl7.org/fhir/ex-claimtype"},{"code":"O","display":"Part B physician/supplier claim record (processed by local carriers; can include DMEPOS services)","system":"https://bluebutton.cms.gov/resources/variables/nch_near_line_rec_ident_cd"}]}}},{"resource":{"billablePeriod":{"end":"2013-08-12T21:04:52-04:00","extension":[{"url":"https://bluebutton.cms.gov/assets/ig/StructureDefinition-bluebutton-inpatient-claim-query-cd-extension","valueCoding":{"code":"3","display":"Final Bill","system":"https://bluebutton.cms.gov/assets/ig/ValueSet-claim-query-cd"}}],"start":"2012-08-12T21:04:52-04:00"},"careTeam":[{"provider":{"identifier":{"system":"http://hl7.org/fhir/sid/us-npi","value":"99999999"}},"role":{"coding":[{"code":"primary","display":"Primary Care Practitioner","system":"http://hl7.org/fhir/claimcareteamrole"}]},"sequence":1}],"contained":[{"id":"coverage","resourceType":"Coverage","type":{"text":"medicaid"}}],"extension":[{"url":"https://bluebutton.cms.gov/assets/ig/StructureDefinition-bluebutton-inpatient-ime-op-clm-val-amt-extension","valueMoney":{"code":"USD","system":"urn:iso:std:iso:4217","value":400}},{"url":"https://bluebutton.cms.gov/assets/ig/StructureDefinition-bluebutton-inpatient-dsh-op-clm-val-amt-extension","valueMoney":{"code":"USD","system":"urn:iso:std:iso:4217","value":0}},{"url":"https://bluebutton.cms.gov/assets/ig/StructureDefinition-bluebutton-inpatient-clm-pass-thru-per-diem-amt-extension","valueMoney":{"code":"USD","system":"urn:iso:std:iso:4217","value":0}},{"url":"https://bluebutton.cms.gov/assets/ig/StructureDefinition-bluebutton-inpatient-nch-profnl-cmpnt-chrg-amt-extension","valueMoney":{"code":"USD","system":"urn:iso:std:iso:4217","value":0}},{"url":"https://bluebutton.cms.gov/assets/ig/StructureDefinition-bluebutton-inpatient-clm-tot-pps-cptl-amt-extension","valueMoney":{"code":"USD","system":"urn:iso:std:iso:4217","value":0}},{"url":"https://bluebutton.cms.gov/assets/ig/StructureDefinition-bluebutton-inpatient-nch-bene-ip-ddctbl-amt-extension","valueMoney":{"code":"USD","system":"urn:iso:std:iso:4217","value":0}},{"url":"https://bluebutton.cms.gov/assets/ig/StructureDefinition-bluebutton-inpatient-nch-bene-pta-coinsrnc-lblty-amt-extension","valueMoney":{"code":"USD","system":"urn:iso:std:iso:4217","value":0}},{"url":"https://bluebutton.cms.gov/assets/ig/StructureDefinition-bluebutton-inpatient-nch-ip-ncvrd-chrg-amt-extension","valueMoney":{"code":"USD","system":"urn:iso:std:iso:4217","value":0}},{"url":"https://bluebutton.cms.gov/assets/ig/StructureDefinition-bluebutton-inpatient-nch-ip-tot-ddctn-amt-extension","valueMoney":{"code":"USD","system":"urn:iso:std:iso:4217","value":0}},{"url":"https://bluebutton.cms.gov/assets/ig/StructureDefinition-bluebutton-inpatient-clm-pps-cptl-dsprprtnt-shr-amt-extension","valueMoney":{"code":"USD","system":"urn:iso:std:iso:4217","value":0}},{"url":"https://bluebutton.cms.gov/assets/ig/StructureDefinition-bluebutton-inpatient-clm-pps-cptl-excptn-amt-extension","valueMoney":{"code":"USD","system":"urn:iso:std:iso:4217","value":0}},{"url":"https://bluebutton.cms.gov/assets/ig/StructureDefinition-bluebutton-inpatient-clm-pps-cptl-fsp-amt-extension","valueMoney":{"code":"USD","system":"urn:iso:std:iso:4217","value":0}},{"url":"https://bluebutton.cms.gov/assets/ig/StructureDefinition-bluebutton-inpatient-clm-pps-cptl-ime-amt-extension","valueMoney":{"code":"USD","system":"urn:iso:std:iso:4217","value":400}},{"url":"https://bluebutton.cms.gov/assets/ig/StructureDefinition-bluebutton-inpatient-clm-pps-cptl-outlier-amt-extension","valueMoney":{"code":"USD","system":"urn:iso:std:iso:4217","value":0}},{"url":"https://bluebutton.cms.gov/assets/ig/StructureDefinition-bluebutton-inpatient-clm-pps-old-cptl-hld-hrmls-amt-extension","valueMoney":{"code":"USD","system":"urn:iso:std:iso:4217","value":0}},{"url":"https://bluebutton.cms.gov/assets/ig/StructureDefinition-bluebutton-inpatient-nch-drg-outlier-aprvd-pmt-amt-extension","valueMoney":{"code":"USD","system":"urn:iso:std:iso:4217","value":0}},{"url":"https://bluebutton.cms.gov/assets/ig/StructureDefinition-bluebutton-inpatient-nch-bene-blood-ddctbl-lblty-am-extension","valueMoney":{"code":"USD","system":"urn:iso:std:iso:4217","value":0}},{"url":"https://bluebutton.cms.gov/assets/ig/StructureDefinition-bluebutton-inpatient-clm-mdcr-non-pmt-rsn-cd-extension","valueCoding":{"code":"N","display":"All other reasons for non-payment","system":"https://bluebutton.cms.gov/assets/ig/CodeSystem-clm-mdcr-non-pmt-rsn-cd"}},{"url":"https://bluebutton.cms.gov/assets/ig/StructureDefinition-bluebutton-inpatient-prpayamt-extension","valueMoney":{"code":"USD","system":"urn:iso:std:iso:4217","value":0}},{"url":"https://bluebutton.cms.gov/assets/ig/StructureDefinition-bluebutton-inpatient-fi-num-extension","valueIdentifier":{"system":"https://bluebutton.cms.gov/assets/ig/CodeSystem-fi-num","value":"002000"}}],"id":"3bbe1745-53ab-448d-9af5-63964c1caa68","identifier":[{"system":"https://bluebutton.cms.gov/resources/variables/clm_id","value":"19d1399f-655b-44cf-af08-86a4f6b27f57"},{"system":"https://bluebutton.cms.gov/resources/identifier/claim-group","value":"99999999999"}],"insurance":{"coverage":{"reference":"#coverage"}},"item":[{"extension":[{"url":"https://bluebutton.cms.gov/assets/ig/StructureDefinition-bluebutton-inpatient-rev-cntr-ndc-qty-extension","valueQuantity":{"value":0}}],"locationCodeableConcept":{"coding":[{"code":"21","display":"Inpatient Hospital","system":"https://bluebutton.cms.gov/resources/variables/line_place_of_srvc_cd"}]},"sequence":1},{"adjudication":[{"amount":{"code":"USD","system":"urn:iso:std:iso:4217","value":3519.536},"category":{"coding":[{"code":"https://bluebutton.cms.gov/resources/variables/line_coinsrnc_amt","display":"Line Beneficiary Coinsurance Amount","system":"https://bluebutton.cms.gov/resources/codesystem/adjudication"}]}},{"amount":{"code":"USD","system":"urn:iso:std:iso:4217","value":14078.144},"category":{"coding":[{"code":"https://bluebutton.cms.gov/resources/variables/line_prvdr_pmt_amt","display":"Line Provider Payment Amount","system":"https://bluebutton.cms.gov/resources/codesystem/adjudication"}]}},{"amount":{"code":"USD","system":"urn:iso:std:iso:4217","value":17597.68},"category":{"coding":[{"code":"https://bluebutton.cms.gov/resources/variables/line_sbmtd_chrg_amt","display":"Line Submitted Charge Amount","system":"https://bluebutton.cms.gov/resources/codesystem/adjudication"}]}},{"amount":{"code":"USD","system":"urn:iso:std:iso:4217","value":17597.68},"category":{"coding":[{"code":"https://bluebutton.cms.gov/resources/variables/line_alowd_chrg_amt","display":"Line Allowed Charge Amount","system":"https://bluebutton.cms.gov/resources/codesystem/adjudication"}]}},{"amount":{"code":"USD","system":"urn:iso:std:iso:4217","value":0},"category":{"coding":[{"code":"https://bluebutton.cms.gov/resources/variables/line_bene_ptb_ddctbl_amt","display":"Line Beneficiary Part B Deductible Amount","system":"https://bluebutton.cms.gov/resources/codesystem/adjudication"}]}},{"category":{"coding":[{"code":"https://bluebutton.cms.gov/resources/variables/line_prcsg_ind_cd","display":"Line Processing Indicator Code","system":"https://bluebutton.cms.gov/resources/codesystem/adjudication"}]}}],"extension":[{"url":"https://bluebutton.cms.gov/assets/ig/StructureDefinition-bluebutton-inpatient-rev-cntr-ndc-qty-extension","valueQuantity":{"value":0}}],"locationCodeableConcept":{"coding":[{"code":"21","display":"Inpatient Hospital","system":"https://bluebutton.cms.gov/resources/variables/line_place_of_srvc_cd"}]},"sequence":2,"service":{"coding":[{"code":"180256009","system":"http://snomed.info/sct","version":"v1"}]}}],"meta":{"lastUpdated":"2019-04-09T09:59:23.097188+00:00","profile":["https://bluebutton.cms.gov/assets/ig/StructureDefinition-bluebutton-inpatient-claim"],"versionId":"MTU1NDgwMzk2MzA5NzE4ODAwMA"},"organization":{"identifier":{"value":"b1d44a9d-02af-4ad2-845a-0d262fdc836f"}},"patient":{"reference":"Patient/00bbc092-5868-40db-8eee-fe79d6a40e76"},"payment":{"amount":{"code":"USD","system":"urn:iso:std:iso:4217","value":14078.144}},"provider":{"identifier":{"value":"0d8a105b-bf25-4161-b635-3ea23d8eece3"}},"resourceType":"ExplanationOfBenefit","status":"active","totalCost":{"code":"USD","system":"urn:iso:std:iso:4217","value":17722.68},"type":{"coding":[{"code":"71","display":"Local carrier non-durable medical equipment, prosthetics, orthotics, and supplies (DMEPOS) claim","system":"https://bluebutton.cms.gov/resources/variables/nch_clm_type_cd"},{"code":"CARRIER","display":"EOB Type","system":"https://bluebutton.cms.gov/resources/codesystem/eob-type"},{"code":"professional","display":"Claim Type","system":"http://hl7.org/fhir/ex-claimtype"},{"code":"O","display":"Part B physician/supplier claim record (processed by local carriers; can include DMEPOS services)","system":"https://bluebutton.cms.gov/resources/variables/nch_near_line_rec_ident_cd"}]}}},{"resource":{"billablePeriod":{"end":"2014-10-06T21:11:52-04:00","extension":[{"url":"https://bluebutton.cms.gov/assets/ig/StructureDefinition-bluebutton-inpatient-claim-query-cd-extension","valueCoding":{"code":"3","display":"Final Bill","system":"https://bluebutton.cms.gov/assets/ig/ValueSet-claim-query-cd"}}],"start":"2013-10-06T21:11:52-04:00"},"careTeam":[{"provider":{"identifier":{"system":"http://hl7.org/fhir/sid/us-npi","value":"99999999"}},"role":{"coding":[{"code":"primary","display":"Primary Care Practitioner","system":"http://hl7.org/fhir/claimcareteamrole"}]},"sequence":1}],"contained":[{"id":"coverage","resourceType":"Coverage","type":{"text":"medicaid"}}],"extension":[{"url":"https://bluebutton.cms.gov/assets/ig/StructureDefinition-bluebutton-inpatient-ime-op-clm-val-amt-extension","valueMoney":{"code":"USD","system":"urn:iso:std:iso:4217","value":400}},{"url":"https://bluebutton.cms.gov/assets/ig/StructureDefinition-bluebutton-inpatient-dsh-op-clm-val-amt-extension","valueMoney":{"code":"USD","system":"urn:iso:std:iso:4217","value":0}},{"url":"https://bluebutton.cms.gov/assets/ig/StructureDefinition-bluebutton-inpatient-clm-pass-thru-per-diem-amt-extension","valueMoney":{"code":"USD","system":"urn:iso:std:iso:4217","value":0}},{"url":"https://bluebutton.cms.gov/assets/ig/StructureDefinition-bluebutton-inpatient-nch-profnl-cmpnt-chrg-amt-extension","valueMoney":{"code":"USD","system":"urn:iso:std:iso:4217","value":0}},{"url":"https://bluebutton.cms.gov/assets/ig/StructureDefinition-bluebutton-inpatient-clm-tot-pps-cptl-amt-extension","valueMoney":{"code":"USD","system":"urn:iso:std:iso:4217","value":0}},{"url":"https://bluebutton.cms.gov/assets/ig/StructureDefinition-bluebutton-inpatient-nch-bene-ip-ddctbl-amt-extension","valueMoney":{"code":"USD","system":"urn:iso:std:iso:4217","value":0}},{"url":"https://bluebutton.cms.gov/assets/ig/StructureDefinition-bluebutton-inpatient-nch-bene-pta-coinsrnc-lblty-amt-extension","valueMoney":{"code":"USD","system":"urn:iso:std:iso:4217","value":0}},{"url":"https://bluebutton.cms.gov/assets/ig/StructureDefinition-bluebutton-inpatient-nch-ip-ncvrd-chrg-amt-extension","valueMoney":{"code":"USD","system":"urn:iso:std:iso:4217","value":0}},{"url":"https://bluebutton.cms.gov/assets/ig/StructureDefinition-bluebutton-inpatient-nch-ip-tot-ddctn-amt-extension","valueMoney":{"code":"USD","system":"urn:iso:std:iso:4217","value":0}},{"url":"https://bluebutton.cms.gov/assets/ig/StructureDefinition-bluebutton-inpatient-clm-pps-cptl-dsprprtnt-shr-amt-extension","valueMoney":{"code":"USD","system":"urn:iso:std:iso:4217","value":0}},{"url":"https://bluebutton.cms.gov/assets/ig/StructureDefinition-bluebutton-inpatient-clm-pps-cptl-excptn-amt-extension","valueMoney":{"code":"USD","system":"urn:iso:std:iso:4217","value":0}},{"url":"https://bluebutton.cms.gov/assets/ig/StructureDefinition-bluebutton-inpatient-clm-pps-cptl-fsp-amt-extension","valueMoney":{"code":"USD","system":"urn:iso:std:iso:4217","value":0}},{"url":"https://bluebutton.cms.gov/assets/ig/StructureDefinition-bluebutton-inpatient-clm-pps-cptl-ime-amt-extension","valueMoney":{"code":"USD","system":"urn:iso:std:iso:4217","value":400}},{"url":"https://bluebutton.cms.gov/assets/ig/StructureDefinition-bluebutton-inpatient-clm-pps-cptl-outlier-amt-extension","valueMoney":{"code":"USD","system":"urn:iso:std:iso:4217","value":0}},{"url":"https://bluebutton.cms.gov/assets/ig/StructureDefinition-bluebutton-inpatient-clm-pps-old-cptl-hld-hrmls-amt-extension","valueMoney":{"code":"USD","system":"urn:iso:std:iso:4217","value":0}},{"url":"https://bluebutton.cms.gov/assets/ig/StructureDefinition-bluebutton-inpatient-nch-drg-outlier-aprvd-pmt-amt-extension","valueMoney":{"code":"USD","system":"urn:iso:std:iso:4217","value":0}},{"url":"https://bluebutton.cms.gov/assets/ig/StructureDefinition-bluebutton-inpatient-nch-bene-blood-ddctbl-lblty-am-extension","valueMoney":{"code":"USD","system":"urn:iso:std:iso:4217","value":0}},{"url":"https://bluebutton.cms.gov/assets/ig/StructureDefinition-bluebutton-inpatient-clm-mdcr-non-pmt-rsn-cd-extension","valueCoding":{"code":"N","display":"All other reasons for non-payment","system":"https://bluebutton.cms.gov/assets/ig/CodeSystem-clm-mdcr-non-pmt-rsn-cd"}},{"url":"https://bluebutton.cms.gov/assets/ig/StructureDefinition-bluebutton-inpatient-prpayamt-extension","valueMoney":{"code":"USD","system":"urn:iso:std:iso:4217","value":0}},{"url":"https://bluebutton.cms.gov/assets/ig/StructureDefinition-bluebutton-inpatient-fi-num-extension","valueIdentifier":{"system":"https://bluebutton.cms.gov/assets/ig/CodeSystem-fi-num","value":"002000"}}],"id":"3bf12d34-ad16-41b5-a75f-5982368bf609","identifier":[{"system":"https://bluebutton.cms.gov/resources/variables/clm_id","value":"8a530825-3871-4602-96bb-026a5c46d649"},{"system":"https://bluebutton.cms.gov/resources/identifier/claim-group","value":"99999999999"}],"insurance":{"coverage":{"reference":"#coverage"}},"item":[{"extension":[{"url":"https://bluebutton.cms.gov/assets/ig/StructureDefinition-bluebutton-inpatient-rev-cntr-ndc-qty-extension","valueQuantity":{"value":0}}],"locationCodeableConcept":{"coding":[{"code":"21","display":"Inpatient Hospital","system":"https://bluebutton.cms.gov/resources/variables/line_place_of_srvc_cd"}]},"sequence":1},{"adjudication":[{"amount":{"code":"USD","system":"urn:iso:std:iso:4217","value":4011.8720000000003},"category":{"coding":[{"code":"https://bluebutton.cms.gov/resources/variables/line_coinsrnc_amt","display":"Line Beneficiary Coinsurance Amount","system":"https://bluebutton.cms.gov/resources/codesystem/adjudication"}]}},{"amount":{"code":"USD","system":"urn:iso:std:iso:4217","value":16047.488000000001},"category":{"coding":[{"code":"https://bluebutton.cms.gov/resources/variables/line_prvdr_pmt_amt","display":"Line Provider Payment Amount","system":"https://bluebutton.cms.gov/resources/codesystem/adjudication"}]}},{"amount":{"code":"USD","system":"urn:iso:std:iso:4217","value":20059.36},"category":{"coding":[{"code":"https://bluebutton.cms.gov/resources/variables/line_sbmtd_chrg_amt","display":"Line Submitted Charge Amount","system":"https://bluebutton.cms.gov/resources/codesystem/adjudication"}]}},{"amount":{"code":"USD","system":"urn:iso:std:iso:4217","value":20059.36},"category":{"coding":[{"code":"https://bluebutton.cms.gov/resources/variables/line_alowd_chrg_amt","display":"Line Allowed Charge Amount","system":"https://bluebutton.cms.gov/resources/codesystem/adjudication"}]}},{"amount":{"code":"USD","system":"urn:iso:std:iso:4217","value":0},"category":{"coding":[{"code":"https://bluebutton.cms.gov/resources/variables/line_bene_ptb_ddctbl_amt","display":"Line Beneficiary Part B Deductible Amount","system":"https://bluebutton.cms.gov/resources/codesystem/adjudication"}]}},{"category":{"coding":[{"code":"https://bluebutton.cms.gov/resources/variables/line_prcsg_ind_cd","display":"Line Processing Indicator Code","system":"https://bluebutton.cms.gov/resources/codesystem/adjudication"}]}}],"extension":[{"url":"https://bluebutton.cms.gov/assets/ig/StructureDefinition-bluebutton-inpatient-rev-cntr-ndc-qty-extension","valueQuantity":{"value":0}}],"locationCodeableConcept":{"coding":[{"code":"21","display":"Inpatient Hospital","system":"https://bluebutton.cms.gov/resources/variables/line_place_of_srvc_cd"}]},"sequence":2,"service":{"coding":[{"code":"180256009","system":"http://snomed.info/sct","version":"v1"}]}}],"meta":{"lastUpdated":"2019-04-09T09:59:24.120931+00:00","profile":["https://bluebutton.cms.gov/assets/ig/StructureDefinition-bluebutton-inpatient-claim"],"versionId":"MTU1NDgwMzk2NDEyMDkzMTAwMA"},"organization":{"identifier":{"value":"b1d44a9d-02af-4ad2-845a-0d262fdc836f"}},"patient":{"reference":"Patient/00bbc092-5868-40db-8eee-fe79d6a40e76"},"payment":{"amount":{"code":"USD","system":"urn:iso:std:iso:4217","value":16047.488000000001}},"provider":{"identifier":{"value":"0d8a105b-bf25-4161-b635-3ea23d8eece3"}},"resourceType":"ExplanationOfBenefit","status":"active","totalCost":{"code":"USD","system":"urn:iso:std:iso:4217","value":20184.36},"type":{"coding":[{"code":"71","display":"Local carrier non-durable medical equipment, prosthetics, orthotics, and supplies (DMEPOS) claim","system":"https://bluebutton.cms.gov/resources/variables/nch_clm_type_cd"},{"code":"CARRIER","display":"EOB Type","system":"https://bluebutton.cms.gov/resources/codesystem/eob-type"},{"code":"professional","display":"Claim Type","system":"http://hl7.org/fhir/ex-claimtype"},{"code":"O","display":"Part B physician/supplier claim record (processed by local carriers; can include DMEPOS services)","system":"https://bluebutton.cms.gov/resources/variables/nch_near_line_rec_ident_cd"}]}}},{"resource":{"billablePeriod":{"end":"2013-12-16T20:08:52-05:00","extension":[{"url":"https://bluebutton.cms.gov/assets/ig/StructureDefinition-bluebutton-inpatient-claim-query-cd-extension","valueCoding":{"code":"3","display":"Final Bill","system":"https://bluebutton.cms.gov/assets/ig/ValueSet-claim-query-cd"}}],"start":"2012-12-16T20:08:52-05:00"},"careTeam":[{"provider":{"identifier":{"system":"http://hl7.org/fhir/sid/us-npi","value":"99999999"}},"role":{"coding":[{"code":"primary","display":"Primary Care Practitioner","system":"http://hl7.org/fhir/claimcareteamrole"}]},"sequence":1}],"contained":[{"id":"coverage","resourceType":"Coverage","type":{"text":"medicaid"}}],"extension":[{"url":"https://bluebutton.cms.gov/assets/ig/StructureDefinition-bluebutton-inpatient-ime-op-clm-val-amt-extension","valueMoney":{"code":"USD","system":"urn:iso:std:iso:4217","value":400}},{"url":"https://bluebutton.cms.gov/assets/ig/StructureDefinition-bluebutton-inpatient-dsh-op-clm-val-amt-extension","valueMoney":{"code":"USD","system":"urn:iso:std:iso:4217","value":0}},{"url":"https://bluebutton.cms.gov/assets/ig/StructureDefinition-bluebutton-inpatient-clm-pass-thru-per-diem-amt-extension","valueMoney":{"code":"USD","system":"urn:iso:std:iso:4217","value":0}},{"url":"https://bluebutton.cms.gov/assets/ig/StructureDefinition-bluebutton-inpatient-nch-profnl-cmpnt-chrg-amt-extension","valueMoney":{"code":"USD","system":"urn:iso:std:iso:4217","value":0}},{"url":"https://bluebutton.cms.gov/assets/ig/StructureDefinition-bluebutton-inpatient-clm-tot-pps-cptl-amt-extension","valueMoney":{"code":"USD","system":"urn:iso:std:iso:4217","value":0}},{"url":"https://bluebutton.cms.gov/assets/ig/StructureDefinition-bluebutton-inpatient-nch-bene-ip-ddctbl-amt-extension","valueMoney":{"code":"USD","system":"urn:iso:std:iso:4217","value":0}},{"url":"https://bluebutton.cms.gov/assets/ig/StructureDefinition-bluebutton-inpatient-nch-bene-pta-coinsrnc-lblty-amt-extension","valueMoney":{"code":"USD","system":"urn:iso:std:iso:4217","value":0}},{"url":"https://bluebutton.cms.gov/assets/ig/StructureDefinition-bluebutton-inpatient-nch-ip-ncvrd-chrg-amt-extension","valueMoney":{"code":"USD","system":"urn:iso:std:iso:4217","value":0}},{"url":"https://bluebutton.cms.gov/assets/ig/StructureDefinition-bluebutton-inpatient-nch-ip-tot-ddctn-amt-extension","valueMoney":{"code":"USD","system":"urn:iso:std:iso:4217","value":0}},{"url":"https://bluebutton.cms.gov/assets/ig/StructureDefinition-bluebutton-inpatient-clm-pps-cptl-dsprprtnt-shr-amt-extension","valueMoney":{"code":"USD","system":"urn:iso:std:iso:4217","value":0}},{"url":"https://bluebutton.cms.gov/assets/ig/StructureDefinition-bluebutton-inpatient-clm-pps-cptl-excptn-amt-extension","valueMoney":{"code":"USD","system":"urn:iso:std:iso:4217","value":0}},{"url":"https://bluebutton.cms.gov/assets/ig/StructureDefinition-bluebutton-inpatient-clm-pps-cptl-fsp-amt-extension","valueMoney":{"code":"USD","system":"urn:iso:std:iso:4217","value":0}},{"url":"https://bluebutton.cms.gov/assets/ig/StructureDefinition-bluebutton-inpatient-clm-pps-cptl-ime-amt-extension","valueMoney":{"code":"USD","system":"urn:iso:std:iso:4217","value":400}},{"url":"https://bluebutton.cms.gov/assets/ig/StructureDefinition-bluebutton-inpatient-clm-pps-cptl-outlier-amt-extension","valueMoney":{"code":"USD","system":"urn:iso:std:iso:4217","value":0}},{"url":"https://bluebutton.cms.gov/assets/ig/StructureDefinition-bluebutton-inpatient-clm-pps-old-cptl-hld-hrmls-amt-extension","valueMoney":{"code":"USD","system":"urn:iso:std:iso:4217","value":0}},{"url":"https://bluebutton.cms.gov/assets/ig/StructureDefinition-bluebutton-inpatient-nch-drg-outlier-aprvd-pmt-amt-extension","valueMoney":{"code":"USD","system":"urn:iso:std:iso:4217","value":0}},{"url":"https://bluebutton.cms.gov/assets/ig/StructureDefinition-bluebutton-inpatient-nch-bene-blood-ddctbl-lblty-am-extension","valueMoney":{"code":"USD","system":"urn:iso:std:iso:4217","value":0}},{"url":"https://bluebutton.cms.gov/assets/ig/StructureDefinition-bluebutton-inpatient-clm-mdcr-non-pmt-rsn-cd-extension","valueCoding":{"code":"N","display":"All other reasons for non-payment","system":"https://bluebutton.cms.gov/assets/ig/CodeSystem-clm-mdcr-non-pmt-rsn-cd"}},{"url":"https://bluebutton.cms.gov/assets/ig/StructureDefinition-bluebutton-inpatient-prpayamt-extension","valueMoney":{"code":"USD","system":"urn:iso:std:iso:4217","value":0}},{"url":"https://bluebutton.cms.gov/assets/ig/StructureDefinition-bluebutton-inpatient-fi-num-extension","valueIdentifier":{"system":"https://bluebutton.cms.gov/assets/ig/CodeSystem-fi-num","value":"002000"}}],"id":"3c7d4258-d118-49f7-baff-ac4bd208ba11","identifier":[{"system":"https://bluebutton.cms.gov/resources/variables/clm_id","value":"8c25f028-58ba-476e-8067-322256aad0f7"},{"system":"https://bluebutton.cms.gov/resources/identifier/claim-group","value":"99999999999"}],"insurance":{"coverage":{"reference":"#coverage"}},"item":[{"extension":[{"url":"https://bluebutton.cms.gov/assets/ig/StructureDefinition-bluebutton-inpatient-rev-cntr-ndc-qty-extension","valueQuantity":{"value":0}}],"locationCodeableConcept":{"coding":[{"code":"21","display":"Inpatient Hospital","system":"https://bluebutton.cms.gov/resources/variables/line_place_of_srvc_cd"}]},"sequence":1},{"adjudication":[{"amount":{"code":"USD","system":"urn:iso:std:iso:4217","value":3655.4220000000005},"category":{"coding":[{"code":"https://bluebutton.cms.gov/resources/variables/line_coinsrnc_amt","display":"Line Beneficiary Coinsurance Amount","system":"https://bluebutton.cms.gov/resources/codesystem/adjudication"}]}},{"amount":{"code":"USD","system":"urn:iso:std:iso:4217","value":14621.688000000002},"category":{"coding":[{"code":"https://bluebutton.cms.gov/resources/variables/line_prvdr_pmt_amt","display":"Line Provider Payment Amount","system":"https://bluebutton.cms.gov/resources/codesystem/adjudication"}]}},{"amount":{"code":"USD","system":"urn:iso:std:iso:4217","value":18277.11},"category":{"coding":[{"code":"https://bluebutton.cms.gov/resources/variables/line_sbmtd_chrg_amt","display":"Line Submitted Charge Amount","system":"https://bluebutton.cms.gov/resources/codesystem/adjudication"}]}},{"amount":{"code":"USD","system":"urn:iso:std:iso:4217","value":18277.11},"category":{"coding":[{"code":"https://bluebutton.cms.gov/resources/variables/line_alowd_chrg_amt","display":"Line Allowed Charge Amount","system":"https://bluebutton.cms.gov/resources/codesystem/adjudication"}]}},{"amount":{"code":"USD","system":"urn:iso:std:iso:4217","value":0},"category":{"coding":[{"code":"https://bluebutton.cms.gov/resources/variables/line_bene_ptb_ddctbl_amt","display":"Line Beneficiary Part B Deductible Amount","system":"https://bluebutton.cms.gov/resources/codesystem/adjudication"}]}},{"category":{"coding":[{"code":"https://bluebutton.cms.gov/resources/variables/line_prcsg_ind_cd","display":"Line Processing Indicator Code","system":"https://bluebutton.cms.gov/resources/codesystem/adjudication"}]}}],"extension":[{"url":"https://bluebutton.cms.gov/assets/ig/StructureDefinition-bluebutton-inpatient-rev-cntr-ndc-qty-extension","valueQuantity":{"value":0}}],"locationCodeableConcept":{"coding":[{"code":"21","display":"Inpatient Hospital","system":"https://bluebutton.cms.gov/resources/variables/line_place_of_srvc_cd"}]},"sequence":2,"service":{"coding":[{"code":"180256009","system":"http://snomed.info/sct","version":"v1"}]}}],"meta":{"lastUpdated":"2019-04-09T09:59:23.097218+00:00","profile":["https://bluebutton.cms.gov/assets/ig/StructureDefinition-bluebutton-inpatient-claim"],"versionId":"MTU1NDgwMzk2MzA5NzIxODAwMA"},"organization":{"identifier":{"value":"b1d44a9d-02af-4ad2-845a-0d262fdc836f"}},"patient":{"reference":"Patient/00bbc092-5868-40db-8eee-fe79d6a40e76"},"payment":{"amount":{"code":"USD","system":"urn:iso:std:iso:4217","value":14621.688000000002}},"provider":{"identifier":{"value":"0d8a105b-bf25-4161-b635-3ea23d8eece3"}},"resourceType":"ExplanationOfBenefit","status":"active","totalCost":{"code":"USD","system":"urn:iso:std:iso:4217","value":18402.11},"type":{"coding":[{"code":"71","display":"Local carrier non-durable medical equipment, prosthetics, orthotics, and supplies (DMEPOS) claim","system":"https://bluebutton.cms.gov/resources/variables/nch_clm_type_cd"},{"code":"CARRIER","display":"EOB Type","system":"https://bluebutton.cms.gov/resources/codesystem/eob-type"},{"code":"professional","display":"Claim Type","system":"http://hl7.org/fhir/ex-claimtype"},{"code":"O","display":"Part B physician/supplier claim record (processed by local carriers; can include DMEPOS services)","system":"https://bluebutton.cms.gov/resources/variables/nch_near_line_rec_ident_cd"}]}}},{"resource":{"billablePeriod":{"end":"2015-05-25T21:47:52-04:00","extension":[{"url":"https://bluebutton.cms.gov/assets/ig/StructureDefinition-bluebutton-inpatient-claim-query-cd-extension","valueCoding":{"code":"3","display":"Final Bill","system":"https://bluebutton.cms.gov/assets/ig/ValueSet-claim-query-cd"}}],"start":"2014-05-25T21:47:52-04:00"},"careTeam":[{"provider":{"identifier":{"system":"http://hl7.org/fhir/sid/us-npi","value":"99999999"}},"role":{"coding":[{"code":"primary","display":"Primary Care Practitioner","system":"http://hl7.org/fhir/claimcareteamrole"}]},"sequence":1}],"contained":[{"id":"coverage","resourceType":"Coverage","type":{"text":"medicaid"}}],"extension":[{"url":"https://bluebutton.cms.gov/assets/ig/StructureDefinition-bluebutton-inpatient-ime-op-clm-val-amt-extension","valueMoney":{"code":"USD","system":"urn:iso:std:iso:4217","value":400}},{"url":"https://bluebutton.cms.gov/assets/ig/StructureDefinition-bluebutton-inpatient-dsh-op-clm-val-amt-extension","valueMoney":{"code":"USD","system":"urn:iso:std:iso:4217","value":0}},{"url":"https://bluebutton.cms.gov/assets/ig/StructureDefinition-bluebutton-inpatient-clm-pass-thru-per-diem-amt-extension","valueMoney":{"code":"USD","system":"urn:iso:std:iso:4217","value":0}},{"url":"https://bluebutton.cms.gov/assets/ig/StructureDefinition-bluebutton-inpatient-nch-profnl-cmpnt-chrg-amt-extension","valueMoney":{"code":"USD","system":"urn:iso:std:iso:4217","value":0}},{"url":"https://bluebutton.cms.gov/assets/ig/StructureDefinition-bluebutton-inpatient-clm-tot-pps-cptl-amt-extension","valueMoney":{"code":"USD","system":"urn:iso:std:iso:4217","value":0}},{"url":"https://bluebutton.cms.gov/assets/ig/StructureDefinition-bluebutton-inpatient-nch-bene-ip-ddctbl-amt-extension","valueMoney":{"code":"USD","system":"urn:iso:std:iso:4217","value":0}},{"url":"https://bluebutton.cms.gov/assets/ig/StructureDefinition-bluebutton-inpatient-nch-bene-pta-coinsrnc-lblty-amt-extension","valueMoney":{"code":"USD","system":"urn:iso:std:iso:4217","value":0}},{"url":"https://bluebutton.cms.gov/assets/ig/StructureDefinition-bluebutton-inpatient-nch-ip-ncvrd-chrg-amt-extension","valueMoney":{"code":"USD","system":"urn:iso:std:iso:4217","value":0}},{"url":"https://bluebutton.cms.gov/assets/ig/StructureDefinition-bluebutton-inpatient-nch-ip-tot-ddctn-amt-extension","valueMoney":{"code":"USD","system":"urn:iso:std:iso:4217","value":0}},{"url":"https://bluebutton.cms.gov/assets/ig/StructureDefinition-bluebutton-inpatient-clm-pps-cptl-dsprprtnt-shr-amt-extension","valueMoney":{"code":"USD","system":"urn:iso:std:iso:4217","value":0}},{"url":"https://bluebutton.cms.gov/assets/ig/StructureDefinition-bluebutton-inpatient-clm-pps-cptl-excptn-amt-extension","valueMoney":{"code":"USD","system":"urn:iso:std:iso:4217","value":0}},{"url":"https://bluebutton.cms.gov/assets/ig/StructureDefinition-bluebutton-inpatient-clm-pps-cptl-fsp-amt-extension","valueMoney":{"code":"USD","system":"urn:iso:std:iso:4217","value":0}},{"url":"https://bluebutton.cms.gov/assets/ig/StructureDefinition-bluebutton-inpatient-clm-pps-cptl-ime-amt-extension","valueMoney":{"code":"USD","system":"urn:iso:std:iso:4217","value":400}},{"url":"https://bluebutton.cms.gov/assets/ig/StructureDefinition-bluebutton-inpatient-clm-pps-cptl-outlier-amt-extension","valueMoney":{"code":"USD","system":"urn:iso:std:iso:4217","value":0}},{"url":"https://bluebutton.cms.gov/assets/ig/StructureDefinition-bluebutton-inpatient-clm-pps-old-cptl-hld-hrmls-amt-extension","valueMoney":{"code":"USD","system":"urn:iso:std:iso:4217","value":0}},{"url":"https://bluebutton.cms.gov/assets/ig/StructureDefinition-bluebutton-inpatient-nch-drg-outlier-aprvd-pmt-amt-extension","valueMoney":{"code":"USD","system":"urn:iso:std:iso:4217","value":0}},{"url":"https://bluebutton.cms.gov/assets/ig/StructureDefinition-bluebutton-inpatient-nch-bene-blood-ddctbl-lblty-am-extension","valueMoney":{"code":"USD","system":"urn:iso:std:iso:4217","value":0}},{"url":"https://bluebutton.cms.gov/assets/ig/StructureDefinition-bluebutton-inpatient-clm-mdcr-non-pmt-rsn-cd-extension","valueCoding":{"code":"N","display":"All other reasons for non-payment","system":"https://bluebutton.cms.gov/assets/ig/CodeSystem-clm-mdcr-non-pmt-rsn-cd"}},{"url":"https://bluebutton.cms.gov/assets/ig/StructureDefinition-bluebutton-inpatient-prpayamt-extension","valueMoney":{"code":"USD","system":"urn:iso:std:iso:4217","value":0}},{"url":"https://bluebutton.cms.gov/assets/ig/StructureDefinition-bluebutton-inpatient-fi-num-extension","valueIdentifier":{"system":"https://bluebutton.cms.gov/assets/ig/CodeSystem-fi-num","value":"002000"}}],"id":"3ec377c6-8e53-451e-8d45-3bf77081e8fa","identifier":[{"system":"https://bluebutton.cms.gov/resources/variables/clm_id","value":"0e169500-7585-4edb-99a7-0e919d7bc08e"},{"system":"https://bluebutton.cms.gov/resources/identifier/claim-group","value":"99999999999"}],"insurance":{"coverage":{"reference":"#coverage"}},"item":[{"extension":[{"url":"https://bluebutton.cms.gov/assets/ig/StructureDefinition-bluebutton-inpatient-rev-cntr-ndc-qty-extension","valueQuantity":{"value":0}}],"locationCodeableConcept":{"coding":[{"code":"21","display":"Inpatient Hospital","system":"https://bluebutton.cms.gov/resources/variables/line_place_of_srvc_cd"}]},"sequence":1},{"adjudication":[{"amount":{"code":"USD","system":"urn:iso:std:iso:4217","value":3601.156},"category":{"coding":[{"code":"https://bluebutton.cms.gov/resources/variables/line_coinsrnc_amt","display":"Line Beneficiary Coinsurance Amount","system":"https://bluebutton.cms.gov/resources/codesystem/adjudication"}]}},{"amount":{"code":"USD","system":"urn:iso:std:iso:4217","value":14404.624},"category":{"coding":[{"code":"https://bluebutton.cms.gov/resources/variables/line_prvdr_pmt_amt","display":"Line Provider Payment Amount","system":"https://bluebutton.cms.gov/resources/codesystem/adjudication"}]}},{"amount":{"code":"USD","system":"urn:iso:std:iso:4217","value":18005.78},"category":{"coding":[{"code":"https://bluebutton.cms.gov/resources/variables/line_sbmtd_chrg_amt","display":"Line Submitted Charge Amount","system":"https://bluebutton.cms.gov/resources/codesystem/adjudication"}]}},{"amount":{"code":"USD","system":"urn:iso:std:iso:4217","value":18005.78},"category":{"coding":[{"code":"https://bluebutton.cms.gov/resources/variables/line_alowd_chrg_amt","display":"Line Allowed Charge Amount","system":"https://bluebutton.cms.gov/resources/codesystem/adjudication"}]}},{"amount":{"code":"USD","system":"urn:iso:std:iso:4217","value":0},"category":{"coding":[{"code":"https://bluebutton.cms.gov/resources/variables/line_bene_ptb_ddctbl_amt","display":"Line Beneficiary Part B Deductible Amount","system":"https://bluebutton.cms.gov/resources/codesystem/adjudication"}]}},{"category":{"coding":[{"code":"https://bluebutton.cms.gov/resources/variables/line_prcsg_ind_cd","display":"Line Processing Indicator Code","system":"https://bluebutton.cms.gov/resources/codesystem/adjudication"}]}}],"extension":[{"url":"https://bluebutton.cms.gov/assets/ig/StructureDefinition-bluebutton-inpatient-rev-cntr-ndc-qty-extension","valueQuantity":{"value":0}}],"locationCodeableConcept":{"coding":[{"code":"21","display":"Inpatient Hospital","system":"https://bluebutton.cms.gov/resources/variables/line_place_of_srvc_cd"}]},"sequence":2,"service":{"coding":[{"code":"180256009","system":"http://snomed.info/sct","version":"v1"}]}}],"meta":{"lastUpdated":"2019-04-09T09:59:24.131600+00:00","profile":["https://bluebutton.cms.gov/assets/ig/StructureDefinition-bluebutton-inpatient-claim"],"versionId":"MTU1NDgwMzk2NDEzMTYwMDAwMA"},"organization":{"identifier":{"value":"b1d44a9d-02af-4ad2-845a-0d262fdc836f"}},"patient":{"reference":"Patient/00bbc092-5868-40db-8eee-fe79d6a40e76"},"payment":{"amount":{"code":"USD","system":"urn:iso:std:iso:4217","value":14404.624}},"provider":{"identifier":{"value":"0d8a105b-bf25-4161-b635-3ea23d8eece3"}},"resourceType":"ExplanationOfBenefit","status":"active","totalCost":{"code":"USD","system":"urn:iso:std:iso:4217","value":18130.78},"type":{"coding":[{"code":"71","display":"Local carrier non-durable medical equipment, prosthetics, orthotics, and supplies (DMEPOS) claim","system":"https://bluebutton.cms.gov/resources/variables/nch_clm_type_cd"},{"code":"CARRIER","display":"EOB Type","system":"https://bluebutton.cms.gov/resources/codesystem/eob-type"},{"code":"professional","display":"Claim Type","system":"http://hl7.org/fhir/ex-claimtype"},{"code":"O","display":"Part B physician/supplier claim record (processed by local carriers; can include DMEPOS services)","system":"https://bluebutton.cms.gov/resources/variables/nch_near_line_rec_ident_cd"}]}}},{"resource":{"billablePeriod":{"end":"2013-09-23T21:27:52-04:00","extension":[{"url":"https://bluebutton.cms.gov/assets/ig/StructureDefinition-bluebutton-inpatient-claim-query-cd-extension","valueCoding":{"code":"3","display":"Final Bill","system":"https://bluebutton.cms.gov/assets/ig/ValueSet-claim-query-cd"}}],"start":"2012-09-23T21:27:52-04:00"},"careTeam":[{"provider":{"identifier":{"system":"http://hl7.org/fhir/sid/us-npi","value":"99999999"}},"role":{"coding":[{"code":"primary","display":"Primary Care Practitioner","system":"http://hl7.org/fhir/claimcareteamrole"}]},"sequence":1}],"contained":[{"id":"coverage","resourceType":"Coverage","type":{"text":"medicaid"}}],"extension":[{"url":"https://bluebutton.cms.gov/assets/ig/StructureDefinition-bluebutton-inpatient-ime-op-clm-val-amt-extension","valueMoney":{"code":"USD","system":"urn:iso:std:iso:4217","value":400}},{"url":"https://bluebutton.cms.gov/assets/ig/StructureDefinition-bluebutton-inpatient-dsh-op-clm-val-amt-extension","valueMoney":{"code":"USD","system":"urn:iso:std:iso:4217","value":0}},{"url":"https://bluebutton.cms.gov/assets/ig/StructureDefinition-bluebutton-inpatient-clm-pass-thru-per-diem-amt-extension","valueMoney":{"code":"USD","system":"urn:iso:std:iso:4217","value":0}},{"url":"https://bluebutton.cms.gov/assets/ig/StructureDefinition-bluebutton-inpatient-nch-profnl-cmpnt-chrg-amt-extension","valueMoney":{"code":"USD","system":"urn:iso:std:iso:4217","value":0}},{"url":"https://bluebutton.cms.gov/assets/ig/StructureDefinition-bluebutton-inpatient-clm-tot-pps-cptl-amt-extension","valueMoney":{"code":"USD","system":"urn:iso:std:iso:4217","value":0}},{"url":"https://bluebutton.cms.gov/assets/ig/StructureDefinition-bluebutton-inpatient-nch-bene-ip-ddctbl-amt-extension","valueMoney":{"code":"USD","system":"urn:iso:std:iso:4217","value":0}},{"url":"https://bluebutton.cms.gov/assets/ig/StructureDefinition-bluebutton-inpatient-nch-bene-pta-coinsrnc-lblty-amt-extension","valueMoney":{"code":"USD","system":"urn:iso:std:iso:4217","value":0}},{"url":"https://bluebutton.cms.gov/assets/ig/StructureDefinition-bluebutton-inpatient-nch-ip-ncvrd-chrg-amt-extension","valueMoney":{"code":"USD","system":"urn:iso:std:iso:4217","value":0}},{"url":"https://bluebutton.cms.gov/assets/ig/StructureDefinition-bluebutton-inpatient-nch-ip-tot-ddctn-amt-extension","valueMoney":{"code":"USD","system":"urn:iso:std:iso:4217","value":0}},{"url":"https://bluebutton.cms.gov/assets/ig/StructureDefinition-bluebutton-inpatient-clm-pps-cptl-dsprprtnt-shr-amt-extension","valueMoney":{"code":"USD","system":"urn:iso:std:iso:4217","value":0}},{"url":"https://bluebutton.cms.gov/assets/ig/StructureDefinition-bluebutton-inpatient-clm-pps-cptl-excptn-amt-extension","valueMoney":{"code":"USD","system":"urn:iso:std:iso:4217","value":0}},{"url":"https://bluebutton.cms.gov/assets/ig/StructureDefinition-bluebutton-inpatient-clm-pps-cptl-fsp-amt-extension","valueMoney":{"code":"USD","system":"urn:iso:std:iso:4217","value":0}},{"url":"https://bluebutton.cms.gov/assets/ig/StructureDefinition-bluebutton-inpatient-clm-pps-cptl-ime-amt-extension","valueMoney":{"code":"USD","system":"urn:iso:std:iso:4217","value":400}},{"url":"https://bluebutton.cms.gov/assets/ig/StructureDefinition-bluebutton-inpatient-clm-pps-cptl-outlier-amt-extension","valueMoney":{"code":"USD","system":"urn:iso:std:iso:4217","value":0}},{"url":"https://bluebutton.cms.gov/assets/ig/StructureDefinition-bluebutton-inpatient-clm-pps-old-cptl-hld-hrmls-amt-extension","valueMoney":{"code":"USD","system":"urn:iso:std:iso:4217","value":0}},{"url":"https://bluebutton.cms.gov/assets/ig/StructureDefinition-bluebutton-inpatient-nch-drg-outlier-aprvd-pmt-amt-extension","valueMoney":{"code":"USD","system":"urn:iso:std:iso:4217","value":0}},{"url":"https://bluebutton.cms.gov/assets/ig/StructureDefinition-bluebutton-inpatient-nch-bene-blood-ddctbl-lblty-am-extension","valueMoney":{"code":"USD","system":"urn:iso:std:iso:4217","value":0}},{"url":"https://bluebutton.cms.gov/assets/ig/StructureDefinition-bluebutton-inpatient-clm-mdcr-non-pmt-rsn-cd-extension","valueCoding":{"code":"N","display":"All other reasons for non-payment","system":"https://bluebutton.cms.gov/assets/ig/CodeSystem-clm-mdcr-non-pmt-rsn-cd"}},{"url":"https://bluebutton.cms.gov/assets/ig/StructureDefinition-bluebutton-inpatient-prpayamt-extension","valueMoney":{"code":"USD","system":"urn:iso:std:iso:4217","value":0}},{"url":"https://bluebutton.cms.gov/assets/ig/StructureDefinition-bluebutton-inpatient-fi-num-extension","valueIdentifier":{"system":"https://bluebutton.cms.gov/assets/ig/CodeSystem-fi-num","value":"002000"}}],"id":"4239bc66-52f5-4aeb-a8cc-e221492e8bf1","identifier":[{"system":"https://bluebutton.cms.gov/resources/variables/clm_id","value":"e594ac8c-9b80-4563-a9d5-84fcd3c294d0"},{"system":"https://bluebutton.cms.gov/resources/identifier/claim-group","value":"99999999999"}],"insurance":{"coverage":{"reference":"#coverage"}},"item":[{"extension":[{"url":"https://bluebutton.cms.gov/assets/ig/StructureDefinition-bluebutton-inpatient-rev-cntr-ndc-qty-extension","valueQuantity":{"value":0}}],"locationCodeableConcept":{"coding":[{"code":"21","display":"Inpatient Hospital","system":"https://bluebutton.cms.gov/resources/variables/line_place_of_srvc_cd"}]},"sequence":1},{"adjudication":[{"amount":{"code":"USD","system":"urn:iso:std:iso:4217","value":1893.9900000000002},"category":{"coding":[{"code":"https://bluebutton.cms.gov/resources/variables/line_coinsrnc_amt","display":"Line Beneficiary Coinsurance Amount","system":"https://bluebutton.cms.gov/resources/codesystem/adjudication"}]}},{"amount":{"code":"USD","system":"urn:iso:std:iso:4217","value":7575.960000000001},"category":{"coding":[{"code":"https://bluebutton.cms.gov/resources/variables/line_prvdr_pmt_amt","display":"Line Provider Payment Amount","system":"https://bluebutton.cms.gov/resources/codesystem/adjudication"}]}},{"amount":{"code":"USD","system":"urn:iso:std:iso:4217","value":9469.95},"category":{"coding":[{"code":"https://bluebutton.cms.gov/resources/variables/line_sbmtd_chrg_amt","display":"Line Submitted Charge Amount","system":"https://bluebutton.cms.gov/resources/codesystem/adjudication"}]}},{"amount":{"code":"USD","system":"urn:iso:std:iso:4217","value":9469.95},"category":{"coding":[{"code":"https://bluebutton.cms.gov/resources/variables/line_alowd_chrg_amt","display":"Line Allowed Charge Amount","system":"https://bluebutton.cms.gov/resources/codesystem/adjudication"}]}},{"amount":{"code":"USD","system":"urn:iso:std:iso:4217","value":0},"category":{"coding":[{"code":"https://bluebutton.cms.gov/resources/variables/line_bene_ptb_ddctbl_amt","display":"Line Beneficiary Part B Deductible Amount","system":"https://bluebutton.cms.gov/resources/codesystem/adjudication"}]}},{"category":{"coding":[{"code":"https://bluebutton.cms.gov/resources/variables/line_prcsg_ind_cd","display":"Line Processing Indicator Code","system":"https://bluebutton.cms.gov/resources/codesystem/adjudication"}]}}],"extension":[{"url":"https://bluebutton.cms.gov/assets/ig/StructureDefinition-bluebutton-inpatient-rev-cntr-ndc-qty-extension","valueQuantity":{"value":0}}],"locationCodeableConcept":{"coding":[{"code":"21","display":"Inpatient Hospital","system":"https://bluebutton.cms.gov/resources/variables/line_place_of_srvc_cd"}]},"sequence":2,"service":{"coding":[{"code":"180256009","system":"http://snomed.info/sct","version":"v1"}]}}],"meta":{"lastUpdated":"2019-04-09T09:59:23.102523+00:00","profile":["https://bluebutton.cms.gov/assets/ig/StructureDefinition-bluebutton-inpatient-claim"],"versionId":"MTU1NDgwMzk2MzEwMjUyMzAwMA"},"organization":{"identifier":{"value":"b1d44a9d-02af-4ad2-845a-0d262fdc836f"}},"patient":{"reference":"Patient/00bbc092-5868-40db-8eee-fe79d6a40e76"},"payment":{"amount":{"code":"USD","system":"urn:iso:std:iso:4217","value":7575.960000000001}},"provider":{"identifier":{"value":"0d8a105b-bf25-4161-b635-3ea23d8eece3"}},"resourceType":"ExplanationOfBenefit","status":"active","totalCost":{"code":"USD","system":"urn:iso:std:iso:4217","value":9594.95},"type":{"coding":[{"code":"71","display":"Local carrier non-durable medical equipment, prosthetics, orthotics, and supplies (DMEPOS) claim","system":"https://bluebutton.cms.gov/resources/variables/nch_clm_type_cd"},{"code":"CARRIER","display":"EOB Type","system":"https://bluebutton.cms.gov/resources/codesystem/eob-type"},{"code":"professional","display":"Claim Type","system":"http://hl7.org/fhir/ex-claimtype"},{"code":"O","display":"Part B physician/supplier claim record (processed by local carriers; can include DMEPOS services)","system":"https://bluebutton.cms.gov/resources/variables/nch_near_line_rec_ident_cd"}]}}},{"resource":{"billablePeriod":{"end":"2013-07-22T21:48:52-04:00","extension":[{"url":"https://bluebutton.cms.gov/assets/ig/StructureDefinition-bluebutton-inpatient-claim-query-cd-extension","valueCoding":{"code":"3","display":"Final Bill","system":"https://bluebutton.cms.gov/assets/ig/ValueSet-claim-query-cd"}}],"start":"2012-07-22T21:48:52-04:00"},"careTeam":[{"provider":{"identifier":{"system":"http://hl7.org/fhir/sid/us-npi","value":"99999999"}},"role":{"coding":[{"code":"primary","display":"Primary Care Practitioner","system":"http://hl7.org/fhir/claimcareteamrole"}]},"sequence":1}],"contained":[{"id":"coverage","resourceType":"Coverage","type":{"text":"medicaid"}}],"extension":[{"url":"https://bluebutton.cms.gov/assets/ig/StructureDefinition-bluebutton-inpatient-ime-op-clm-val-amt-extension","valueMoney":{"code":"USD","system":"urn:iso:std:iso:4217","value":400}},{"url":"https://bluebutton.cms.gov/assets/ig/StructureDefinition-bluebutton-inpatient-dsh-op-clm-val-amt-extension","valueMoney":{"code":"USD","system":"urn:iso:std:iso:4217","value":0}},{"url":"https://bluebutton.cms.gov/assets/ig/StructureDefinition-bluebutton-inpatient-clm-pass-thru-per-diem-amt-extension","valueMoney":{"code":"USD","system":"urn:iso:std:iso:4217","value":0}},{"url":"https://bluebutton.cms.gov/assets/ig/StructureDefinition-bluebutton-inpatient-nch-profnl-cmpnt-chrg-amt-extension","valueMoney":{"code":"USD","system":"urn:iso:std:iso:4217","value":0}},{"url":"https://bluebutton.cms.gov/assets/ig/StructureDefinition-bluebutton-inpatient-clm-tot-pps-cptl-amt-extension","valueMoney":{"code":"USD","system":"urn:iso:std:iso:4217","value":0}},{"url":"https://bluebutton.cms.gov/assets/ig/StructureDefinition-bluebutton-inpatient-nch-bene-ip-ddctbl-amt-extension","valueMoney":{"code":"USD","system":"urn:iso:std:iso:4217","value":0}},{"url":"https://bluebutton.cms.gov/assets/ig/StructureDefinition-bluebutton-inpatient-nch-bene-pta-coinsrnc-lblty-amt-extension","valueMoney":{"code":"USD","system":"urn:iso:std:iso:4217","value":0}},{"url":"https://bluebutton.cms.gov/assets/ig/StructureDefinition-bluebutton-inpatient-nch-ip-ncvrd-chrg-amt-extension","valueMoney":{"code":"USD","system":"urn:iso:std:iso:4217","value":0}},{"url":"https://bluebutton.cms.gov/assets/ig/StructureDefinition-bluebutton-inpatient-nch-ip-tot-ddctn-amt-extension","valueMoney":{"code":"USD","system":"urn:iso:std:iso:4217","value":0}},{"url":"https://bluebutton.cms.gov/assets/ig/StructureDefinition-bluebutton-inpatient-clm-pps-cptl-dsprprtnt-shr-amt-extension","valueMoney":{"code":"USD","system":"urn:iso:std:iso:4217","value":0}},{"url":"https://bluebutton.cms.gov/assets/ig/StructureDefinition-bluebutton-inpatient-clm-pps-cptl-excptn-amt-extension","valueMoney":{"code":"USD","system":"urn:iso:std:iso:4217","value":0}},{"url":"https://bluebutton.cms.gov/assets/ig/StructureDefinition-bluebutton-inpatient-clm-pps-cptl-fsp-amt-extension","valueMoney":{"code":"USD","system":"urn:iso:std:iso:4217","value":0}},{"url":"https://bluebutton.cms.gov/assets/ig/StructureDefinition-bluebutton-inpatient-clm-pps-cptl-ime-amt-extension","valueMoney":{"code":"USD","system":"urn:iso:std:iso:4217","value":400}},{"url":"https://bluebutton.cms.gov/assets/ig/StructureDefinition-bluebutton-inpatient-clm-pps-cptl-outlier-amt-extension","valueMoney":{"code":"USD","system":"urn:iso:std:iso:4217","value":0}},{"url":"https://bluebutton.cms.gov/assets/ig/StructureDefinition-bluebutton-inpatient-clm-pps-old-cptl-hld-hrmls-amt-extension","valueMoney":{"code":"USD","system":"urn:iso:std:iso:4217","value":0}},{"url":"https://bluebutton.cms.gov/assets/ig/StructureDefinition-bluebutton-inpatient-nch-drg-outlier-aprvd-pmt-amt-extension","valueMoney":{"code":"USD","system":"urn:iso:std:iso:4217","value":0}},{"url":"https://bluebutton.cms.gov/assets/ig/StructureDefinition-bluebutton-inpatient-nch-bene-blood-ddctbl-lblty-am-extension","valueMoney":{"code":"USD","system":"urn:iso:std:iso:4217","value":0}},{"url":"https://bluebutton.cms.gov/assets/ig/StructureDefinition-bluebutton-inpatient-clm-mdcr-non-pmt-rsn-cd-extension","valueCoding":{"code":"N","display":"All other reasons for non-payment","system":"https://bluebutton.cms.gov/assets/ig/CodeSystem-clm-mdcr-non-pmt-rsn-cd"}},{"url":"https://bluebutton.cms.gov/assets/ig/StructureDefinition-bluebutton-inpatient-prpayamt-extension","valueMoney":{"code":"USD","system":"urn:iso:std:iso:4217","value":0}},{"url":"https://bluebutton.cms.gov/assets/ig/StructureDefinition-bluebutton-inpatient-fi-num-extension","valueIdentifier":{"system":"https://bluebutton.cms.gov/assets/ig/CodeSystem-fi-num","value":"002000"}}],"id":"43a16b02-71c6-4706-8a21-258ddd68496f","identifier":[{"system":"https://bluebutton.cms.gov/resources/variables/clm_id","value":"3f4d545b-9c21-4a19-ba40-2363da9a9b7e"},{"system":"https://bluebutton.cms.gov/resources/identifier/claim-group","value":"99999999999"}],"insurance":{"coverage":{"reference":"#coverage"}},"item":[{"extension":[{"url":"https://bluebutton.cms.gov/assets/ig/StructureDefinition-bluebutton-inpatient-rev-cntr-ndc-qty-extension","valueQuantity":{"value":0}}],"locationCodeableConcept":{"coding":[{"code":"21","display":"Inpatient Hospital","system":"https://bluebutton.cms.gov/resources/variables/line_place_of_srvc_cd"}]},"sequence":1},{"adjudication":[{"amount":{"code":"USD","system":"urn:iso:std:iso:4217","value":2465.9060000000004},"category":{"coding":[{"code":"https://bluebutton.cms.gov/resources/variables/line_coinsrnc_amt","display":"Line Beneficiary Coinsurance Amount","system":"https://bluebutton.cms.gov/resources/codesystem/adjudication"}]}},{"amount":{"code":"USD","system":"urn:iso:std:iso:4217","value":9863.624000000002},"category":{"coding":[{"code":"https://bluebutton.cms.gov/resources/variables/line_prvdr_pmt_amt","display":"Line Provider Payment Amount","system":"https://bluebutton.cms.gov/resources/codesystem/adjudication"}]}},{"amount":{"code":"USD","system":"urn:iso:std:iso:4217","value":12329.53},"category":{"coding":[{"code":"https://bluebutton.cms.gov/resources/variables/line_sbmtd_chrg_amt","display":"Line Submitted Charge Amount","system":"https://bluebutton.cms.gov/resources/codesystem/adjudication"}]}},{"amount":{"code":"USD","system":"urn:iso:std:iso:4217","value":12329.53},"category":{"coding":[{"code":"https://bluebutton.cms.gov/resources/variables/line_alowd_chrg_amt","display":"Line Allowed Charge Amount","system":"https://bluebutton.cms.gov/resources/codesystem/adjudication"}]}},{"amount":{"code":"USD","system":"urn:iso:std:iso:4217","value":0},"category":{"coding":[{"code":"https://bluebutton.cms.gov/resources/variables/line_bene_ptb_ddctbl_amt","display":"Line Beneficiary Part B Deductible Amount","system":"https://bluebutton.cms.gov/resources/codesystem/adjudication"}]}},{"category":{"coding":[{"code":"https://bluebutton.cms.gov/resources/variables/line_prcsg_ind_cd","display":"Line Processing Indicator Code","system":"https://bluebutton.cms.gov/resources/codesystem/adjudication"}]}}],"extension":[{"url":"https://bluebutton.cms.gov/assets/ig/StructureDefinition-bluebutton-inpatient-rev-cntr-ndc-qty-extension","valueQuantity":{"value":0}}],"locationCodeableConcept":{"coding":[{"code":"21","display":"Inpatient Hospital","system":"https://bluebutton.cms.gov/resources/variables/line_place_of_srvc_cd"}]},"sequence":2,"service":{"coding":[{"code":"180256009","system":"http://snomed.info/sct","version":"v1"}]}}],"meta":{"lastUpdated":"2019-04-09T09:59:23.090256+00:00","profile":["https://bluebutton.cms.gov/assets/ig/StructureDefinition-bluebutton-inpatient-claim"],"versionId":"MTU1NDgwMzk2MzA5MDI1NjAwMA"},"organization":{"identifier":{"value":"b1d44a9d-02af-4ad2-845a-0d262fdc836f"}},"patient":{"reference":"Patient/00bbc092-5868-40db-8eee-fe79d6a40e76"},"payment":{"amount":{"code":"USD","system":"urn:iso:std:iso:4217","value":9863.624000000002}},"provider":{"identifier":{"value":"0d8a105b-bf25-4161-b635-3ea23d8eece3"}},"resourceType":"ExplanationOfBenefit","status":"active","totalCost":{"code":"USD","system":"urn:iso:std:iso:4217","value":12454.53},"type":{"coding":[{"code":"71","display":"Local carrier non-durable medical equipment, prosthetics, orthotics, and supplies (DMEPOS) claim","system":"https://bluebutton.cms.gov/resources/variables/nch_clm_type_cd"},{"code":"CARRIER","display":"EOB Type","system":"https://bluebutton.cms.gov/resources/codesystem/eob-type"},{"code":"professional","display":"Claim Type","system":"http://hl7.org/fhir/ex-claimtype"},{"code":"O","display":"Part B physician/supplier claim record (processed by local carriers; can include DMEPOS services)","system":"https://bluebutton.cms.gov/resources/variables/nch_near_line_rec_ident_cd"}]}}}],"link":[{"url":"https://syntheticmass.mitre.org/v1/fhir/Patient/00bbc092-5868-40db-8eee-fe79d6a40e76/$everything?_count=100&page_token=CoIBcHJvamVjdHMvc3ludGhlYS9sb2NhdGlvbnMvdXMtY2VudHJhbDEvZGF0YXNldHMvMjAxOTAyL2ZoaXJTdG9yZXMvc3ludGhldGljLW1hc3MvZmhpci9QYXRpZW50LzAwYmJjMDkyLTU4NjgtNDBkYi04ZWVlLWZlNzlkNmE0MGU3Ng%3D%3D","relation":"previous"},{"url":"https://syntheticmass.mitre.org/v1/fhir/Patient/00bbc092-5868-40db-8eee-fe79d6a40e76/$everything?_count=100&page_token=CoIBcHJvamVjdHMvc3ludGhlYS9sb2NhdGlvbnMvdXMtY2VudHJhbDEvZGF0YXNldHMvMjAxOTAyL2ZoaXJTdG9yZXMvc3ludGhldGljLW1hc3MvZmhpci9QYXRpZW50LzAwYmJjMDkyLTU4NjgtNDBkYi04ZWVlLWZlNzlkNmE0MGU3NiDIAQ%3D%3D","relation":"next"}],"total":451}
