{"resourceType":"Bundle","type":"searchset","entry":[{"resource":{"billablePeriod":{"end":"2019-07-15T20:42:12-04:00","extension":[{"url":"https://bluebutton.cms.gov/assets/ig/StructureDefinition-bluebutton-outpatient-claim-query-cd-extension","valueCoding":{"code":"3","display":"Final Bill","system":"https://bluebutton.cms.gov/assets/ig/ValueSet-claim-query-cd"}}],"start":"2018-07-15T20:42:12-04:00"},"careTeam":[{"provider":{"identifier":{"system":"http://hl7.org/fhir/sid/us-npi","value":"99999999"}},"role":{"coding":[{"code":"primary","display":"Primary Care Practitioner","system":"http://hl7.org/fhir/claimcareteamrole"}]},"sequence":1}],"contained":[{"id":"coverage","resourceType":"Coverage","type":{"text":"private"}}],"extension":[{"url":"https://bluebutton.cms.gov/assets/ig/StructureDefinition-bluebutton-outpatient-nch-profnl-cmpnt-chrg-amt-extension","valueMoney":{"code":"USD","system":"urn:iso:std:iso:4217","value":0}},{"url":"https://bluebutton.cms.gov/assets/ig/StructureDefinition-bluebutton-outpatient-nch-bene-ptb-ddctbl-amt-extension","valueMoney":{"code":"USD","system":"urn:iso:std:iso:4217","value":0}},{"url":"https://bluebutton.cms.gov/assets/ig/StructureDefinition-bluebutton-outpatient-nch-bene-ptb-coinsrnc-amt-extension","valueMoney":{"code":"USD","system":"urn:iso:std:iso:4217","value":0}},{"url":"https://bluebutton.cms.gov/assets/ig/StructureDefinition-bluebutton-outpatient-clm-op-prvdr-pmt-amt-extension","valueMoney":{"code":"USD","system":"urn:iso:std:iso:4217","value":0}},{"url":"https://bluebutton.cms.gov/assets/ig/StructureDefinition-bluebutton-outpatient-clm-op-bene-pmt-amt-extension","valueMoney":{"code":"USD","system":"urn:iso:std:iso:4217","value":0}},{"url":"https://bluebutton.cms.gov/assets/ig/StructureDefinition-bluebutton-outpatient-nch-bene-blood-ddctbl-lblty-am-extension","valueMoney":{"code":"USD","system":"urn:iso:std:iso:4217","value":0}},{"url":"https://bluebutton.cms.gov/assets/ig/StructureDefinition-bluebutton-outpatient-clm-mdcr-non-pmt-rsn-cd-extension","valueCoding":{"code":"N","display":"All other reasons for non-payment","system":"https://bluebutton.cms.gov/assets/ig/CodeSystem-clm-mdcr-non-pmt-rsn-cd"}},{"url":"https://bluebutton.cms.gov/assets/ig/StructureDefinition-bluebutton-outpatient-prpayamt-extension","valueMoney":{"code":"USD","system":"urn:iso:std:iso:4217","value":0}},{"url":"https://bluebutton.cms.gov/assets/ig/StructureDefinition-bluebutton-outpatient-fi-num-extension","valueIdentifier":{"system":"https://bluebutton.cms.gov/assets/ig/CodeSystem-fi-num","value":"002000"}}],"id":"3879bda0-5fa8-428d-ab8f-5906172afc59","identifier":[{"system":"https://bluebutton.cms.gov/resources/variables/clm_id","value":"85b3b6a9-7242-4e2f-b935-962fbf3c6cba"},{"system":"https://bluebutton.cms.gov/resources/identifier/claim-group","value":"99999999999"}],"insurance":{"coverage":{"reference":"#coverage"}},"item":[{"extension":[{"url":"https://bluebutton.cms.gov/assets/ig/StructureDefinition-bluebutton-outpatient-rev-cntr-ndc-qty-extension","valueQuantity":{"value":0}}],"locationCodeableConcept":{"coding":[{"code":"21","display":"Inpatient Hospital","system":"https://bluebutton.cms.gov/resources/variables/line_place_of_srvc_cd"}]},"sequence":1}],"meta":{"lastUpdated":"2019-04-09T09:29:35.039993+00:00","profile":["https://bluebutton.cms.gov/assets/ig/StructureDefinition-bluebutton-outpatient-claim"],"versionId":"MTU1NDgwMjE3NTAzOTk5MzAwMA"},"organization":{"identifier":{"value":"3d5babec-3884-4754-960d-45195bc05bed"}},"patient":{"reference":"Patient/00a3c662-723c-4318-a94c-a7ae88033c2d"},"payment":{"amount":{"code":"USD","system":"urn:iso:std:iso:4217","value":0}},"provider":{"identifier":{"value":"7508a73f-4110-4010-a236-f6a77a2c0346"}},"resourceType":"ExplanationOfBenefit","status":"active","totalCost":{"code":"USD","system":"urn:iso:std:iso:4217","value":125},"type":{"coding":[{"code":"71","display":"Local carrier non-durable medical equipment, prosthetics, orthotics, and supplies (DMEPOS) claim","system":"https://bluebutton.cms.gov/resources/variables/nch_clm_type_cd"},{"code":"CARRIER","display":"EOB Type","system":"https://bluebutton.cms.gov/resources/codesystem/eob-type"},{"code":"professional","display":"Claim Type","system":"http://hl7.org/fhir/ex-claimtype"},{"code":"O","display":"Part B physician/supplier claim record (processed by local carriers; can include DMEPOS services)","system":"https://bluebutton.cms.gov/resources/variables/nch_near_line_rec_ident_cd"}]}}},{"resource":{"billablePeriod":{"end":"2012-08-14T20:42:12-04:00","extension":[{"url":"https://bluebutton.cms.gov/assets/ig/StructureDefinition-bluebutton-outpatient-claim-query-cd-extension","valueCoding":{"code":"3","display":"Final Bill","system":"https://bluebutton.cms.gov/assets/ig/ValueSet-claim-query-cd"}}],"start":"2011-08-14T20:42:12-04:00"},"careTeam":[{"provider":{"identifier":{"system":"http://hl7.org/fhir/sid/us-npi","value":"99999999"}},"role":{"coding":[{"code":"primary","display":"Primary Care Practitioner","system":"http://hl7.org/fhir/claimcareteamrole"}]},"sequence":1}],"contained":[{"id":"coverage","resourceType":"Coverage","type":{"text":"private"}}],"extension":[{"url":"https://bluebutton.cms.gov/assets/ig/StructureDefinition-bluebutton-outpatient-nch-profnl-cmpnt-chrg-amt-extension","valueMoney":{"code":"USD","system":"urn:iso:std:iso:4217","value":0}},{"url":"https://bluebutton.cms.gov/assets/ig/StructureDefinition-bluebutton-outpatient-nch-bene-ptb-ddctbl-amt-extension","valueMoney":{"code":"USD","system":"urn:iso:std:iso:4217","value":0}},{"url":"https://bluebutton.cms.gov/assets/ig/StructureDefinition-bluebutton-outpatient-nch-bene-ptb-coinsrnc-amt-extension","valueMoney":{"code":"USD","system":"urn:iso:std:iso:4217","value":0}},{"url":"https://bluebutton.cms.gov/assets/ig/StructureDefinition-bluebutton-outpatient-clm-op-prvdr-pmt-amt-extension","valueMoney":{"code":"USD","system":"urn:iso:std:iso:4217","value":0}},{"url":"https://bluebutton.cms.gov/assets/ig/StructureDefinition-bluebutton-outpatient-clm-op-bene-pmt-amt-extension","valueMoney":{"code":"USD","system":"urn:iso:std:iso:4217","value":0}},{"url":"https://bluebutton.cms.gov/assets/ig/StructureDefinition-bluebutton-outpatient-nch-bene-blood-ddctbl-lblty-am-extension","valueMoney":{"code":"USD","system":"urn:iso:std:iso:4217","value":0}},{"url":"https://bluebutton.cms.gov/assets/ig/StructureDefinition-bluebutton-outpatient-clm-mdcr-non-pmt-rsn-cd-extension","valueCoding":{"code":"N","display":"All other reasons for non-payment","system":"https://bluebutton.cms.gov/assets/ig/CodeSystem-clm-mdcr-non-pmt-rsn-cd"}},{"url":"https://bluebutton.cms.gov/assets/ig/StructureDefinition-bluebutton-outpatient-prpayamt-extension","valueMoney":{"code":"USD","system":"urn:iso:std:iso:4217","value":0}},{"url":"https://bluebutton.cms.gov/assets/ig/StructureDefinition-bluebutton-outpatient-fi-num-extension","valueIdentifier":{"system":"https://bluebutton.cms.gov/assets/ig/CodeSystem-fi-num","value":"002000"}}],"id":"3a2fc54a-ecae-4296-8b4c-12ba0cdf4c17","identifier":[{"system":"https://bluebutton.cms.gov/resources/variables/clm_id","value":"46ac7313-85ff-4522-ab2f-5e09176add0c"},{"system":"https://bluebutton.cms.gov/resources/identifier/claim-group","value":"99999999999"}],"insurance":{"coverage":{"reference":"#coverage"}},"item":[{"extension":[{"url":"https://bluebutton.cms.gov/assets/ig/StructureDefinition-bluebutton-outpatient-rev-cntr-ndc-qty-extension","valueQuantity":{"value":0}}],"locationCodeableConcept":{"coding":[{"code":"21","display":"Inpatient Hospital","system":"https://bluebutton.cms.gov/resources/variables/line_place_of_srvc_cd"}]},"sequence":1}],"meta":{"lastUpdated":"2019-04-09T09:29:31.921038+00:00","profile":["https://bluebutton.cms.gov/assets/ig/StructureDefinition-bluebutton-outpatient-claim"],"versionId":"MTU1NDgwMjE3MTkyMTAzODAwMA"},"organization":{"identifier":{"value":"3d5babec-3884-4754-960d-45195bc05bed"}},"patient":{"reference":"Patient/00a3c662-723c-4318-a94c-a7ae88033c2d"},"payment":{"amount":{"code":"USD","system":"urn:iso:std:iso:4217","value":0}},"provider":{"identifier":{"value":"7508a73f-4110-4010-a236-f6a77a2c0346"}},"resourceType":"ExplanationOfBenefit","status":"active","totalCost":{"code":"USD","system":"urn:iso:std:iso:4217","value":125},"type":{"coding":[{"code":"71","display":"Local carrier non-durable medical equipment, prosthetics, orthotics, and supplies (DMEPOS) claim","system":"https://bluebutton.cms.gov/resources/variables/nch_clm_type_cd"},{"code":"CARRIER","display":"EOB Type","system":"https://bluebutton.cms.gov/resources/codesystem/eob-type"},{"code":"professional","display":"Claim Type","system":"http://hl7.org/fhir/ex-claimtype"},{"code":"O","display":"Part B physician/supplier claim record (processed by local carriers; can include DMEPOS services)","system":"https://bluebutton.cms.gov/resources/variables/nch_near_line_rec_ident_cd"}]}}},{"resource":{"billablePeriod":{"end":"2011-08-19T20:42:12-04:00","extension":[{"url":"https://bluebutton.cms.gov/assets/ig/StructureDefinition-bluebutton-outpatient-claim-query-cd-extension","valueCoding":{"code":"3","display":"Final Bill","system":"https://bluebutton.cms.gov/assets/ig/ValueSet-claim-query-cd"}}],"start":"2010-08-19T20:42:12-04:00"},"careTeam":[{"provider":{"identifier":{"system":"http://hl7.org/fhir/sid/us-npi","value":"99999999"}},"role":{"coding":[{"code":"primary","display":"Primary Care Practitioner","system":"http://hl7.org/fhir/claimcareteamrole"}]},"sequence":1}],"contained":[{"id":"coverage","resourceType":"Coverage","type":{"text":"private"}}],"extension":[{"url":"https://bluebutton.cms.gov/assets/ig/StructureDefinition-bluebutton-outpatient-nch-profnl-cmpnt-chrg-amt-extension","valueMoney":{"code":"USD","system":"urn:iso:std:iso:4217","value":0}},{"url":"https://bluebutton.cms.gov/assets/ig/StructureDefinition-bluebutton-outpatient-nch-bene-ptb-ddctbl-amt-extension","valueMoney":{"code":"USD","system":"urn:iso:std:iso:4217","value":0}},{"url":"https://bluebutton.cms.gov/assets/ig/StructureDefinition-bluebutton-outpatient-nch-bene-ptb-coinsrnc-amt-extension","valueMoney":{"code":"USD","system":"urn:iso:std:iso:4217","value":0}},{"url":"https://bluebutton.cms.gov/assets/ig/StructureDefinition-bluebutton-outpatient-clm-op-prvdr-pmt-amt-extension","valueMoney":{"code":"USD","system":"urn:iso:std:iso:4217","value":0}},{"url":"https://bluebutton.cms.gov/assets/ig/StructureDefinition-bluebutton-outpatient-clm-op-bene-pmt-amt-extension","valueMoney":{"code":"USD","system":"urn:iso:std:iso:4217","value":0}},{"url":"https://bluebutton.cms.gov/assets/ig/StructureDefinition-bluebutton-outpatient-nch-bene-blood-ddctbl-lblty-am-extension","valueMoney":{"code":"USD","system":"urn:iso:std:iso:4217","value":0}},{"url":"https://bluebutton.cms.gov/assets/ig/StructureDefinition-bluebutton-outpatient-clm-mdcr-non-pmt-rsn-cd-extension","valueCoding":{"code":"N","display":"All other reasons for non-payment","system":"https://bluebutton.cms.gov/assets/ig/CodeSystem-clm-mdcr-non-pmt-rsn-cd"}},{"url":"https://bluebutton.cms.gov/assets/ig/StructureDefinition-bluebutton-outpatient-prpayamt-extension","valueMoney":{"code":"USD","system":"urn:iso:std:iso:4217","value":0}},{"url":"https://bluebutton.cms.gov/assets/ig/StructureDefinition-bluebutton-outpatient-fi-num-extension","valueIdentifier":{"system":"https://bluebutton.cms.gov/assets/ig/CodeSystem-fi-num","value":"002000"}}],"id":"3de6c861-b4fc-4271-96a3-92d7729e5918","identifier":[{"system":"https://bluebutton.cms.gov/resources/variables/clm_id","value":"2862200a-be20-45c3-a709-f71b2cfa9fdf"},{"system":"https://bluebutton.cms.gov/resources/identifier/claim-group","value":"99999999999"}],"insurance":{"coverage":{"reference":"#coverage"}},"item":[{"extension":[{"url":"https://bluebutton.cms.gov/assets/ig/StructureDefinition-bluebutton-outpatient-rev-cntr-ndc-qty-extension","valueQuantity":{"value":0}}],"locationCodeableConcept":{"coding":[{"code":"21","display":"Inpatient Hospital","system":"https://bluebutton.cms.gov/resources/variables/line_place_of_srvc_cd"}]},"sequence":1}],"meta":{"lastUpdated":"2019-04-09T09:29:30.894285+00:00","profile":["https://bluebutton.cms.gov/assets/ig/StructureDefinition-bluebutton-outpatient-claim"],"versionId":"MTU1NDgwMjE3MDg5NDI4NTAwMA"},"organization":{"identifier":{"value":"3d5babec-3884-4754-960d-45195bc05bed"}},"patient":{"reference":"Patient/00a3c662-723c-4318-a94c-a7ae88033c2d"},"payment":{"amount":{"code":"USD","system":"urn:iso:std:iso:4217","value":0}},"provider":{"identifier":{"value":"7508a73f-4110-4010-a236-f6a77a2c0346"}},"resourceType":"ExplanationOfBenefit","status":"active","totalCost":{"code":"USD","system":"urn:iso:std:iso:4217","value":125},"type":{"coding":[{"code":"71","display":"Local carrier non-durable medical equipment, prosthetics, orthotics, and supplies (DMEPOS) claim","system":"https://bluebutton.cms.gov/resources/variables/nch_clm_type_cd"},{"code":"CARRIER","display":"EOB Type","system":"https://bluebutton.cms.gov/resources/codesystem/eob-type"},{"code":"professional","display":"Claim Type","system":"http://hl7.org/fhir/ex-claimtype"},{"code":"O","display":"Part B physician/supplier claim record (processed by local carriers; can include DMEPOS services)","system":"https://bluebutton.cms.gov/resources/variables/nch_near_line_rec_ident_cd"}]}}},{"resource":{"billablePeriod":{"end":"2013-12-03T19:57:12-05:00","start":"2012-12-03T19:57:12-05:00"},"careTeam":[{"provider":{"identifier":{"system":"http://hl7.org/fhir/sid/us-npi","value":"99999999"}},"role":{"coding":[{"code":"primary","display":"Primary Care Practitioner","system":"http://hl7.org/fhir/claimcareteamrole"}]},"sequence":1}],"claim":{"reference":"Claim/32b13ebe-bb7e-4139-b059-a11f56e705ef"},"contained":[{"id":"1","intent":"order","recipient":[{"identifier":{"system":"http://hl7.org/fhir/sid/us-npi","value":"99999999"}}],"requester":{"agent":{"identifier":{"system":"http://hl7.org/fhir/sid/us-npi","value":"99999999"}}},"resourceType":"ReferralRequest","status":"completed","subject":{"reference":"Patient/00a3c662-723c-4318-a94c-a7ae88033c2d"}},{"id":"coverage","resourceType":"Coverage","type":{"text":"private"}}],"created":"2012-12-03T19:57:12-05:00","id":"468d1f70-59b3-443a-8ae2-49587280847c","identifier":[{"system":"https://bluebutton.cms.gov/resources/variables/clm_id","value":"32b13ebe-bb7e-4139-b059-a11f56e705ef"},{"system":"https://bluebutton.cms.gov/resources/identifier/claim-group","value":"99999999999"}],"insurance":{"coverage":{"reference":"#coverage"}},"item":[{"category":{"coding":[{"code":"1","display":"Medical care","system":"https://bluebutton.cms.gov/resources/variables/line_cms_type_srvc_cd"}]},"encounter":[{"reference":"Encounter/c61319cd-aeb6-4c6e-8f78-8d0d8c187a42"}],"locationCodeableConcept":{"coding":[{"code":"21","display":"Inpatient Hospital","system":"https://bluebutton.cms.gov/resources/variables/line_place_of_srvc_cd"}]},"sequence":1,"servicedPeriod":{"end":"2012-12-03T19:57:12-05:00","start":"2012-12-03T19:27:12-05:00"}},{"adjudication":[{"amount":{"code":"USD","system":"urn:iso:std:iso:4217","value":28.104000000000003},"category":{"coding":[{"code":"https://bluebutton.cms.gov/resources/variables/line_coinsrnc_amt","display":"Line Beneficiary Coinsurance Amount","system":"https://bluebutton.cms.gov/resources/codesystem/adjudication"}]}},{"amount":{"code":"USD","system":"urn:iso:std:iso:4217","value":112.41600000000001},"category":{"coding":[{"code":"https://bluebutton.cms.gov/resources/variables/line_prvdr_pmt_amt","display":"Line Provider Payment Amount","system":"https://bluebutton.cms.gov/resources/codesystem/adjudication"}]}},{"amount":{"code":"USD","system":"urn:iso:std:iso:4217","value":140.52},"category":{"coding":[{"code":"https://bluebutton.cms.gov/resources/variables/line_sbmtd_chrg_amt","display":"Line Submitted Charge Amount","system":"https://bluebutton.cms.gov/resources/codesystem/adjudication"}]}},{"amount":{"code":"USD","system":"urn:iso:std:iso:4217","value":140.52},"category":{"coding":[{"code":"https://bluebutton.cms.gov/resources/variables/line_alowd_chrg_amt","display":"Line Allowed Charge Amount","system":"https://bluebutton.cms.gov/resources/codesystem/adjudication"}]}},{"amount":{"code":"USD","system":"urn:iso:std:iso:4217","value":0},"category":{"coding":[{"code":"https://bluebutton.cms.gov/resources/variables/line_bene_ptb_ddctbl_amt","display":"Line Beneficiary Part B Deductible Amount","system":"https://bluebutton.cms.gov/resources/codesystem/adjudication"}]}},{"category":{"coding":[{"code":"https://bluebutton.cms.gov/resources/variables/line_prcsg_ind_cd","display":"Line Processing Indicator Code","system":"https://bluebutton.cms.gov/resources/codesystem/adjudication"}]},"reason":{"coding":[{"code":"A","display":"Allowed","system":"https://bluebutton.cms.gov/resources/variables/line_prcsg_ind_cd"}]}}],"category":{"coding":[{"code":"1","display":"Medical care","system":"https://bluebutton.cms.gov/resources/variables/line_cms_type_srvc_cd"}]},"informationLinkId":[1],"locationCodeableConcept":{"coding":[{"code":"21","display":"Inpatient Hospital","system":"https://bluebutton.cms.gov/resources/variables/line_place_of_srvc_cd"}]},"net":{"code":"USD","system":"urn:iso:std:iso:4217","value":140.52},"sequence":2,"servicedPeriod":{"end":"2012-12-03T19:57:12-05:00","start":"2012-12-03T19:27:12-05:00"}},{"adjudication":[{"amount":{"code":"USD","system":"urn:iso:std:iso:4217","value":28.104000000000003},"category":{"coding":[{"code":"https://bluebutton.cms.gov/resources/variables/line_coinsrnc_amt","display":"Line Beneficiary Coinsurance Amount","system":"https://bluebutton.cms.gov/resources/codesystem/adjudication"}]}},{"amount":{"code":"USD","system":"urn:iso:std:iso:4217","value":112.41600000000001},"category":{"coding":[{"code":"https://bluebutton.cms.gov/resources/variables/line_prvdr_pmt_amt","display":"Line Provider Payment Amount","system":"https://bluebutton.cms.gov/resources/codesystem/adjudication"}]}},{"amount":{"code":"USD","system":"urn:iso:std:iso:4217","value":140.52},"category":{"coding":[{"code":"https://bluebutton.cms.gov/resources/variables/line_sbmtd_chrg_amt","display":"Line Submitted Charge Amount","system":"https://bluebutton.cms.gov/resources/codesystem/adjudication"}]}},{"amount":{"code":"USD","system":"urn:iso:std:iso:4217","value":140.52},"category":{"coding":[{"code":"https://bluebutton.cms.gov/resources/variables/line_alowd_chrg_amt","display":"Line Allowed Charge Amount","system":"https://bluebutton.cms.gov/resources/codesystem/adjudication"}]}},{"amount":{"code":"USD","system":"urn:iso:std:iso:4217","value":0},"category":{"coding":[{"code":"https://bluebutton.cms.gov/resources/variables/line_bene_ptb_ddctbl_amt","display":"Line Beneficiary Part B Deductible Amount","system":"https://bluebutton.cms.gov/resources/codesystem/adjudication"}]}},{"category":{"coding":[{"code":"https://bluebutton.cms.gov/resources/variables/line_prcsg_ind_cd","display":"Line Processing Indicator Code","system":"https://bluebutton.cms.gov/resources/codesystem/adjudication"}]},"reason":{"coding":[{"code":"A","display":"Allowed","system":"https://bluebutton.cms.gov/resources/variables/line_prcsg_ind_cd"}]}}],"category":{"coding":[{"code":"1","display":"Medical care","system":"https://bluebutton.cms.gov/resources/variables/line_cms_type_srvc_cd"}]},"informationLinkId":[2],"locationCodeableConcept":{"coding":[{"code":"21","display":"Inpatient Hospital","system":"https://bluebutton.cms.gov/resources/variables/line_place_of_srvc_cd"}]},"net":{"code":"USD","system":"urn:iso:std:iso:4217","value":140.52},"sequence":3,"servicedPeriod":{"end":"2012-12-03T19:57:12-05:00","start":"2012-12-03T19:27:12-05:00"}},{"adjudication":[{"amount":{"code":"USD","system":"urn:iso:std:iso:4217","value":153.596},"category":{"coding":[{"code":"https://bluebutton.cms.gov/resources/variables/line_coinsrnc_amt","display":"Line Beneficiary Coinsurance Amount","system":"https://bluebutton.cms.gov/resources/codesystem/adjudication"}]}},{"amount":{"code":"USD","system":"urn:iso:std:iso:4217","value":614.384},"category":{"coding":[{"code":"https://bluebutton.cms.gov/resources/variables/line_prvdr_pmt_amt","display":"Line Provider Payment Amount","system":"https://bluebutton.cms.gov/resources/codesystem/adjudication"}]}},{"amount":{"code":"USD","system":"urn:iso:std:iso:4217","value":767.98},"category":{"coding":[{"code":"https://bluebutton.cms.gov/resources/variables/line_sbmtd_chrg_amt","display":"Line Submitted Charge Amount","system":"https://bluebutton.cms.gov/resources/codesystem/adjudication"}]}},{"amount":{"code":"USD","system":"urn:iso:std:iso:4217","value":767.98},"category":{"coding":[{"code":"https://bluebutton.cms.gov/resources/variables/line_alowd_chrg_amt","display":"Line Allowed Charge Amount","system":"https://bluebutton.cms.gov/resources/codesystem/adjudication"}]}},{"amount":{"code":"USD","system":"urn:iso:std:iso:4217","value":0},"category":{"coding":[{"code":"https://bluebutton.cms.gov/resources/variables/line_bene_ptb_ddctbl_amt","display":"Line Beneficiary Part B Deductible Amount","system":"https://bluebutton.cms.gov/resources/codesystem/adjudication"}]}},{"category":{"coding":[{"code":"https://bluebutton.cms.gov/resources/variables/line_prcsg_ind_cd","display":"Line Processing Indicator Code","system":"https://bluebutton.cms.gov/resources/codesystem/adjudication"}]},"reason":{"coding":[{"code":"A","display":"Allowed","system":"https://bluebutton.cms.gov/resources/variables/line_prcsg_ind_cd"}]}}],"category":{"coding":[{"code":"1","display":"Medical care","system":"https://bluebutton.cms.gov/resources/variables/line_cms_type_srvc_cd"}]},"locationCodeableConcept":{"coding":[{"code":"21","display":"Inpatient Hospital","system":"https://bluebutton.cms.gov/resources/variables/line_place_of_srvc_cd"}]},"net":{"code":"USD","system":"urn:iso:std:iso:4217","value":767.98},"sequence":4,"service":{"coding":[{"code":"428191000124101","system":"http://snomed.info/sct","version":"v1"}]},"servicedPeriod":{"end":"2012-12-03T19:57:12-05:00","start":"2012-12-03T19:27:12-05:00"}}],"meta":{"lastUpdated":"2019-04-09T09:29:31.926067+00:00","versionId":"MTU1NDgwMjE3MTkyNjA2NzAwMA"},"organization":{"identifier":{"value":"3d5babec-3884-4754-960d-45195bc05bed"}},"patient":{"reference":"Patient/00a3c662-723c-4318-a94c-a7ae88033c2d"},"payment":{"amount":{"code":"USD","system":"urn:iso:std:iso:4217","value":839.216}},"provider":{"identifier":{"value":"7508a73f-4110-4010-a236-f6a77a2c0346"}},"referral":{"reference":"#1"},"resourceType":"ExplanationOfBenefit","status":"active","totalCost":{"code":"USD","system":"urn:iso:std:iso:4217","value":1174.02},"type":{"coding":[{"code":"71","display":"Local carrier non-durable medical equipment, prosthetics, orthotics, and supplies (DMEPOS) claim","system":"https://bluebutton.cms.gov/resources/variables/nch_clm_type_cd"},{"code":"CARRIER","display":"EOB Type","system":"https://bluebutton.cms.gov/resources/codesystem/eob-type"},{"code":"professional","display":"Claim Type","system":"http://hl7.org/fhir/ex-claimtype"},{"code":"O","display":"Part B physician/supplier claim record (processed by local carriers; can include DMEPOS services)","system":"https://bluebutton.cms.gov/resources/variables/nch_near_line_rec_ident_cd"}]}}},{"resource":{"billablePeriod":{"end":"1971-03-23T19:42:12-05:00","extension":[{"url":"https://bluebutton.cms.gov/assets/ig/StructureDefinition-bluebutton-inpatient-claim-query-cd-extension","valueCoding":{"code":"3","display":"Final Bill","system":"https://bluebutton.cms.gov/assets/ig/ValueSet-claim-query-cd"}}],"start":"1970-03-23T19:42:12-05:00"},"careTeam":[{"provider":{"identifier":{"system":"http://hl7.org/fhir/sid/us-npi","value":"99999999"}},"role":{"coding":[{"code":"primary","display":"Primary Care Practitioner","system":"http://hl7.org/fhir/claimcareteamrole"}]},"sequence":1}],"contained":[{"id":"coverage","resourceType":"Coverage","type":{"text":"private"}}],"extension":[{"url":"https://bluebutton.cms.gov/assets/ig/StructureDefinition-bluebutton-inpatient-ime-op-clm-val-amt-extension","valueMoney":{"code":"USD","system":"urn:iso:std:iso:4217","value":400}},{"url":"https://bluebutton.cms.gov/assets/ig/StructureDefinition-bluebutton-inpatient-dsh-op-clm-val-amt-extension","valueMoney":{"code":"USD","system":"urn:iso:std:iso:4217","value":0}},{"url":"https://bluebutton.cms.gov/assets/ig/StructureDefinition-bluebutton-inpatient-clm-pass-thru-per-diem-amt-extension","valueMoney":{"code":"USD","system":"urn:iso:std:iso:4217","value":0}},{"url":"https://bluebutton.cms.gov/assets/ig/StructureDefinition-bluebutton-inpatient-nch-profnl-cmpnt-chrg-amt-extension","valueMoney":{"code":"USD","system":"urn:iso:std:iso:4217","value":0}},{"url":"https://bluebutton.cms.gov/assets/ig/StructureDefinition-bluebutton-inpatient-clm-tot-pps-cptl-amt-extension","valueMoney":{"code":"USD","system":"urn:iso:std:iso:4217","value":0}},{"url":"https://bluebutton.cms.gov/assets/ig/StructureDefinition-bluebutton-inpatient-nch-bene-ip-ddctbl-amt-extension","valueMoney":{"code":"USD","system":"urn:iso:std:iso:4217","value":0}},{"url":"https://bluebutton.cms.gov/assets/ig/StructureDefinition-bluebutton-inpatient-nch-bene-pta-coinsrnc-lblty-amt-extension","valueMoney":{"code":"USD","system":"urn:iso:std:iso:4217","value":0}},{"url":"https://bluebutton.cms.gov/assets/ig/StructureDefinition-bluebutton-inpatient-nch-ip-ncvrd-chrg-amt-extension","valueMoney":{"code":"USD","system":"urn:iso:std:iso:4217","value":0}},{"url":"https://bluebutton.cms.gov/assets/ig/StructureDefinition-bluebutton-inpatient-nch-ip-tot-ddctn-amt-extension","valueMoney":{"code":"USD","system":"urn:iso:std:iso:4217","value":0}},{"url":"https://bluebutton.cms.gov/assets/ig/StructureDefinition-bluebutton-inpatient-clm-pps-cptl-dsprprtnt-shr-amt-extension","valueMoney":{"code":"USD","system":"urn:iso:std:iso:4217","value":0}},{"url":"https://bluebutton.cms.gov/assets/ig/StructureDefinition-bluebutton-inpatient-clm-pps-cptl-excptn-amt-extension","valueMoney":{"code":"USD","system":"urn:iso:std:iso:4217","value":0}},{"url":"https://bluebutton.cms.gov/assets/ig/StructureDefinition-bluebutton-inpatient-clm-pps-cptl-fsp-amt-extension","valueMoney":{"code":"USD","system":"urn:iso:std:iso:4217","value":0}},{"url":"https://bluebutton.cms.gov/assets/ig/StructureDefinition-bluebutton-inpatient-clm-pps-cptl-ime-amt-extension","valueMoney":{"code":"USD","system":"urn:iso:std:iso:4217","value":400}},{"url":"https://bluebutton.cms.gov/assets/ig/StructureDefinition-bluebutton-inpatient-clm-pps-cptl-outlier-amt-extension","valueMoney":{"code":"USD","system":"urn:iso:std:iso:4217","value":0}},{"url":"https://bluebutton.cms.gov/assets/ig/StructureDefinition-bluebutton-inpatient-clm-pps-old-cptl-hld-hrmls-amt-extension","valueMoney":{"code":"USD","system":"urn:iso:std:iso:4217","value":0}},{"url":"https://bluebutton.cms.gov/assets/ig/StructureDefinition-bluebutton-inpatient-nch-drg-outlier-aprvd-pmt-amt-extension","valueMoney":{"code":"USD","system":"urn:iso:std:iso:4217","value":0}},{"url":"https://bluebutton.cms.gov/assets/ig/StructureDefinition-bluebutton-inpatient-nch-bene-blood-ddctbl-lblty-am-extension","valueMoney":{"code":"USD","system":"urn:iso:std:iso:4217","value":0}},{"url":"https://bluebutton.cms.gov/assets/ig/StructureDefinition-bluebutton-inpatient-clm-mdcr-non-pmt-rsn-cd-extension","valueCoding":{"code":"N","display":"All other reasons for non-payment","system":"https://bluebutton.cms.gov/assets/ig/CodeSystem-clm-mdcr-non-pmt-rsn-cd"}},{"url":"https://bluebutton.cms.gov/assets/ig/StructureDefinition-bluebutton-inpatient-prpayamt-extension","valueMoney":{"code":"USD","system":"urn:iso:std:iso:4217","value":0}},{"url":"https://bluebutton.cms.gov/assets/ig/StructureDefinition-bluebutton-inpatient-fi-num-extension","valueIdentifier":{"system":"https://bluebutton.cms.gov/assets/ig/CodeSystem-fi-num","value":"002000"}}],"id":"4b994d2f-ebcd-4672-be0f-36e12e2e3de5","identifier":[{"system":"https://bluebutton.cms.gov/resources/variables/clm_id","value":"7d32c404-eb22-47e3-9cbb-4098d4daf957"},{"system":"https://bluebutton.cms.gov/resources/identifier/claim-group","value":"99999999999"}],"insurance":{"coverage":{"reference":"#coverage"}},"item":[{"extension":[{"url":"https://bluebutton.cms.gov/assets/ig/StructureDefinition-bluebutton-inpatient-rev-cntr-ndc-qty-extension","valueQuantity":{"value":0}}],"locationCodeableConcept":{"coding":[{"code":"21","display":"Inpatient Hospital","system":"https://bluebutton.cms.gov/resources/variables/line_place_of_srvc_cd"}]},"sequence":1}],"meta":{"lastUpdated":"2019-04-09T09:29:30.905991+00:00","profile":["https://bluebutton.cms.gov/assets/ig/StructureDefinition-bluebutton-inpatient-claim"],"versionId":"MTU1NDgwMjE3MDkwNTk5MTAwMA"},"organization":{"identifier":{"value":"3d5babec-3884-4754-960d-45195bc05bed"}},"patient":{"reference":"Patient/00a3c662-723c-4318-a94c-a7ae88033c2d"},"payment":{"amount":{"code":"USD","system":"urn:iso:std:iso:4217","value":0}},"provider":{"identifier":{"value":"7508a73f-4110-4010-a236-f6a77a2c0346"}},"resourceType":"ExplanationOfBenefit","status":"active","totalCost":{"code":"USD","system":"urn:iso:std:iso:4217","value":125},"type":{"coding":[{"code":"71","display":"Local carrier non-durable medical equipment, prosthetics, orthotics, and supplies (DMEPOS) claim","system":"https://bluebutton.cms.gov/resources/variables/nch_clm_type_cd"},{"code":"CARRIER","display":"EOB Type","system":"https://bluebutton.cms.gov/resources/codesystem/eob-type"},{"code":"professional","display":"Claim Type","system":"http://hl7.org/fhir/ex-claimtype"},{"code":"O","display":"Part B physician/supplier claim record (processed by local carriers; can include DMEPOS services)","system":"https://bluebutton.cms.gov/resources/variables/nch_near_line_rec_ident_cd"}]}}},{"resource":{"billablePeriod":{"end":"2016-07-24T20:42:12-04:00","extension":[{"url":"https://bluebutton.cms.gov/assets/ig/StructureDefinition-bluebutton-outpatient-claim-query-cd-extension","valueCoding":{"code":"3","display":"Final Bill","system":"https://bluebutton.cms.gov/assets/ig/ValueSet-claim-query-cd"}}],"start":"2015-07-24T20:42:12-04:00"},"careTeam":[{"provider":{"identifier":{"system":"http://hl7.org/fhir/sid/us-npi","value":"99999999"}},"role":{"coding":[{"code":"primary","display":"Primary Care Practitioner","system":"http://hl7.org/fhir/claimcareteamrole"}]},"sequence":1}],"contained":[{"id":"coverage","resourceType":"Coverage","type":{"text":"private"}}],"extension":[{"url":"https://bluebutton.cms.gov/assets/ig/StructureDefinition-bluebutton-outpatient-nch-profnl-cmpnt-chrg-amt-extension","valueMoney":{"code":"USD","system":"urn:iso:std:iso:4217","value":0}},{"url":"https://bluebutton.cms.gov/assets/ig/StructureDefinition-bluebutton-outpatient-nch-bene-ptb-ddctbl-amt-extension","valueMoney":{"code":"USD","system":"urn:iso:std:iso:4217","value":0}},{"url":"https://bluebutton.cms.gov/assets/ig/StructureDefinition-bluebutton-outpatient-nch-bene-ptb-coinsrnc-amt-extension","valueMoney":{"code":"USD","system":"urn:iso:std:iso:4217","value":0}},{"url":"https://bluebutton.cms.gov/assets/ig/StructureDefinition-bluebutton-outpatient-clm-op-prvdr-pmt-amt-extension","valueMoney":{"code":"USD","system":"urn:iso:std:iso:4217","value":0}},{"url":"https://bluebutton.cms.gov/assets/ig/StructureDefinition-bluebutton-outpatient-clm-op-bene-pmt-amt-extension","valueMoney":{"code":"USD","system":"urn:iso:std:iso:4217","value":0}},{"url":"https://bluebutton.cms.gov/assets/ig/StructureDefinition-bluebutton-outpatient-nch-bene-blood-ddctbl-lblty-am-extension","valueMoney":{"code":"USD","system":"urn:iso:std:iso:4217","value":0}},{"url":"https://bluebutton.cms.gov/assets/ig/StructureDefinition-bluebutton-outpatient-clm-mdcr-non-pmt-rsn-cd-extension","valueCoding":{"code":"N","display":"All other reasons for non-payment","system":"https://bluebutton.cms.gov/assets/ig/CodeSystem-clm-mdcr-non-pmt-rsn-cd"}},{"url":"https://bluebutton.cms.gov/assets/ig/StructureDefinition-bluebutton-outpatient-prpayamt-extension","valueMoney":{"code":"USD","system":"urn:iso:std:iso:4217","value":0}},{"url":"https://bluebutton.cms.gov/assets/ig/StructureDefinition-bluebutton-outpatient-fi-num-extension","valueIdentifier":{"system":"https://bluebutton.cms.gov/assets/ig/CodeSystem-fi-num","value":"002000"}}],"id":"59687627-85d7-42b7-8762-c2129344ef5c","identifier":[{"system":"https://bluebutton.cms.gov/resources/variables/clm_id","value":"efba16e5-9bef-4d85-a8ba-dbfff152b6ad"},{"system":"https://bluebutton.cms.gov/resources/identifier/claim-group","value":"99999999999"}],"insurance":{"coverage":{"reference":"#coverage"}},"item":[{"extension":[{"url":"https://bluebutton.cms.gov/assets/ig/StructureDefinition-bluebutton-outpatient-rev-cntr-ndc-qty-extension","valueQuantity":{"value":0}}],"locationCodeableConcept":{"coding":[{"code":"21","display":"Inpatient Hospital","system":"https://bluebutton.cms.gov/resources/variables/line_place_of_srvc_cd"}]},"sequence":1}],"meta":{"lastUpdated":"2019-04-09T09:29:33.987548+00:00","profile":["https://bluebutton.cms.gov/assets/ig/StructureDefinition-bluebutton-outpatient-claim"],"versionId":"MTU1NDgwMjE3Mzk4NzU0ODAwMA"},"organization":{"identifier":{"value":"3d5babec-3884-4754-960d-45195bc05bed"}},"patient":{"reference":"Patient/00a3c662-723c-4318-a94c-a7ae88033c2d"},"payment":{"amount":{"code":"USD","system":"urn:iso:std:iso:4217","value":0}},"provider":{"identifier":{"value":"7508a73f-4110-4010-a236-f6a77a2c0346"}},"resourceType":"ExplanationOfBenefit","status":"active","totalCost":{"code":"USD","system":"urn:iso:std:iso:4217","value":125},"type":{"coding":[{"code":"71","display":"Local carrier non-durable medical equipment, prosthetics, orthotics, and supplies (DMEPOS) claim","system":"https://bluebutton.cms.gov/resources/variables/nch_clm_type_cd"},{"code":"CARRIER","display":"EOB Type","system":"https://bluebutton.cms.gov/resources/codesystem/eob-type"},{"code":"professional","display":"Claim Type","system":"http://hl7.org/fhir/ex-claimtype"},{"code":"O","display":"Part B physician/supplier claim record (processed by local carriers; can include DMEPOS services)","system":"https://bluebutton.cms.gov/resources/variables/nch_near_line_rec_ident_cd"}]}}},{"resource":{"billablePeriod":{"end":"2018-10-02T20:42:12-04:00","start":"2017-10-02T20:42:12-04:00"},"careTeam":[{"provider":{"identifier":{"system":"http://hl7.org/fhir/sid/us-npi","value":"99999999"}},"role":{"coding":[{"code":"primary","display":"Primary Care Practitioner","system":"http://hl7.org/fhir/claimcareteamrole"}]},"sequence":1}],"claim":{"reference":"Claim/b67ca4af-21f8-4d57-8a5e-597372bf3aba"},"contained":[{"id":"1","intent":"order","recipient":[{"identifier":{"system":"http://hl7.org/fhir/sid/us-npi","value":"99999999"}}],"requester":{"agent":{"identifier":{"system":"http://hl7.org/fhir/sid/us-npi","value":"99999999"}}},"resourceType":"ReferralRequest","status":"completed","subject":{"reference":"Patient/00a3c662-723c-4318-a94c-a7ae88033c2d"}},{"id":"coverage","resourceType":"Coverage","type":{"text":"private"}}],"created":"2017-10-02T20:42:12-04:00","id":"617b0c11-a252-4dad-b928-a01d72f13fef","identifier":[{"system":"https://bluebutton.cms.gov/resources/variables/clm_id","value":"b67ca4af-21f8-4d57-8a5e-597372bf3aba"},{"system":"https://bluebutton.cms.gov/resources/identifier/claim-group","value":"99999999999"}],"insurance":{"coverage":{"reference":"#coverage"}},"item":[{"category":{"coding":[{"code":"1","display":"Medical care","system":"https://bluebutton.cms.gov/resources/variables/line_cms_type_srvc_cd"}]},"encounter":[{"reference":"Encounter/c038f83a-e61a-4e1e-b643-7506ad7efe7a"}],"locationCodeableConcept":{"coding":[{"code":"21","display":"Inpatient Hospital","system":"https://bluebutton.cms.gov/resources/variables/line_place_of_srvc_cd"}]},"sequence":1,"servicedPeriod":{"end":"2017-10-02T20:42:12-04:00","start":"2017-10-02T20:27:12-04:00"}},{"adjudication":[{"amount":{"code":"USD","system":"urn:iso:std:iso:4217","value":28.104000000000003},"category":{"coding":[{"code":"https://bluebutton.cms.gov/resources/variables/line_coinsrnc_amt","display":"Line Beneficiary Coinsurance Amount","system":"https://bluebutton.cms.gov/resources/codesystem/adjudication"}]}},{"amount":{"code":"USD","system":"urn:iso:std:iso:4217","value":112.41600000000001},"category":{"coding":[{"code":"https://bluebutton.cms.gov/resources/variables/line_prvdr_pmt_amt","display":"Line Provider Payment Amount","system":"https://bluebutton.cms.gov/resources/codesystem/adjudication"}]}},{"amount":{"code":"USD","system":"urn:iso:std:iso:4217","value":140.52},"category":{"coding":[{"code":"https://bluebutton.cms.gov/resources/variables/line_sbmtd_chrg_amt","display":"Line Submitted Charge Amount","system":"https://bluebutton.cms.gov/resources/codesystem/adjudication"}]}},{"amount":{"code":"USD","system":"urn:iso:std:iso:4217","value":140.52},"category":{"coding":[{"code":"https://bluebutton.cms.gov/resources/variables/line_alowd_chrg_amt","display":"Line Allowed Charge Amount","system":"https://bluebutton.cms.gov/resources/codesystem/adjudication"}]}},{"amount":{"code":"USD","system":"urn:iso:std:iso:4217","value":0},"category":{"coding":[{"code":"https://bluebutton.cms.gov/resources/variables/line_bene_ptb_ddctbl_amt","display":"Line Beneficiary Part B Deductible Amount","system":"https://bluebutton.cms.gov/resources/codesystem/adjudication"}]}},{"category":{"coding":[{"code":"https://bluebutton.cms.gov/resources/variables/line_prcsg_ind_cd","display":"Line Processing Indicator Code","system":"https://bluebutton.cms.gov/resources/codesystem/adjudication"}]},"reason":{"coding":[{"code":"A","display":"Allowed","system":"https://bluebutton.cms.gov/resources/variables/line_prcsg_ind_cd"}]}}],"category":{"coding":[{"code":"1","display":"Medical care","system":"https://bluebutton.cms.gov/resources/variables/line_cms_type_srvc_cd"}]},"informationLinkId":[1],"locationCodeableConcept":{"coding":[{"code":"21","display":"Inpatient Hospital","system":"https://bluebutton.cms.gov/resources/variables/line_place_of_srvc_cd"}]},"net":{"code":"USD","system":"urn:iso:std:iso:4217","value":140.52},"sequence":2,"servicedPeriod":{"end":"2017-10-02T20:42:12-04:00","start":"2017-10-02T20:27:12-04:00"}}],"meta":{"lastUpdated":"2019-04-09T09:29:35.039105+00:00","versionId":"MTU1NDgwMjE3NTAzOTEwNTAwMA"},"organization":{"identifier":{"value":"090b22c1-b263-41bd-b320-0ce3ad248a16"}},"patient":{"reference":"Patient/00a3c662-723c-4318-a94c-a7ae88033c2d"},"payment":{"amount":{"code":"USD","system":"urn:iso:std:iso:4217","value":112.41600000000001}},"provider":{"identifier":{"value":"c52ccc70-b2ce-4bca-bac1-7a6a32d30ff5"}},"referral":{"reference":"#1"},"resourceType":"ExplanationOfBenefit","status":"active","totalCost":{"code":"USD","system":"urn:iso:std:iso:4217","value":265.52},"type":{"coding":[{"code":"71","display":"Local carrier non-durable medical equipment, prosthetics, orthotics, and supplies (DMEPOS) claim","system":"https://bluebutton.cms.gov/resources/variables/nch_clm_type_cd"},{"code":"CARRIER","display":"EOB Type","system":"https://bluebutton.cms.gov/resources/codesystem/eob-type"},{"code":"professional","display":"Claim Type","system":"http://hl7.org/fhir/ex-claimtype"},{"code":"O","display":"Part B physician/supplier claim record (processed by local carriers; can include DMEPOS services)","system":"https://bluebutton.cms.gov/resources/variables/nch_near_line_rec_ident_cd"}]}}},{"resource":{"billablePeriod":{"end":"2012-01-24T19:42:12-05:00","extension":[{"url":"https://bluebutton.cms.gov/assets/ig/StructureDefinition-bluebutton-inpatient-claim-query-cd-extension","valueCoding":{"code":"3","display":"Final Bill","system":"https://bluebutton.cms.gov/assets/ig/ValueSet-claim-query-cd"}}],"start":"2011-01-24T19:42:12-05:00"},"careTeam":[{"provider":{"identifier":{"system":"http://hl7.org/fhir/sid/us-npi","value":"99999999"}},"role":{"coding":[{"code":"primary","display":"Primary Care Practitioner","system":"http://hl7.org/fhir/claimcareteamrole"}]},"sequence":1}],"contained":[{"id":"coverage","resourceType":"Coverage","type":{"text":"private"}}],"extension":[{"url":"https://bluebutton.cms.gov/assets/ig/StructureDefinition-bluebutton-inpatient-ime-op-clm-val-amt-extension","valueMoney":{"code":"USD","system":"urn:iso:std:iso:4217","value":400}},{"url":"https://bluebutton.cms.gov/assets/ig/StructureDefinition-bluebutton-inpatient-dsh-op-clm-val-amt-extension","valueMoney":{"code":"USD","system":"urn:iso:std:iso:4217","value":0}},{"url":"https://bluebutton.cms.gov/assets/ig/StructureDefinition-bluebutton-inpatient-clm-pass-thru-per-diem-amt-extension","valueMoney":{"code":"USD","system":"urn:iso:std:iso:4217","value":0}},{"url":"https://bluebutton.cms.gov/assets/ig/StructureDefinition-bluebutton-inpatient-nch-profnl-cmpnt-chrg-amt-extension","valueMoney":{"code":"USD","system":"urn:iso:std:iso:4217","value":0}},{"url":"https://bluebutton.cms.gov/assets/ig/StructureDefinition-bluebutton-inpatient-clm-tot-pps-cptl-amt-extension","valueMoney":{"code":"USD","system":"urn:iso:std:iso:4217","value":0}},{"url":"https://bluebutton.cms.gov/assets/ig/StructureDefinition-bluebutton-inpatient-nch-bene-ip-ddctbl-amt-extension","valueMoney":{"code":"USD","system":"urn:iso:std:iso:4217","value":0}},{"url":"https://bluebutton.cms.gov/assets/ig/StructureDefinition-bluebutton-inpatient-nch-bene-pta-coinsrnc-lblty-amt-extension","valueMoney":{"code":"USD","system":"urn:iso:std:iso:4217","value":0}},{"url":"https://bluebutton.cms.gov/assets/ig/StructureDefinition-bluebutton-inpatient-nch-ip-ncvrd-chrg-amt-extension","valueMoney":{"code":"USD","system":"urn:iso:std:iso:4217","value":0}},{"url":"https://bluebutton.cms.gov/assets/ig/StructureDefinition-bluebutton-inpatient-nch-ip-tot-ddctn-amt-extension","valueMoney":{"code":"USD","system":"urn:iso:std:iso:4217","value":0}},{"url":"https://bluebutton.cms.gov/assets/ig/StructureDefinition-bluebutton-inpatient-clm-pps-cptl-dsprprtnt-shr-amt-extension","valueMoney":{"code":"USD","system":"urn:iso:std:iso:4217","value":0}},{"url":"https://bluebutton.cms.gov/assets/ig/StructureDefinition-bluebutton-inpatient-clm-pps-cptl-excptn-amt-extension","valueMoney":{"code":"USD","system":"urn:iso:std:iso:4217","value":0}},{"url":"https://bluebutton.cms.gov/assets/ig/StructureDefinition-bluebutton-inpatient-clm-pps-cptl-fsp-amt-extension","valueMoney":{"code":"USD","system":"urn:iso:std:iso:4217","value":0}},{"url":"https://bluebutton.cms.gov/assets/ig/StructureDefinition-bluebutton-inpatient-clm-pps-cptl-ime-amt-extension","valueMoney":{"code":"USD","system":"urn:iso:std:iso:4217","value":400}},{"url":"https://bluebutton.cms.gov/assets/ig/StructureDefinition-bluebutton-inpatient-clm-pps-cptl-outlier-amt-extension","valueMoney":{"code":"USD","system":"urn:iso:std:iso:4217","value":0}},{"url":"https://bluebutton.cms.gov/assets/ig/StructureDefinition-bluebutton-inpatient-clm-pps-old-cptl-hld-hrmls-amt-extension","valueMoney":{"code":"USD","system":"urn:iso:std:iso:4217","value":0}},{"url":"https://bluebutton.cms.gov/assets/ig/StructureDefinition-bluebutton-inpatient-nch-drg-outlier-aprvd-pmt-amt-extension","valueMoney":{"code":"USD","system":"urn:iso:std:iso:4217","value":0}},{"url":"https://bluebutton.cms.gov/assets/ig/StructureDefinition-bluebutton-inpatient-nch-bene-blood-ddctbl-lblty-am-extension","valueMoney":{"code":"USD","system":"urn:iso:std:iso:4217","value":0}},{"url":"https://bluebutton.cms.gov/assets/ig/StructureDefinition-bluebutton-inpatient-clm-mdcr-non-pmt-rsn-cd-extension","valueCoding":{"code":"N","display":"All other reasons for non-payment","system":"https://bluebutton.cms.gov/assets/ig/CodeSystem-clm-mdcr-non-pmt-rsn-cd"}},{"url":"https://bluebutton.cms.gov/assets/ig/StructureDefinition-bluebutton-inpatient-prpayamt-extension","valueMoney":{"code":"USD","system":"urn:iso:std:iso:4217","value":0}},{"url":"https://bluebutton.cms.gov/assets/ig/StructureDefinition-bluebutton-inpatient-fi-num-extension","valueIdentifier":{"system":"https://bluebutton.cms.gov/assets/ig/CodeSystem-fi-num","value":"002000"}}],"id":"71e66b49-7c64-4666-920b-ec89f6257990","identifier":[{"system":"https://bluebutton.cms.gov/resources/variables/clm_id","value":"3d933c87-0113-463c-b633-e14fcfd5464c"},{"system":"https://bluebutton.cms.gov/resources/identifier/claim-group","value":"99999999999"}],"insurance":{"coverage":{"reference":"#coverage"}},"item":[{"extension":[{"url":"https://bluebutton.cms.gov/assets/ig/StructureDefinition-bluebutton-inpatient-rev-cntr-ndc-qty-extension","valueQuantity":{"value":0}}],"locationCodeableConcept":{"coding":[{"code":"21","display":"Inpatient Hospital","system":"https://bluebutton.cms.gov/resources/variables/line_place_of_srvc_cd"}]},"sequence":1}],"meta":{"lastUpdated":"2019-04-09T09:29:31.920670+00:00","profile":["https://bluebutton.cms.gov/assets/ig/StructureDefinition-bluebutton-inpatient-claim"],"versionId":"MTU1NDgwMjE3MTkyMDY3MDAwMA"},"organization":{"identifier":{"value":"3d5babec-3884-4754-960d-45195bc05bed"}},"patient":{"reference":"Patient/00a3c662-723c-4318-a94c-a7ae88033c2d"},"payment":{"amount":{"code":"USD","system":"urn:iso:std:iso:4217","value":0}},"provider":{"identifier":{"value":"7508a73f-4110-4010-a236-f6a77a2c0346"}},"resourceType":"ExplanationOfBenefit","status":"active","totalCost":{"code":"USD","system":"urn:iso:std:iso:4217","value":125},"type":{"coding":[{"code":"71","display":"Local carrier non-durable medical equipment, prosthetics, orthotics, and supplies (DMEPOS) claim","system":"https://bluebutton.cms.gov/resources/variables/nch_clm_type_cd"},{"code":"CARRIER","display":"EOB Type","system":"https://bluebutton.cms.gov/resources/codesystem/eob-type"},{"code":"professional","display":"Claim Type","system":"http://hl7.org/fhir/ex-claimtype"},{"code":"O","display":"Part B physician/supplier claim record (processed by local carriers; can include DMEPOS services)","system":"https://bluebutton.cms.gov/resources/variables/nch_near_line_rec_ident_cd"}]}}},{"resource":{"billablePeriod":{"end":"2012-01-17T23:42:12-05:00","start":"2011-01-17T23:42:12-05:00"},"careTeam":[{"provider":{"identifier":{"system":"http://hl7.org/fhir/sid/us-npi","value":"99999999"}},"role":{"coding":[{"code":"primary","display":"Primary Care Practitioner","system":"http://hl7.org/fhir/claimcareteamrole"}]},"sequence":1}],"claim":{"reference":"Claim/e5c3facb-bcf9-4ebc-a552-9807f80eeb09"},"contained":[{"id":"1","intent":"order","recipient":[{"identifier":{"system":"http://hl7.org/fhir/sid/us-npi","value":"99999999"}}],"requester":{"agent":{"identifier":{"system":"http://hl7.org/fhir/sid/us-npi","value":"99999999"}}},"resourceType":"ReferralRequest","status":"completed","subject":{"reference":"Patient/00a3c662-723c-4318-a94c-a7ae88033c2d"}},{"id":"coverage","resourceType":"Coverage","type":{"text":"private"}}],"created":"2011-01-17T23:42:12-05:00","diagnosis":[{"diagnosisReference":{"reference":"Condition/fdca3ed2-444e-4ca3-8b7c-317b7c67b068"},"extension":[{"url":"https://bluebutton.cms.gov/assets/ig/StructureDefinition-bluebutton-inpatient-clm-poa-ind-sw1-extension","valueCoding":{"code":"Y","display":"Diagnosis present at time of admission","system":"https://bluebutton.cms.gov/assets/ig/CodeSystem-clm-poa-ind-sw1"}}],"sequence":1,"type":[{"coding":[{"code":"principal","system":"https://bluebutton.cms.gov/resources/codesystem/diagnosis-type"}]}]}],"id":"73077d92-ff4d-4b3f-800a-7525c9501e06","identifier":[{"system":"https://bluebutton.cms.gov/resources/variables/clm_id","value":"e5c3facb-bcf9-4ebc-a552-9807f80eeb09"},{"system":"https://bluebutton.cms.gov/resources/identifier/claim-group","value":"99999999999"}],"insurance":{"coverage":{"reference":"#coverage"}},"item":[{"category":{"coding":[{"code":"1","display":"Medical care","system":"https://bluebutton.cms.gov/resources/variables/line_cms_type_srvc_cd"}]},"encounter":[{"reference":"Encounter/de165f0d-966f-41f1-b063-f01986ec463c"}],"locationCodeableConcept":{"coding":[{"code":"23","display":"Emergency Room","system":"https://bluebutton.cms.gov/resources/variables/line_place_of_srvc_cd"}]},"sequence":1,"servicedPeriod":{"end":"2011-01-17T23:42:12-05:00","start":"2011-01-17T19:27:12-05:00"}},{"category":{"coding":[{"code":"1","display":"Medical care","system":"https://bluebutton.cms.gov/resources/variables/line_cms_type_srvc_cd"}]},"diagnosisLinkId":[1],"locationCodeableConcept":{"coding":[{"code":"23","display":"Emergency Room","system":"https://bluebutton.cms.gov/resources/variables/line_place_of_srvc_cd"}]},"sequence":2,"servicedPeriod":{"end":"2011-01-17T23:42:12-05:00","start":"2011-01-17T19:27:12-05:00"}},{"adjudication":[{"amount":{"code":"USD","system":"urn:iso:std:iso:4217","value":739.096},"category":{"coding":[{"code":"https://bluebutton.cms.gov/resources/variables/line_coinsrnc_amt","display":"Line Beneficiary Coinsurance Amount","system":"https://bluebutton.cms.gov/resources/codesystem/adjudication"}]}},{"amount":{"code":"USD","system":"urn:iso:std:iso:4217","value":2956.384},"category":{"coding":[{"code":"https://bluebutton.cms.gov/resources/variables/line_prvdr_pmt_amt","display":"Line Provider Payment Amount","system":"https://bluebutton.cms.gov/resources/codesystem/adjudication"}]}},{"amount":{"code":"USD","system":"urn:iso:std:iso:4217","value":3695.48},"category":{"coding":[{"code":"https://bluebutton.cms.gov/resources/variables/line_sbmtd_chrg_amt","display":"Line Submitted Charge Amount","system":"https://bluebutton.cms.gov/resources/codesystem/adjudication"}]}},{"amount":{"code":"USD","system":"urn:iso:std:iso:4217","value":3695.48},"category":{"coding":[{"code":"https://bluebutton.cms.gov/resources/variables/line_alowd_chrg_amt","display":"Line Allowed Charge Amount","system":"https://bluebutton.cms.gov/resources/codesystem/adjudication"}]}},{"amount":{"code":"USD","system":"urn:iso:std:iso:4217","value":0},"category":{"coding":[{"code":"https://bluebutton.cms.gov/resources/variables/line_bene_ptb_ddctbl_amt","display":"Line Beneficiary Part B Deductible Amount","system":"https://bluebutton.cms.gov/resources/codesystem/adjudication"}]}},{"category":{"coding":[{"code":"https://bluebutton.cms.gov/resources/variables/line_prcsg_ind_cd","display":"Line Processing Indicator Code","system":"https://bluebutton.cms.gov/resources/codesystem/adjudication"}]},"reason":{"coding":[{"code":"A","display":"Allowed","system":"https://bluebutton.cms.gov/resources/variables/line_prcsg_ind_cd"}]}}],"category":{"coding":[{"code":"1","display":"Medical care","system":"https://bluebutton.cms.gov/resources/variables/line_cms_type_srvc_cd"}]},"locationCodeableConcept":{"coding":[{"code":"23","display":"Emergency Room","system":"https://bluebutton.cms.gov/resources/variables/line_place_of_srvc_cd"}]},"net":{"code":"USD","system":"urn:iso:std:iso:4217","value":3695.48},"sequence":3,"service":{"coding":[{"code":"313191000","system":"http://snomed.info/sct","version":"v1"}]},"servicedPeriod":{"end":"2011-01-17T23:42:12-05:00","start":"2011-01-17T19:27:12-05:00"}}],"meta":{"lastUpdated":"2019-04-09T09:29:31.926297+00:00","versionId":"MTU1NDgwMjE3MTkyNjI5NzAwMA"},"organization":{"identifier":{"value":"3d5babec-3884-4754-960d-45195bc05bed"}},"patient":{"reference":"Patient/00a3c662-723c-4318-a94c-a7ae88033c2d"},"payment":{"amount":{"code":"USD","system":"urn:iso:std:iso:4217","value":2956.384}},"provider":{"identifier":{"value":"7508a73f-4110-4010-a236-f6a77a2c0346"}},"referral":{"reference":"#1"},"resourceType":"ExplanationOfBenefit","status":"active","totalCost":{"code":"USD","system":"urn:iso:std:iso:4217","value":3820.48},"type":{"coding":[{"code":"71","display":"Local carrier non-durable medical equipment, prosthetics, orthotics, and supplies (DMEPOS) claim","system":"https://bluebutton.cms.gov/resources/variables/nch_clm_type_cd"},{"code":"CARRIER","display":"EOB Type","system":"https://bluebutton.cms.gov/resources/codesystem/eob-type"},{"code":"professional","display":"Claim Type","system":"http://hl7.org/fhir/ex-claimtype"},{"code":"O","display":"Part B physician/supplier claim record (processed by local carriers; can include DMEPOS services)","system":"https://bluebutton.cms.gov/resources/variables/nch_near_line_rec_ident_cd"}]}}},{"resource":{"billablePeriod":{"end":"2014-08-03T20:42:12-04:00","extension":[{"url":"https://bluebutton.cms.gov/assets/ig/StructureDefinition-bluebutton-outpatient-claim-query-cd-extension","valueCoding":{"code":"3","display":"Final Bill","system":"https://bluebutton.cms.gov/assets/ig/ValueSet-claim-query-cd"}}],"start":"2013-08-03T20:42:12-04:00"},"careTeam":[{"provider":{"identifier":{"system":"http://hl7.org/fhir/sid/us-npi","value":"99999999"}},"role":{"coding":[{"code":"primary","display":"Primary Care Practitioner","system":"http://hl7.org/fhir/claimcareteamrole"}]},"sequence":1}],"contained":[{"id":"coverage","resourceType":"Coverage","type":{"text":"private"}}],"extension":[{"url":"https://bluebutton.cms.gov/assets/ig/StructureDefinition-bluebutton-outpatient-nch-profnl-cmpnt-chrg-amt-extension","valueMoney":{"code":"USD","system":"urn:iso:std:iso:4217","value":0}},{"url":"https://bluebutton.cms.gov/assets/ig/StructureDefinition-bluebutton-outpatient-nch-bene-ptb-ddctbl-amt-extension","valueMoney":{"code":"USD","system":"urn:iso:std:iso:4217","value":0}},{"url":"https://bluebutton.cms.gov/assets/ig/StructureDefinition-bluebutton-outpatient-nch-bene-ptb-coinsrnc-amt-extension","valueMoney":{"code":"USD","system":"urn:iso:std:iso:4217","value":0}},{"url":"https://bluebutton.cms.gov/assets/ig/StructureDefinition-bluebutton-outpatient-clm-op-prvdr-pmt-amt-extension","valueMoney":{"code":"USD","system":"urn:iso:std:iso:4217","value":0}},{"url":"https://bluebutton.cms.gov/assets/ig/StructureDefinition-bluebutton-outpatient-clm-op-bene-pmt-amt-extension","valueMoney":{"code":"USD","system":"urn:iso:std:iso:4217","value":0}},{"url":"https://bluebutton.cms.gov/assets/ig/StructureDefinition-bluebutton-outpatient-nch-bene-blood-ddctbl-lblty-am-extension","valueMoney":{"code":"USD","system":"urn:iso:std:iso:4217","value":0}},{"url":"https://bluebutton.cms.gov/assets/ig/StructureDefinition-bluebutton-outpatient-clm-mdcr-non-pmt-rsn-cd-extension","valueCoding":{"code":"N","display":"All other reasons for non-payment","system":"https://bluebutton.cms.gov/assets/ig/CodeSystem-clm-mdcr-non-pmt-rsn-cd"}},{"url":"https://bluebutton.cms.gov/assets/ig/StructureDefinition-bluebutton-outpatient-prpayamt-extension","valueMoney":{"code":"USD","system":"urn:iso:std:iso:4217","value":0}},{"url":"https://bluebutton.cms.gov/assets/ig/StructureDefinition-bluebutton-outpatient-fi-num-extension","valueIdentifier":{"system":"https://bluebutton.cms.gov/assets/ig/CodeSystem-fi-num","value":"002000"}}],"id":"7c540677-a50b-437e-af3d-1d63f184ef62","identifier":[{"system":"https://bluebutton.cms.gov/resources/variables/clm_id","value":"94c0bc61-c226-4297-882d-0bca43536e4b"},{"system":"https://bluebutton.cms.gov/resources/identifier/claim-group","value":"99999999999"}],"insurance":{"coverage":{"reference":"#coverage"}},"item":[{"extension":[{"url":"https://bluebutton.cms.gov/assets/ig/StructureDefinition-bluebutton-outpatient-rev-cntr-ndc-qty-extension","valueQuantity":{"value":0}}],"locationCodeableConcept":{"coding":[{"code":"21","display":"Inpatient Hospital","system":"https://bluebutton.cms.gov/resources/variables/line_place_of_srvc_cd"}]},"sequence":1}],"meta":{"lastUpdated":"2019-04-09T09:29:32.948933+00:00","profile":["https://bluebutton.cms.gov/assets/ig/StructureDefinition-bluebutton-outpatient-claim"],"versionId":"MTU1NDgwMjE3Mjk0ODkzMzAwMA"},"organization":{"identifier":{"value":"3d5babec-3884-4754-960d-45195bc05bed"}},"patient":{"reference":"Patient/00a3c662-723c-4318-a94c-a7ae88033c2d"},"payment":{"amount":{"code":"USD","system":"urn:iso:std:iso:4217","value":0}},"provider":{"identifier":{"value":"7508a73f-4110-4010-a236-f6a77a2c0346"}},"resourceType":"ExplanationOfBenefit","status":"active","totalCost":{"code":"USD","system":"urn:iso:std:iso:4217","value":125},"type":{"coding":[{"code":"71","display":"Local carrier non-durable medical equipment, prosthetics, orthotics, and supplies (DMEPOS) claim","system":"https://bluebutton.cms.gov/resources/variables/nch_clm_type_cd"},{"code":"CARRIER","display":"EOB Type","system":"https://bluebutton.cms.gov/resources/codesystem/eob-type"},{"code":"professional","display":"Claim Type","system":"http://hl7.org/fhir/ex-claimtype"},{"code":"O","display":"Part B physician/supplier claim record (processed by local carriers; can include DMEPOS services)","system":"https://bluebutton.cms.gov/resources/variables/nch_near_line_rec_ident_cd"}]}}},{"resource":{"billablePeriod":{"end":"1975-02-28T20:42:12-04:00","extension":[{"url":"https://bluebutton.cms.gov/assets/ig/StructureDefinition-bluebutton-inpatient-claim-query-cd-extension","valueCoding":{"code":"3","display":"Final Bill","system":"https://bluebutton.cms.gov/assets/ig/ValueSet-claim-query-cd"}}],"start":"1974-02-28T20:42:12-04:00"},"careTeam":[{"provider":{"identifier":{"system":"http://hl7.org/fhir/sid/us-npi","value":"99999999"}},"role":{"coding":[{"code":"primary","display":"Primary Care Practitioner","system":"http://hl7.org/fhir/claimcareteamrole"}]},"sequence":1}],"contained":[{"id":"coverage","resourceType":"Coverage","type":{"text":"private"}}],"diagnosis":[{"diagnosisReference":{"reference":"Condition/fb551c0f-81c0-4bd3-8028-6c00d8dbc04d"},"extension":[{"url":"https://bluebutton.cms.gov/assets/ig/StructureDefinition-bluebutton-inpatient-clm-poa-ind-sw1-extension","valueCoding":{"code":"Y","display":"Diagnosis present at time of admission","system":"https://bluebutton.cms.gov/assets/ig/CodeSystem-clm-poa-ind-sw1"}}],"sequence":1,"type":[{"coding":[{"code":"principal","system":"https://bluebutton.cms.gov/resources/codesystem/diagnosis-type"}]}]}],"extension":[{"url":"https://bluebutton.cms.gov/assets/ig/StructureDefinition-bluebutton-inpatient-ime-op-clm-val-amt-extension","valueMoney":{"code":"USD","system":"urn:iso:std:iso:4217","value":400}},{"url":"https://bluebutton.cms.gov/assets/ig/StructureDefinition-bluebutton-inpatient-dsh-op-clm-val-amt-extension","valueMoney":{"code":"USD","system":"urn:iso:std:iso:4217","value":0}},{"url":"https://bluebutton.cms.gov/assets/ig/StructureDefinition-bluebutton-inpatient-clm-pass-thru-per-diem-amt-extension","valueMoney":{"code":"USD","system":"urn:iso:std:iso:4217","value":0}},{"url":"https://bluebutton.cms.gov/assets/ig/StructureDefinition-bluebutton-inpatient-nch-profnl-cmpnt-chrg-amt-extension","valueMoney":{"code":"USD","system":"urn:iso:std:iso:4217","value":0}},{"url":"https://bluebutton.cms.gov/assets/ig/StructureDefinition-bluebutton-inpatient-clm-tot-pps-cptl-amt-extension","valueMoney":{"code":"USD","system":"urn:iso:std:iso:4217","value":0}},{"url":"https://bluebutton.cms.gov/assets/ig/StructureDefinition-bluebutton-inpatient-nch-bene-ip-ddctbl-amt-extension","valueMoney":{"code":"USD","system":"urn:iso:std:iso:4217","value":0}},{"url":"https://bluebutton.cms.gov/assets/ig/StructureDefinition-bluebutton-inpatient-nch-bene-pta-coinsrnc-lblty-amt-extension","valueMoney":{"code":"USD","system":"urn:iso:std:iso:4217","value":0}},{"url":"https://bluebutton.cms.gov/assets/ig/StructureDefinition-bluebutton-inpatient-nch-ip-ncvrd-chrg-amt-extension","valueMoney":{"code":"USD","system":"urn:iso:std:iso:4217","value":0}},{"url":"https://bluebutton.cms.gov/assets/ig/StructureDefinition-bluebutton-inpatient-nch-ip-tot-ddctn-amt-extension","valueMoney":{"code":"USD","system":"urn:iso:std:iso:4217","value":0}},{"url":"https://bluebutton.cms.gov/assets/ig/StructureDefinition-bluebutton-inpatient-clm-pps-cptl-dsprprtnt-shr-amt-extension","valueMoney":{"code":"USD","system":"urn:iso:std:iso:4217","value":0}},{"url":"https://bluebutton.cms.gov/assets/ig/StructureDefinition-bluebutton-inpatient-clm-pps-cptl-excptn-amt-extension","valueMoney":{"code":"USD","system":"urn:iso:std:iso:4217","value":0}},{"url":"https://bluebutton.cms.gov/assets/ig/StructureDefinition-bluebutton-inpatient-clm-pps-cptl-fsp-amt-extension","valueMoney":{"code":"USD","system":"urn:iso:std:iso:4217","value":0}},{"url":"https://bluebutton.cms.gov/assets/ig/StructureDefinition-bluebutton-inpatient-clm-pps-cptl-ime-amt-extension","valueMoney":{"code":"USD","system":"urn:iso:std:iso:4217","value":400}},{"url":"https://bluebutton.cms.gov/assets/ig/StructureDefinition-bluebutton-inpatient-clm-pps-cptl-outlier-amt-extension","valueMoney":{"code":"USD","system":"urn:iso:std:iso:4217","value":0}},{"url":"https://bluebutton.cms.gov/assets/ig/StructureDefinition-bluebutton-inpatient-clm-pps-old-cptl-hld-hrmls-amt-extension","valueMoney":{"code":"USD","system":"urn:iso:std:iso:4217","value":0}},{"url":"https://bluebutton.cms.gov/assets/ig/StructureDefinition-bluebutton-inpatient-nch-drg-outlier-aprvd-pmt-amt-extension","valueMoney":{"code":"USD","system":"urn:iso:std:iso:4217","value":0}},{"url":"https://bluebutton.cms.gov/assets/ig/StructureDefinition-bluebutton-inpatient-nch-bene-blood-ddctbl-lblty-am-extension","valueMoney":{"code":"USD","system":"urn:iso:std:iso:4217","value":0}},{"url":"https://bluebutton.cms.gov/assets/ig/StructureDefinition-bluebutton-inpatient-clm-mdcr-non-pmt-rsn-cd-extension","valueCoding":{"code":"N","display":"All other reasons for non-payment","system":"https://bluebutton.cms.gov/assets/ig/CodeSystem-clm-mdcr-non-pmt-rsn-cd"}},{"url":"https://bluebutton.cms.gov/assets/ig/StructureDefinition-bluebutton-inpatient-prpayamt-extension","valueMoney":{"code":"USD","system":"urn:iso:std:iso:4217","value":0}},{"url":"https://bluebutton.cms.gov/assets/ig/StructureDefinition-bluebutton-inpatient-fi-num-extension","valueIdentifier":{"system":"https://bluebutton.cms.gov/assets/ig/CodeSystem-fi-num","value":"002000"}}],"id":"8abbeacc-0dde-4dc2-82b2-426a9dae6375","identifier":[{"system":"https://bluebutton.cms.gov/resources/variables/clm_id","value":"7c0e6509-ef12-4548-a339-a45f5e6371d5"},{"system":"https://bluebutton.cms.gov/resources/identifier/claim-group","value":"99999999999"}],"insurance":{"coverage":{"reference":"#coverage"}},"item":[{"extension":[{"url":"https://bluebutton.cms.gov/assets/ig/StructureDefinition-bluebutton-inpatient-rev-cntr-ndc-qty-extension","valueQuantity":{"value":0}}],"locationCodeableConcept":{"coding":[{"code":"21","display":"Inpatient Hospital","system":"https://bluebutton.cms.gov/resources/variables/line_place_of_srvc_cd"}]},"sequence":1},{"extension":[{"url":"https://bluebutton.cms.gov/assets/ig/StructureDefinition-bluebutton-inpatient-rev-cntr-ndc-qty-extension","valueQuantity":{"value":0}}],"locationCodeableConcept":{"coding":[{"code":"21","display":"Inpatient Hospital","system":"https://bluebutton.cms.gov/resources/variables/line_place_of_srvc_cd"}]},"sequence":2}],"meta":{"lastUpdated":"2019-04-09T09:29:30.907632+00:00","profile":["https://bluebutton.cms.gov/assets/ig/StructureDefinition-bluebutton-inpatient-claim"],"versionId":"MTU1NDgwMjE3MDkwNzYzMjAwMA"},"organization":{"identifier":{"value":"3d5babec-3884-4754-960d-45195bc05bed"}},"patient":{"reference":"Patient/00a3c662-723c-4318-a94c-a7ae88033c2d"},"payment":{"amount":{"code":"USD","system":"urn:iso:std:iso:4217","value":0}},"provider":{"identifier":{"value":"7508a73f-4110-4010-a236-f6a77a2c0346"}},"resourceType":"ExplanationOfBenefit","status":"active","totalCost":{"code":"USD","system":"urn:iso:std:iso:4217","value":125},"type":{"coding":[{"code":"71","display":"Local carrier non-durable medical equipment, prosthetics, orthotics, and supplies (DMEPOS) claim","system":"https://bluebutton.cms.gov/resources/variables/nch_clm_type_cd"},{"code":"CARRIER","display":"EOB Type","system":"https://bluebutton.cms.gov/resources/codesystem/eob-type"},{"code":"professional","display":"Claim Type","system":"http://hl7.org/fhir/ex-claimtype"},{"code":"O","display":"Part B physician/supplier claim record (processed by local carriers; can include DMEPOS services)","system":"https://bluebutton.cms.gov/resources/variables/nch_near_line_rec_ident_cd"}]}}},{"resource":{"billablePeriod":{"end":"2018-07-20T20:42:12-04:00","extension":[{"url":"https://bluebutton.cms.gov/assets/ig/StructureDefinition-bluebutton-outpatient-claim-query-cd-extension","valueCoding":{"code":"3","display":"Final Bill","system":"https://bluebutton.cms.gov/assets/ig/ValueSet-claim-query-cd"}}],"start":"2017-07-20T20:42:12-04:00"},"careTeam":[{"provider":{"identifier":{"system":"http://hl7.org/fhir/sid/us-npi","value":"99999999"}},"role":{"coding":[{"code":"primary","display":"Primary Care Practitioner","system":"http://hl7.org/fhir/claimcareteamrole"}]},"sequence":1}],"contained":[{"id":"coverage","resourceType":"Coverage","type":{"text":"private"}}],"extension":[{"url":"https://bluebutton.cms.gov/assets/ig/StructureDefinition-bluebutton-outpatient-nch-profnl-cmpnt-chrg-amt-extension","valueMoney":{"code":"USD","system":"urn:iso:std:iso:4217","value":0}},{"url":"https://bluebutton.cms.gov/assets/ig/StructureDefinition-bluebutton-outpatient-nch-bene-ptb-ddctbl-amt-extension","valueMoney":{"code":"USD","system":"urn:iso:std:iso:4217","value":0}},{"url":"https://bluebutton.cms.gov/assets/ig/StructureDefinition-bluebutton-outpatient-nch-bene-ptb-coinsrnc-amt-extension","valueMoney":{"code":"USD","system":"urn:iso:std:iso:4217","value":0}},{"url":"https://bluebutton.cms.gov/assets/ig/StructureDefinition-bluebutton-outpatient-clm-op-prvdr-pmt-amt-extension","valueMoney":{"code":"USD","system":"urn:iso:std:iso:4217","value":0}},{"url":"https://bluebutton.cms.gov/assets/ig/StructureDefinition-bluebutton-outpatient-clm-op-bene-pmt-amt-extension","valueMoney":{"code":"USD","system":"urn:iso:std:iso:4217","value":0}},{"url":"https://bluebutton.cms.gov/assets/ig/StructureDefinition-bluebutton-outpatient-nch-bene-blood-ddctbl-lblty-am-extension","valueMoney":{"code":"USD","system":"urn:iso:std:iso:4217","value":0}},{"url":"https://bluebutton.cms.gov/assets/ig/StructureDefinition-bluebutton-outpatient-clm-mdcr-non-pmt-rsn-cd-extension","valueCoding":{"code":"N","display":"All other reasons for non-payment","system":"https://bluebutton.cms.gov/assets/ig/CodeSystem-clm-mdcr-non-pmt-rsn-cd"}},{"url":"https://bluebutton.cms.gov/assets/ig/StructureDefinition-bluebutton-outpatient-prpayamt-extension","valueMoney":{"code":"USD","system":"urn:iso:std:iso:4217","value":0}},{"url":"https://bluebutton.cms.gov/assets/ig/StructureDefinition-bluebutton-outpatient-fi-num-extension","valueIdentifier":{"system":"https://bluebutton.cms.gov/assets/ig/CodeSystem-fi-num","value":"002000"}}],"id":"8f7a4180-b87c-47b2-b2a1-9d595aea36e6","identifier":[{"system":"https://bluebutton.cms.gov/resources/variables/clm_id","value":"f9e8b5a3-3156-4e3e-ac95-0b1fefe29c54"},{"system":"https://bluebutton.cms.gov/resources/identifier/claim-group","value":"99999999999"}],"insurance":{"coverage":{"reference":"#coverage"}},"item":[{"extension":[{"url":"https://bluebutton.cms.gov/assets/ig/StructureDefinition-bluebutton-outpatient-rev-cntr-ndc-qty-extension","valueQuantity":{"value":0}}],"locationCodeableConcept":{"coding":[{"code":"21","display":"Inpatient Hospital","system":"https://bluebutton.cms.gov/resources/variables/line_place_of_srvc_cd"}]},"sequence":1}],"meta":{"lastUpdated":"2019-04-09T09:29:35.044308+00:00","profile":["https://bluebutton.cms.gov/assets/ig/StructureDefinition-bluebutton-outpatient-claim"],"versionId":"MTU1NDgwMjE3NTA0NDMwODAwMA"},"organization":{"identifier":{"value":"3d5babec-3884-4754-960d-45195bc05bed"}},"patient":{"reference":"Patient/00a3c662-723c-4318-a94c-a7ae88033c2d"},"payment":{"amount":{"code":"USD","system":"urn:iso:std:iso:4217","value":0}},"provider":{"identifier":{"value":"7508a73f-4110-4010-a236-f6a77a2c0346"}},"resourceType":"ExplanationOfBenefit","status":"active","totalCost":{"code":"USD","system":"urn:iso:std:iso:4217","value":125},"type":{"coding":[{"code":"71","display":"Local carrier non-durable medical equipment, prosthetics, orthotics, and supplies (DMEPOS) claim","system":"https://bluebutton.cms.gov/resources/variables/nch_clm_type_cd"},{"code":"CARRIER","display":"EOB Type","system":"https://bluebutton.cms.gov/resources/codesystem/eob-type"},{"code":"professional","display":"Claim Type","system":"http://hl7.org/fhir/ex-claimtype"},{"code":"O","display":"Part B physician/supplier claim record (processed by local carriers; can include DMEPOS services)","system":"https://bluebutton.cms.gov/resources/variables/nch_near_line_rec_ident_cd"}]}}},{"resource":{"billablePeriod":{"end":"2014-11-18T19:42:12-05:00","start":"2013-11-18T19:42:12-05:00"},"careTeam":[{"provider":{"identifier":{"system":"http://hl7.org/fhir/sid/us-npi","value":"99999999"}},"role":{"coding":[{"code":"primary","display":"Primary Care Practitioner","system":"http://hl7.org/fhir/claimcareteamrole"}]},"sequence":1}],"claim":{"reference":"Claim/de2999c8-ec93-413a-ab5d-2d7be1de7bc3"},"contained":[{"id":"1","intent":"order","recipient":[{"identifier":{"system":"http://hl7.org/fhir/sid/us-npi","value":"99999999"}}],"requester":{"agent":{"identifier":{"system":"http://hl7.org/fhir/sid/us-npi","value":"99999999"}}},"resourceType":"ReferralRequest","status":"completed","subject":{"reference":"Patient/00a3c662-723c-4318-a94c-a7ae88033c2d"}},{"id":"coverage","resourceType":"Coverage","type":{"text":"private"}}],"created":"2013-11-18T19:42:12-05:00","id":"932ce337-68be-48d9-93b4-d649a6c79cab","identifier":[{"system":"https://bluebutton.cms.gov/resources/variables/clm_id","value":"de2999c8-ec93-413a-ab5d-2d7be1de7bc3"},{"system":"https://bluebutton.cms.gov/resources/identifier/claim-group","value":"99999999999"}],"insurance":{"coverage":{"reference":"#coverage"}},"item":[{"category":{"coding":[{"code":"1","display":"Medical care","system":"https://bluebutton.cms.gov/resources/variables/line_cms_type_srvc_cd"}]},"encounter":[{"reference":"Encounter/87bcd98d-69d6-4a43-9188-2f88b484e156"}],"locationCodeableConcept":{"coding":[{"code":"21","display":"Inpatient Hospital","system":"https://bluebutton.cms.gov/resources/variables/line_place_of_srvc_cd"}]},"sequence":1,"servicedPeriod":{"end":"2013-11-18T19:42:12-05:00","start":"2013-11-18T19:27:12-05:00"}},{"adjudication":[{"amount":{"code":"USD","system":"urn:iso:std:iso:4217","value":28.104000000000003},"category":{"coding":[{"code":"https://bluebutton.cms.gov/resources/variables/line_coinsrnc_amt","display":"Line Beneficiary Coinsurance Amount","system":"https://bluebutton.cms.gov/resources/codesystem/adjudication"}]}},{"amount":{"code":"USD","system":"urn:iso:std:iso:4217","value":112.41600000000001},"category":{"coding":[{"code":"https://bluebutton.cms.gov/resources/variables/line_prvdr_pmt_amt","display":"Line Provider Payment Amount","system":"https://bluebutton.cms.gov/resources/codesystem/adjudication"}]}},{"amount":{"code":"USD","system":"urn:iso:std:iso:4217","value":140.52},"category":{"coding":[{"code":"https://bluebutton.cms.gov/resources/variables/line_sbmtd_chrg_amt","display":"Line Submitted Charge Amount","system":"https://bluebutton.cms.gov/resources/codesystem/adjudication"}]}},{"amount":{"code":"USD","system":"urn:iso:std:iso:4217","value":140.52},"category":{"coding":[{"code":"https://bluebutton.cms.gov/resources/variables/line_alowd_chrg_amt","display":"Line Allowed Charge Amount","system":"https://bluebutton.cms.gov/resources/codesystem/adjudication"}]}},{"amount":{"code":"USD","system":"urn:iso:std:iso:4217","value":0},"category":{"coding":[{"code":"https://bluebutton.cms.gov/resources/variables/line_bene_ptb_ddctbl_amt","display":"Line Beneficiary Part B Deductible Amount","system":"https://bluebutton.cms.gov/resources/codesystem/adjudication"}]}},{"category":{"coding":[{"code":"https://bluebutton.cms.gov/resources/variables/line_prcsg_ind_cd","display":"Line Processing Indicator Code","system":"https://bluebutton.cms.gov/resources/codesystem/adjudication"}]},"reason":{"coding":[{"code":"A","display":"Allowed","system":"https://bluebutton.cms.gov/resources/variables/line_prcsg_ind_cd"}]}}],"category":{"coding":[{"code":"1","display":"Medical care","system":"https://bluebutton.cms.gov/resources/variables/line_cms_type_srvc_cd"}]},"informationLinkId":[1],"locationCodeableConcept":{"coding":[{"code":"21","display":"Inpatient Hospital","system":"https://bluebutton.cms.gov/resources/variables/line_place_of_srvc_cd"}]},"net":{"code":"USD","system":"urn:iso:std:iso:4217","value":140.52},"sequence":2,"servicedPeriod":{"end":"2013-11-18T19:42:12-05:00","start":"2013-11-18T19:27:12-05:00"}}],"meta":{"lastUpdated":"2019-04-09T09:29:32.953573+00:00","versionId":"MTU1NDgwMjE3Mjk1MzU3MzAwMA"},"organization":{"identifier":{"value":"090b22c1-b263-41bd-b320-0ce3ad248a16"}},"patient":{"reference":"Patient/00a3c662-723c-4318-a94c-a7ae88033c2d"},"payment":{"amount":{"code":"USD","system":"urn:iso:std:iso:4217","value":112.41600000000001}},"provider":{"identifier":{"value":"c52ccc70-b2ce-4bca-bac1-7a6a32d30ff5"}},"referral":{"reference":"#1"},"resourceType":"ExplanationOfBenefit","status":"active","totalCost":{"code":"USD","system":"urn:iso:std:iso:4217","value":265.52},"type":{"coding":[{"code":"71","display":"Local carrier non-durable medical equipment, prosthetics, orthotics, and supplies (DMEPOS) claim","system":"https://bluebutton.cms.gov/resources/variables/nch_clm_type_cd"},{"code":"CARRIER","display":"EOB Type","system":"https://bluebutton.cms.gov/resources/codesystem/eob-type"},{"code":"professional","display":"Claim Type","system":"http://hl7.org/fhir/ex-claimtype"},{"code":"O","display":"Part B physician/supplier claim record (processed by local carriers; can include DMEPOS services)","system":"https://bluebutton.cms.gov/resources/variables/nch_near_line_rec_ident_cd"}]}}},{"resource":{"billablePeriod":{"end":"1985-05-22T21:22:12-04:00","extension":[{"url":"https://bluebutton.cms.gov/assets/ig/StructureDefinition-bluebutton-inpatient-claim-query-cd-extension","valueCoding":{"code":"3","display":"Final Bill","system":"https://bluebutton.cms.gov/assets/ig/ValueSet-claim-query-cd"}}],"start":"1984-05-22T21:22:12-04:00"},"careTeam":[{"provider":{"identifier":{"system":"http://hl7.org/fhir/sid/us-npi","value":"99999999"}},"role":{"coding":[{"code":"primary","display":"Primary Care Practitioner","system":"http://hl7.org/fhir/claimcareteamrole"}]},"sequence":1}],"contained":[{"id":"coverage","resourceType":"Coverage","type":{"text":"private"}}],"diagnosis":[{"diagnosisReference":{"reference":"Condition/5794cf7f-87b9-4b24-98bd-4140755c3974"},"extension":[{"url":"https://bluebutton.cms.gov/assets/ig/StructureDefinition-bluebutton-inpatient-clm-poa-ind-sw1-extension","valueCoding":{"code":"Y","display":"Diagnosis present at time of admission","system":"https://bluebutton.cms.gov/assets/ig/CodeSystem-clm-poa-ind-sw1"}}],"sequence":1,"type":[{"coding":[{"code":"principal","system":"https://bluebutton.cms.gov/resources/codesystem/diagnosis-type"}]}]}],"extension":[{"url":"https://bluebutton.cms.gov/assets/ig/StructureDefinition-bluebutton-inpatient-ime-op-clm-val-amt-extension","valueMoney":{"code":"USD","system":"urn:iso:std:iso:4217","value":400}},{"url":"https://bluebutton.cms.gov/assets/ig/StructureDefinition-bluebutton-inpatient-dsh-op-clm-val-amt-extension","valueMoney":{"code":"USD","system":"urn:iso:std:iso:4217","value":0}},{"url":"https://bluebutton.cms.gov/assets/ig/StructureDefinition-bluebutton-inpatient-clm-pass-thru-per-diem-amt-extension","valueMoney":{"code":"USD","system":"urn:iso:std:iso:4217","value":0}},{"url":"https://bluebutton.cms.gov/assets/ig/StructureDefinition-bluebutton-inpatient-nch-profnl-cmpnt-chrg-amt-extension","valueMoney":{"code":"USD","system":"urn:iso:std:iso:4217","value":0}},{"url":"https://bluebutton.cms.gov/assets/ig/StructureDefinition-bluebutton-inpatient-clm-tot-pps-cptl-amt-extension","valueMoney":{"code":"USD","system":"urn:iso:std:iso:4217","value":0}},{"url":"https://bluebutton.cms.gov/assets/ig/StructureDefinition-bluebutton-inpatient-nch-bene-ip-ddctbl-amt-extension","valueMoney":{"code":"USD","system":"urn:iso:std:iso:4217","value":0}},{"url":"https://bluebutton.cms.gov/assets/ig/StructureDefinition-bluebutton-inpatient-nch-bene-pta-coinsrnc-lblty-amt-extension","valueMoney":{"code":"USD","system":"urn:iso:std:iso:4217","value":0}},{"url":"https://bluebutton.cms.gov/assets/ig/StructureDefinition-bluebutton-inpatient-nch-ip-ncvrd-chrg-amt-extension","valueMoney":{"code":"USD","system":"urn:iso:std:iso:4217","value":0}},{"url":"https://bluebutton.cms.gov/assets/ig/StructureDefinition-bluebutton-inpatient-nch-ip-tot-ddctn-amt-extension","valueMoney":{"code":"USD","system":"urn:iso:std:iso:4217","value":0}},{"url":"https://bluebutton.cms.gov/assets/ig/StructureDefinition-bluebutton-inpatient-clm-pps-cptl-dsprprtnt-shr-amt-extension","valueMoney":{"code":"USD","system":"urn:iso:std:iso:4217","value":0}},{"url":"https://bluebutton.cms.gov/assets/ig/StructureDefinition-bluebutton-inpatient-clm-pps-cptl-excptn-amt-extension","valueMoney":{"code":"USD","system":"urn:iso:std:iso:4217","value":0}},{"url":"https://bluebutton.cms.gov/assets/ig/StructureDefinition-bluebutton-inpatient-clm-pps-cptl-fsp-amt-extension","valueMoney":{"code":"USD","system":"urn:iso:std:iso:4217","value":0}},{"url":"https://bluebutton.cms.gov/assets/ig/StructureDefinition-bluebutton-inpatient-clm-pps-cptl-ime-amt-extension","valueMoney":{"code":"USD","system":"urn:iso:std:iso:4217","value":400}},{"url":"https://bluebutton.cms.gov/assets/ig/StructureDefinition-bluebutton-inpatient-clm-pps-cptl-outlier-amt-extension","valueMoney":{"code":"USD","system":"urn:iso:std:iso:4217","value":0}},{"url":"https://bluebutton.cms.gov/assets/ig/StructureDefinition-bluebutton-inpatient-clm-pps-old-cptl-hld-hrmls-amt-extension","valueMoney":{"code":"USD","system":"urn:iso:std:iso:4217","value":0}},{"url":"https://bluebutton.cms.gov/assets/ig/StructureDefinition-bluebutton-inpatient-nch-drg-outlier-aprvd-pmt-amt-extension","valueMoney":{"code":"USD","system":"urn:iso:std:iso:4217","value":0}},{"url":"https://bluebutton.cms.gov/assets/ig/StructureDefinition-bluebutton-inpatient-nch-bene-blood-ddctbl-lblty-am-extension","valueMoney":{"code":"USD","system":"urn:iso:std:iso:4217","value":0}},{"url":"https://bluebutton.cms.gov/assets/ig/StructureDefinition-bluebutton-inpatient-clm-mdcr-non-pmt-rsn-cd-extension","valueCoding":{"code":"N","display":"All other reasons for non-payment","system":"https://bluebutton.cms.gov/assets/ig/CodeSystem-clm-mdcr-non-pmt-rsn-cd"}},{"url":"https://bluebutton.cms.gov/assets/ig/StructureDefinition-bluebutton-inpatient-prpayamt-extension","valueMoney":{"code":"USD","system":"urn:iso:std:iso:4217","value":0}},{"url":"https://bluebutton.cms.gov/assets/ig/StructureDefinition-bluebutton-inpatient-fi-num-extension","valueIdentifier":{"system":"https://bluebutton.cms.gov/assets/ig/CodeSystem-fi-num","value":"002000"}}],"id":"945f9919-3a98-40f7-ac99-66cd37c08d83","identifier":[{"system":"https://bluebutton.cms.gov/resources/variables/clm_id","value":"11274893-cdcf-4a3e-b573-c7d15ecd9e46"},{"system":"https://bluebutton.cms.gov/resources/identifier/claim-group","value":"99999999999"}],"insurance":{"coverage":{"reference":"#coverage"}},"item":[{"extension":[{"url":"https://bluebutton.cms.gov/assets/ig/StructureDefinition-bluebutton-inpatient-rev-cntr-ndc-qty-extension","valueQuantity":{"value":0}}],"locationCodeableConcept":{"coding":[{"code":"21","display":"Inpatient Hospital","system":"https://bluebutton.cms.gov/resources/variables/line_place_of_srvc_cd"}]},"sequence":1},{"extension":[{"url":"https://bluebutton.cms.gov/assets/ig/StructureDefinition-bluebutton-inpatient-rev-cntr-ndc-qty-extension","valueQuantity":{"value":0}}],"locationCodeableConcept":{"coding":[{"code":"21","display":"Inpatient Hospital","system":"https://bluebutton.cms.gov/resources/variables/line_place_of_srvc_cd"}]},"sequence":2}],"meta":{"lastUpdated":"2019-04-09T09:29:30.905992+00:00","profile":["https://bluebutton.cms.gov/assets/ig/StructureDefinition-bluebutton-inpatient-claim"],"versionId":"MTU1NDgwMjE3MDkwNTk5MjAwMA"},"organization":{"identifier":{"value":"3d5babec-3884-4754-960d-45195bc05bed"}},"patient":{"reference":"Patient/00a3c662-723c-4318-a94c-a7ae88033c2d"},"payment":{"amount":{"code":"USD","system":"urn:iso:std:iso:4217","value":0}},"provider":{"identifier":{"value":"7508a73f-4110-4010-a236-f6a77a2c0346"}},"resourceType":"ExplanationOfBenefit","status":"active","totalCost":{"code":"USD","system":"urn:iso:std:iso:4217","value":125},"type":{"coding":[{"code":"71","display":"Local carrier non-durable medical equipment, prosthetics, orthotics, and supplies (DMEPOS) claim","system":"https://bluebutton.cms.gov/resources/variables/nch_clm_type_cd"},{"code":"CARRIER","display":"EOB Type","system":"https://bluebutton.cms.gov/resources/codesystem/eob-type"},{"code":"professional","display":"Claim Type","system":"http://hl7.org/fhir/ex-claimtype"},{"code":"O","display":"Part B physician/supplier claim record (processed by local carriers; can include DMEPOS services)","system":"https://bluebutton.cms.gov/resources/variables/nch_near_line_rec_ident_cd"}]}}},{"resource":{"billablePeriod":{"end":"2018-09-24T21:05:12-04:00","extension":[{"url":"https://bluebutton.cms.gov/assets/ig/StructureDefinition-bluebutton-inpatient-claim-query-cd-extension","valueCoding":{"code":"3","display":"Final Bill","system":"https://bluebutton.cms.gov/assets/ig/ValueSet-claim-query-cd"}}],"start":"2017-09-24T21:05:12-04:00"},"careTeam":[{"provider":{"identifier":{"system":"http://hl7.org/fhir/sid/us-npi","value":"99999999"}},"role":{"coding":[{"code":"primary","display":"Primary Care Practitioner","system":"http://hl7.org/fhir/claimcareteamrole"}]},"sequence":1}],"contained":[{"id":"coverage","resourceType":"Coverage","type":{"text":"private"}}],"diagnosis":[{"diagnosisReference":{"reference":"Condition/b0130c82-79fc-44f2-acf4-c9b0e49d6a27"},"extension":[{"url":"https://bluebutton.cms.gov/assets/ig/StructureDefinition-bluebutton-inpatient-clm-poa-ind-sw1-extension","valueCoding":{"code":"Y","display":"Diagnosis present at time of admission","system":"https://bluebutton.cms.gov/assets/ig/CodeSystem-clm-poa-ind-sw1"}}],"sequence":1,"type":[{"coding":[{"code":"principal","system":"https://bluebutton.cms.gov/resources/codesystem/diagnosis-type"}]}]}],"extension":[{"url":"https://bluebutton.cms.gov/assets/ig/StructureDefinition-bluebutton-inpatient-ime-op-clm-val-amt-extension","valueMoney":{"code":"USD","system":"urn:iso:std:iso:4217","value":400}},{"url":"https://bluebutton.cms.gov/assets/ig/StructureDefinition-bluebutton-inpatient-dsh-op-clm-val-amt-extension","valueMoney":{"code":"USD","system":"urn:iso:std:iso:4217","value":0}},{"url":"https://bluebutton.cms.gov/assets/ig/StructureDefinition-bluebutton-inpatient-clm-pass-thru-per-diem-amt-extension","valueMoney":{"code":"USD","system":"urn:iso:std:iso:4217","value":0}},{"url":"https://bluebutton.cms.gov/assets/ig/StructureDefinition-bluebutton-inpatient-nch-profnl-cmpnt-chrg-amt-extension","valueMoney":{"code":"USD","system":"urn:iso:std:iso:4217","value":0}},{"url":"https://bluebutton.cms.gov/assets/ig/StructureDefinition-bluebutton-inpatient-clm-tot-pps-cptl-amt-extension","valueMoney":{"code":"USD","system":"urn:iso:std:iso:4217","value":0}},{"url":"https://bluebutton.cms.gov/assets/ig/StructureDefinition-bluebutton-inpatient-nch-bene-ip-ddctbl-amt-extension","valueMoney":{"code":"USD","system":"urn:iso:std:iso:4217","value":0}},{"url":"https://bluebutton.cms.gov/assets/ig/StructureDefinition-bluebutton-inpatient-nch-bene-pta-coinsrnc-lblty-amt-extension","valueMoney":{"code":"USD","system":"urn:iso:std:iso:4217","value":0}},{"url":"https://bluebutton.cms.gov/assets/ig/StructureDefinition-bluebutton-inpatient-nch-ip-ncvrd-chrg-amt-extension","valueMoney":{"code":"USD","system":"urn:iso:std:iso:4217","value":0}},{"url":"https://bluebutton.cms.gov/assets/ig/StructureDefinition-bluebutton-inpatient-nch-ip-tot-ddctn-amt-extension","valueMoney":{"code":"USD","system":"urn:iso:std:iso:4217","value":0}},{"url":"https://bluebutton.cms.gov/assets/ig/StructureDefinition-bluebutton-inpatient-clm-pps-cptl-dsprprtnt-shr-amt-extension","valueMoney":{"code":"USD","system":"urn:iso:std:iso:4217","value":0}},{"url":"https://bluebutton.cms.gov/assets/ig/StructureDefinition-bluebutton-inpatient-clm-pps-cptl-excptn-amt-extension","valueMoney":{"code":"USD","system":"urn:iso:std:iso:4217","value":0}},{"url":"https://bluebutton.cms.gov/assets/ig/StructureDefinition-bluebutton-inpatient-clm-pps-cptl-fsp-amt-extension","valueMoney":{"code":"USD","system":"urn:iso:std:iso:4217","value":0}},{"url":"https://bluebutton.cms.gov/assets/ig/StructureDefinition-bluebutton-inpatient-clm-pps-cptl-ime-amt-extension","valueMoney":{"code":"USD","system":"urn:iso:std:iso:4217","value":400}},{"url":"https://bluebutton.cms.gov/assets/ig/StructureDefinition-bluebutton-inpatient-clm-pps-cptl-outlier-amt-extension","valueMoney":{"code":"USD","system":"urn:iso:std:iso:4217","value":0}},{"url":"https://bluebutton.cms.gov/assets/ig/StructureDefinition-bluebutton-inpatient-clm-pps-old-cptl-hld-hrmls-amt-extension","valueMoney":{"code":"USD","system":"urn:iso:std:iso:4217","value":0}},{"url":"https://bluebutton.cms.gov/assets/ig/StructureDefinition-bluebutton-inpatient-nch-drg-outlier-aprvd-pmt-amt-extension","valueMoney":{"code":"USD","system":"urn:iso:std:iso:4217","value":0}},{"url":"https://bluebutton.cms.gov/assets/ig/StructureDefinition-bluebutton-inpatient-nch-bene-blood-ddctbl-lblty-am-extension","valueMoney":{"code":"USD","system":"urn:iso:std:iso:4217","value":0}},{"url":"https://bluebutton.cms.gov/assets/ig/StructureDefinition-bluebutton-inpatient-clm-mdcr-non-pmt-rsn-cd-extension","valueCoding":{"code":"N","display":"All other reasons for non-payment","system":"https://bluebutton.cms.gov/assets/ig/CodeSystem-clm-mdcr-non-pmt-rsn-cd"}},{"url":"https://bluebutton.cms.gov/assets/ig/StructureDefinition-bluebutton-inpatient-prpayamt-extension","valueMoney":{"code":"USD","system":"urn:iso:std:iso:4217","value":0}},{"url":"https://bluebutton.cms.gov/assets/ig/StructureDefinition-bluebutton-inpatient-fi-num-extension","valueIdentifier":{"system":"https://bluebutton.cms.gov/assets/ig/CodeSystem-fi-num","value":"002000"}}],"id":"9947db33-bbff-4816-91a8-17b1d3f80c5d","identifier":[{"system":"https://bluebutton.cms.gov/resources/variables/clm_id","value":"eb7633b8-e512-4e47-80a3-d04c5f6f3552"},{"system":"https://bluebutton.cms.gov/resources/identifier/claim-group","value":"99999999999"}],"insurance":{"coverage":{"reference":"#coverage"}},"item":[{"extension":[{"url":"https://bluebutton.cms.gov/assets/ig/StructureDefinition-bluebutton-inpatient-rev-cntr-ndc-qty-extension","valueQuantity":{"value":0}}],"locationCodeableConcept":{"coding":[{"code":"21","display":"Inpatient Hospital","system":"https://bluebutton.cms.gov/resources/variables/line_place_of_srvc_cd"}]},"sequence":1},{"extension":[{"url":"https://bluebutton.cms.gov/assets/ig/StructureDefinition-bluebutton-inpatient-rev-cntr-ndc-qty-extension","valueQuantity":{"value":0}}],"locationCodeableConcept":{"coding":[{"code":"21","display":"Inpatient Hospital","system":"https://bluebutton.cms.gov/resources/variables/line_place_of_srvc_cd"}]},"sequence":2},{"adjudication":[{"amount":{"code":"USD","system":"urn:iso:std:iso:4217","value":103.33},"category":{"coding":[{"code":"https://bluebutton.cms.gov/resources/variables/line_coinsrnc_amt","display":"Line Beneficiary Coinsurance Amount","system":"https://bluebutton.cms.gov/resources/codesystem/adjudication"}]}},{"amount":{"code":"USD","system":"urn:iso:std:iso:4217","value":413.32},"category":{"coding":[{"code":"https://bluebutton.cms.gov/resources/variables/line_prvdr_pmt_amt","display":"Line Provider Payment Amount","system":"https://bluebutton.cms.gov/resources/codesystem/adjudication"}]}},{"amount":{"code":"USD","system":"urn:iso:std:iso:4217","value":516.65},"category":{"coding":[{"code":"https://bluebutton.cms.gov/resources/variables/line_sbmtd_chrg_amt","display":"Line Submitted Charge Amount","system":"https://bluebutton.cms.gov/resources/codesystem/adjudication"}]}},{"amount":{"code":"USD","system":"urn:iso:std:iso:4217","value":516.65},"category":{"coding":[{"code":"https://bluebutton.cms.gov/resources/variables/line_alowd_chrg_amt","display":"Line Allowed Charge Amount","system":"https://bluebutton.cms.gov/resources/codesystem/adjudication"}]}},{"amount":{"code":"USD","system":"urn:iso:std:iso:4217","value":0},"category":{"coding":[{"code":"https://bluebutton.cms.gov/resources/variables/line_bene_ptb_ddctbl_amt","display":"Line Beneficiary Part B Deductible Amount","system":"https://bluebutton.cms.gov/resources/codesystem/adjudication"}]}},{"category":{"coding":[{"code":"https://bluebutton.cms.gov/resources/variables/line_prcsg_ind_cd","display":"Line Processing Indicator Code","system":"https://bluebutton.cms.gov/resources/codesystem/adjudication"}]}}],"extension":[{"url":"https://bluebutton.cms.gov/assets/ig/StructureDefinition-bluebutton-inpatient-rev-cntr-ndc-qty-extension","valueQuantity":{"value":0}}],"locationCodeableConcept":{"coding":[{"code":"21","display":"Inpatient Hospital","system":"https://bluebutton.cms.gov/resources/variables/line_place_of_srvc_cd"}]},"sequence":3,"service":{"coding":[{"code":"23426006","system":"http://snomed.info/sct","version":"v1"}]}}],"meta":{"lastUpdated":"2019-04-09T09:29:35.037728+00:00","profile":["https://bluebutton.cms.gov/assets/ig/StructureDefinition-bluebutton-inpatient-claim"],"versionId":"MTU1NDgwMjE3NTAzNzcyODAwMA"},"organization":{"identifier":{"value":"3d5babec-3884-4754-960d-45195bc05bed"}},"patient":{"reference":"Patient/00a3c662-723c-4318-a94c-a7ae88033c2d"},"payment":{"amount":{"code":"USD","system":"urn:iso:std:iso:4217","value":413.32}},"provider":{"identifier":{"value":"7508a73f-4110-4010-a236-f6a77a2c0346"}},"resourceType":"ExplanationOfBenefit","status":"active","totalCost":{"code":"USD","system":"urn:iso:std:iso:4217","value":641.65},"type":{"coding":[{"code":"71","display":"Local carrier non-durable medical equipment, prosthetics, orthotics, and supplies (DMEPOS) claim","system":"https://bluebutton.cms.gov/resources/variables/nch_clm_type_cd"},{"code":"CARRIER","display":"EOB Type","system":"https://bluebutton.cms.gov/resources/codesystem/eob-type"},{"code":"professional","display":"Claim Type","system":"http://hl7.org/fhir/ex-claimtype"},{"code":"O","display":"Part B physician/supplier claim record (processed by local carriers; can include DMEPOS services)","system":"https://bluebutton.cms.gov/resources/variables/nch_near_line_rec_ident_cd"}]}}},{"resource":{"billablePeriod":{"end":"2019-06-06T20:42:12-04:00","extension":[{"url":"https://bluebutton.cms.gov/assets/ig/StructureDefinition-bluebutton-inpatient-claim-query-cd-extension","valueCoding":{"code":"3","display":"Final Bill","system":"https://bluebutton.cms.gov/assets/ig/ValueSet-claim-query-cd"}}],"start":"2018-06-06T20:42:12-04:00"},"careTeam":[{"provider":{"identifier":{"system":"http://hl7.org/fhir/sid/us-npi","value":"99999999"}},"role":{"coding":[{"code":"primary","display":"Primary Care Practitioner","system":"http://hl7.org/fhir/claimcareteamrole"}]},"sequence":1}],"contained":[{"id":"coverage","resourceType":"Coverage","type":{"text":"private"}}],"diagnosis":[{"diagnosisReference":{"reference":"Condition/2e3dbb66-3c3a-4319-bab7-4ab54fb05400"},"extension":[{"url":"https://bluebutton.cms.gov/assets/ig/StructureDefinition-bluebutton-inpatient-clm-poa-ind-sw1-extension","valueCoding":{"code":"Y","display":"Diagnosis present at time of admission","system":"https://bluebutton.cms.gov/assets/ig/CodeSystem-clm-poa-ind-sw1"}}],"sequence":1,"type":[{"coding":[{"code":"principal","system":"https://bluebutton.cms.gov/resources/codesystem/diagnosis-type"}]}]}],"extension":[{"url":"https://bluebutton.cms.gov/assets/ig/StructureDefinition-bluebutton-inpatient-ime-op-clm-val-amt-extension","valueMoney":{"code":"USD","system":"urn:iso:std:iso:4217","value":400}},{"url":"https://bluebutton.cms.gov/assets/ig/StructureDefinition-bluebutton-inpatient-dsh-op-clm-val-amt-extension","valueMoney":{"code":"USD","system":"urn:iso:std:iso:4217","value":0}},{"url":"https://bluebutton.cms.gov/assets/ig/StructureDefinition-bluebutton-inpatient-clm-pass-thru-per-diem-amt-extension","valueMoney":{"code":"USD","system":"urn:iso:std:iso:4217","value":0}},{"url":"https://bluebutton.cms.gov/assets/ig/StructureDefinition-bluebutton-inpatient-nch-profnl-cmpnt-chrg-amt-extension","valueMoney":{"code":"USD","system":"urn:iso:std:iso:4217","value":0}},{"url":"https://bluebutton.cms.gov/assets/ig/StructureDefinition-bluebutton-inpatient-clm-tot-pps-cptl-amt-extension","valueMoney":{"code":"USD","system":"urn:iso:std:iso:4217","value":0}},{"url":"https://bluebutton.cms.gov/assets/ig/StructureDefinition-bluebutton-inpatient-nch-bene-ip-ddctbl-amt-extension","valueMoney":{"code":"USD","system":"urn:iso:std:iso:4217","value":0}},{"url":"https://bluebutton.cms.gov/assets/ig/StructureDefinition-bluebutton-inpatient-nch-bene-pta-coinsrnc-lblty-amt-extension","valueMoney":{"code":"USD","system":"urn:iso:std:iso:4217","value":0}},{"url":"https://bluebutton.cms.gov/assets/ig/StructureDefinition-bluebutton-inpatient-nch-ip-ncvrd-chrg-amt-extension","valueMoney":{"code":"USD","system":"urn:iso:std:iso:4217","value":0}},{"url":"https://bluebutton.cms.gov/assets/ig/StructureDefinition-bluebutton-inpatient-nch-ip-tot-ddctn-amt-extension","valueMoney":{"code":"USD","system":"urn:iso:std:iso:4217","value":0}},{"url":"https://bluebutton.cms.gov/assets/ig/StructureDefinition-bluebutton-inpatient-clm-pps-cptl-dsprprtnt-shr-amt-extension","valueMoney":{"code":"USD","system":"urn:iso:std:iso:4217","value":0}},{"url":"https://bluebutton.cms.gov/assets/ig/StructureDefinition-bluebutton-inpatient-clm-pps-cptl-excptn-amt-extension","valueMoney":{"code":"USD","system":"urn:iso:std:iso:4217","value":0}},{"url":"https://bluebutton.cms.gov/assets/ig/StructureDefinition-bluebutton-inpatient-clm-pps-cptl-fsp-amt-extension","valueMoney":{"code":"USD","system":"urn:iso:std:iso:4217","value":0}},{"url":"https://bluebutton.cms.gov/assets/ig/StructureDefinition-bluebutton-inpatient-clm-pps-cptl-ime-amt-extension","valueMoney":{"code":"USD","system":"urn:iso:std:iso:4217","value":400}},{"url":"https://bluebutton.cms.gov/assets/ig/StructureDefinition-bluebutton-inpatient-clm-pps-cptl-outlier-amt-extension","valueMoney":{"code":"USD","system":"urn:iso:std:iso:4217","value":0}},{"url":"https://bluebutton.cms.gov/assets/ig/StructureDefinition-bluebutton-inpatient-clm-pps-old-cptl-hld-hrmls-amt-extension","valueMoney":{"code":"USD","system":"urn:iso:std:iso:4217","value":0}},{"url":"https://bluebutton.cms.gov/assets/ig/StructureDefinition-bluebutton-inpatient-nch-drg-outlier-aprvd-pmt-amt-extension","valueMoney":{"code":"USD","system":"urn:iso:std:iso:4217","value":0}},{"url":"https://bluebutton.cms.gov/assets/ig/StructureDefinition-bluebutton-inpatient-nch-bene-blood-ddctbl-lblty-am-extension","valueMoney":{"code":"USD","system":"urn:iso:std:iso:4217","value":0}},{"url":"https://bluebutton.cms.gov/assets/ig/StructureDefinition-bluebutton-inpatient-clm-mdcr-non-pmt-rsn-cd-extension","valueCoding":{"code":"N","display":"All other reasons for non-payment","system":"https://bluebutton.cms.gov/assets/ig/CodeSystem-clm-mdcr-non-pmt-rsn-cd"}},{"url":"https://bluebutton.cms.gov/assets/ig/StructureDefinition-bluebutton-inpatient-prpayamt-extension","valueMoney":{"code":"USD","system":"urn:iso:std:iso:4217","value":0}},{"url":"https://bluebutton.cms.gov/assets/ig/StructureDefinition-bluebutton-inpatient-fi-num-extension","valueIdentifier":{"system":"https://bluebutton.cms.gov/assets/ig/CodeSystem-fi-num","value":"002000"}}],"id":"a70ccd42-2980-4893-a9ee-61464d45af12","identifier":[{"system":"https://bluebutton.cms.gov/resources/variables/clm_id","value":"cee2b5a1-588f-4b3c-8fbb-a33a56b25176"},{"system":"https://bluebutton.cms.gov/resources/identifier/claim-group","value":"99999999999"}],"insurance":{"coverage":{"reference":"#coverage"}},"item":[{"extension":[{"url":"https://bluebutton.cms.gov/assets/ig/StructureDefinition-bluebutton-inpatient-rev-cntr-ndc-qty-extension","valueQuantity":{"value":0}}],"locationCodeableConcept":{"coding":[{"code":"21","display":"Inpatient Hospital","system":"https://bluebutton.cms.gov/resources/variables/line_place_of_srvc_cd"}]},"sequence":1},{"extension":[{"url":"https://bluebutton.cms.gov/assets/ig/StructureDefinition-bluebutton-inpatient-rev-cntr-ndc-qty-extension","valueQuantity":{"value":0}}],"locationCodeableConcept":{"coding":[{"code":"21","display":"Inpatient Hospital","system":"https://bluebutton.cms.gov/resources/variables/line_place_of_srvc_cd"}]},"sequence":2}],"meta":{"lastUpdated":"2019-04-09T09:29:35.044928+00:00","profile":["https://bluebutton.cms.gov/assets/ig/StructureDefinition-bluebutton-inpatient-claim"],"versionId":"MTU1NDgwMjE3NTA0NDkyODAwMA"},"organization":{"identifier":{"value":"3d5babec-3884-4754-960d-45195bc05bed"}},"patient":{"reference":"Patient/00a3c662-723c-4318-a94c-a7ae88033c2d"},"payment":{"amount":{"code":"USD","system":"urn:iso:std:iso:4217","value":0}},"provider":{"identifier":{"value":"7508a73f-4110-4010-a236-f6a77a2c0346"}},"resourceType":"ExplanationOfBenefit","status":"active","totalCost":{"code":"USD","system":"urn:iso:std:iso:4217","value":125},"type":{"coding":[{"code":"71","display":"Local carrier non-durable medical equipment, prosthetics, orthotics, and supplies (DMEPOS) claim","system":"https://bluebutton.cms.gov/resources/variables/nch_clm_type_cd"},{"code":"CARRIER","display":"EOB Type","system":"https://bluebutton.cms.gov/resources/codesystem/eob-type"},{"code":"professional","display":"Claim Type","system":"http://hl7.org/fhir/ex-claimtype"},{"code":"O","display":"Part B physician/supplier claim record (processed by local carriers; can include DMEPOS services)","system":"https://bluebutton.cms.gov/resources/variables/nch_near_line_rec_ident_cd"}]}}},{"resource":{"billablePeriod":{"end":"2017-07-21T20:42:12-04:00","extension":[{"url":"https://bluebutton.cms.gov/assets/ig/StructureDefinition-bluebutton-outpatient-claim-query-cd-extension","valueCoding":{"code":"3","display":"Final Bill","system":"https://bluebutton.cms.gov/assets/ig/ValueSet-claim-query-cd"}}],"start":"2016-07-21T20:42:12-04:00"},"careTeam":[{"provider":{"identifier":{"system":"http://hl7.org/fhir/sid/us-npi","value":"99999999"}},"role":{"coding":[{"code":"primary","display":"Primary Care Practitioner","system":"http://hl7.org/fhir/claimcareteamrole"}]},"sequence":1}],"contained":[{"id":"coverage","resourceType":"Coverage","type":{"text":"private"}}],"extension":[{"url":"https://bluebutton.cms.gov/assets/ig/StructureDefinition-bluebutton-outpatient-nch-profnl-cmpnt-chrg-amt-extension","valueMoney":{"code":"USD","system":"urn:iso:std:iso:4217","value":0}},{"url":"https://bluebutton.cms.gov/assets/ig/StructureDefinition-bluebutton-outpatient-nch-bene-ptb-ddctbl-amt-extension","valueMoney":{"code":"USD","system":"urn:iso:std:iso:4217","value":0}},{"url":"https://bluebutton.cms.gov/assets/ig/StructureDefinition-bluebutton-outpatient-nch-bene-ptb-coinsrnc-amt-extension","valueMoney":{"code":"USD","system":"urn:iso:std:iso:4217","value":0}},{"url":"https://bluebutton.cms.gov/assets/ig/StructureDefinition-bluebutton-outpatient-clm-op-prvdr-pmt-amt-extension","valueMoney":{"code":"USD","system":"urn:iso:std:iso:4217","value":0}},{"url":"https://bluebutton.cms.gov/assets/ig/StructureDefinition-bluebutton-outpatient-clm-op-bene-pmt-amt-extension","valueMoney":{"code":"USD","system":"urn:iso:std:iso:4217","value":0}},{"url":"https://bluebutton.cms.gov/assets/ig/StructureDefinition-bluebutton-outpatient-nch-bene-blood-ddctbl-lblty-am-extension","valueMoney":{"code":"USD","system":"urn:iso:std:iso:4217","value":0}},{"url":"https://bluebutton.cms.gov/assets/ig/StructureDefinition-bluebutton-outpatient-clm-mdcr-non-pmt-rsn-cd-extension","valueCoding":{"code":"N","display":"All other reasons for non-payment","system":"https://bluebutton.cms.gov/assets/ig/CodeSystem-clm-mdcr-non-pmt-rsn-cd"}},{"url":"https://bluebutton.cms.gov/assets/ig/StructureDefinition-bluebutton-outpatient-prpayamt-extension","valueMoney":{"code":"USD","system":"urn:iso:std:iso:4217","value":0}},{"url":"https://bluebutton.cms.gov/assets/ig/StructureDefinition-bluebutton-outpatient-fi-num-extension","valueIdentifier":{"system":"https://bluebutton.cms.gov/assets/ig/CodeSystem-fi-num","value":"002000"}}],"id":"b612f00f-9a20-4e5b-9976-b7f3e004010f","identifier":[{"system":"https://bluebutton.cms.gov/resources/variables/clm_id","value":"af03b637-36f5-41e5-b972-2b7a6337d11c"},{"system":"https://bluebutton.cms.gov/resources/identifier/claim-group","value":"99999999999"}],"insurance":{"coverage":{"reference":"#coverage"}},"item":[{"extension":[{"url":"https://bluebutton.cms.gov/assets/ig/StructureDefinition-bluebutton-outpatient-rev-cntr-ndc-qty-extension","valueQuantity":{"value":0}}],"locationCodeableConcept":{"coding":[{"code":"21","display":"Inpatient Hospital","system":"https://bluebutton.cms.gov/resources/variables/line_place_of_srvc_cd"}]},"sequence":1}],"meta":{"lastUpdated":"2019-04-09T09:29:33.983992+00:00","profile":["https://bluebutton.cms.gov/assets/ig/StructureDefinition-bluebutton-outpatient-claim"],"versionId":"MTU1NDgwMjE3Mzk4Mzk5MjAwMA"},"organization":{"identifier":{"value":"3d5babec-3884-4754-960d-45195bc05bed"}},"patient":{"reference":"Patient/00a3c662-723c-4318-a94c-a7ae88033c2d"},"payment":{"amount":{"code":"USD","system":"urn:iso:std:iso:4217","value":0}},"provider":{"identifier":{"value":"7508a73f-4110-4010-a236-f6a77a2c0346"}},"resourceType":"ExplanationOfBenefit","status":"active","totalCost":{"code":"USD","system":"urn:iso:std:iso:4217","value":125},"type":{"coding":[{"code":"71","display":"Local carrier non-durable medical equipment, prosthetics, orthotics, and supplies (DMEPOS) claim","system":"https://bluebutton.cms.gov/resources/variables/nch_clm_type_cd"},{"code":"CARRIER","display":"EOB Type","system":"https://bluebutton.cms.gov/resources/codesystem/eob-type"},{"code":"professional","display":"Claim Type","system":"http://hl7.org/fhir/ex-claimtype"},{"code":"O","display":"Part B physician/supplier claim record (processed by local carriers; can include DMEPOS services)","system":"https://bluebutton.cms.gov/resources/variables/nch_near_line_rec_ident_cd"}]}}},{"resource":{"billablePeriod":{"end":"2015-07-29T20:42:12-04:00","extension":[{"url":"https://bluebutton.cms.gov/assets/ig/StructureDefinition-bluebutton-outpatient-claim-query-cd-extension","valueCoding":{"code":"3","display":"Final Bill","system":"https://bluebutton.cms.gov/assets/ig/ValueSet-claim-query-cd"}}],"start":"2014-07-29T20:42:12-04:00"},"careTeam":[{"provider":{"identifier":{"system":"http://hl7.org/fhir/sid/us-npi","value":"99999999"}},"role":{"coding":[{"code":"primary","display":"Primary Care Practitioner","system":"http://hl7.org/fhir/claimcareteamrole"}]},"sequence":1}],"contained":[{"id":"coverage","resourceType":"Coverage","type":{"text":"private"}}],"extension":[{"url":"https://bluebutton.cms.gov/assets/ig/StructureDefinition-bluebutton-outpatient-nch-profnl-cmpnt-chrg-amt-extension","valueMoney":{"code":"USD","system":"urn:iso:std:iso:4217","value":0}},{"url":"https://bluebutton.cms.gov/assets/ig/StructureDefinition-bluebutton-outpatient-nch-bene-ptb-ddctbl-amt-extension","valueMoney":{"code":"USD","system":"urn:iso:std:iso:4217","value":0}},{"url":"https://bluebutton.cms.gov/assets/ig/StructureDefinition-bluebutton-outpatient-nch-bene-ptb-coinsrnc-amt-extension","valueMoney":{"code":"USD","system":"urn:iso:std:iso:4217","value":0}},{"url":"https://bluebutton.cms.gov/assets/ig/StructureDefinition-bluebutton-outpatient-clm-op-prvdr-pmt-amt-extension","valueMoney":{"code":"USD","system":"urn:iso:std:iso:4217","value":0}},{"url":"https://bluebutton.cms.gov/assets/ig/StructureDefinition-bluebutton-outpatient-clm-op-bene-pmt-amt-extension","valueMoney":{"code":"USD","system":"urn:iso:std:iso:4217","value":0}},{"url":"https://bluebutton.cms.gov/assets/ig/StructureDefinition-bluebutton-outpatient-nch-bene-blood-ddctbl-lblty-am-extension","valueMoney":{"code":"USD","system":"urn:iso:std:iso:4217","value":0}},{"url":"https://bluebutton.cms.gov/assets/ig/StructureDefinition-bluebutton-outpatient-clm-mdcr-non-pmt-rsn-cd-extension","valueCoding":{"code":"N","display":"All other reasons for non-payment","system":"https://bluebutton.cms.gov/assets/ig/CodeSystem-clm-mdcr-non-pmt-rsn-cd"}},{"url":"https://bluebutton.cms.gov/assets/ig/StructureDefinition-bluebutton-outpatient-prpayamt-extension","valueMoney":{"code":"USD","system":"urn:iso:std:iso:4217","value":0}},{"url":"https://bluebutton.cms.gov/assets/ig/StructureDefinition-bluebutton-outpatient-fi-num-extension","valueIdentifier":{"system":"https://bluebutton.cms.gov/assets/ig/CodeSystem-fi-num","value":"002000"}}],"id":"c258b1a8-9499-4124-a5d5-c37aaf0fa578","identifier":[{"system":"https://bluebutton.cms.gov/resources/variables/clm_id","value":"45ddc20a-dce0-4be2-b9b1-8feeeb145042"},{"system":"https://bluebutton.cms.gov/resources/identifier/claim-group","value":"99999999999"}],"insurance":{"coverage":{"reference":"#coverage"}},"item":[{"extension":[{"url":"https://bluebutton.cms.gov/assets/ig/StructureDefinition-bluebutton-outpatient-rev-cntr-ndc-qty-extension","valueQuantity":{"value":0}}],"locationCodeableConcept":{"coding":[{"code":"21","display":"Inpatient Hospital","system":"https://bluebutton.cms.gov/resources/variables/line_place_of_srvc_cd"}]},"sequence":1}],"meta":{"lastUpdated":"2019-04-09T09:29:32.940218+00:00","profile":["https://bluebutton.cms.gov/assets/ig/StructureDefinition-bluebutton-outpatient-claim"],"versionId":"MTU1NDgwMjE3Mjk0MDIxODAwMA"},"organization":{"identifier":{"value":"3d5babec-3884-4754-960d-45195bc05bed"}},"patient":{"reference":"Patient/00a3c662-723c-4318-a94c-a7ae88033c2d"},"payment":{"amount":{"code":"USD","system":"urn:iso:std:iso:4217","value":0}},"provider":{"identifier":{"value":"7508a73f-4110-4010-a236-f6a77a2c0346"}},"resourceType":"ExplanationOfBenefit","status":"active","totalCost":{"code":"USD","system":"urn:iso:std:iso:4217","value":125},"type":{"coding":[{"code":"71","display":"Local carrier non-durable medical equipment, prosthetics, orthotics, and supplies (DMEPOS) claim","system":"https://bluebutton.cms.gov/resources/variables/nch_clm_type_cd"},{"code":"CARRIER","display":"EOB Type","system":"https://bluebutton.cms.gov/resources/codesystem/eob-type"},{"code":"professional","display":"Claim Type","system":"http://hl7.org/fhir/ex-claimtype"},{"code":"O","display":"Part B physician/supplier claim record (processed by local carriers; can include DMEPOS services)","system":"https://bluebutton.cms.gov/resources/variables/nch_near_line_rec_ident_cd"}]}}},{"resource":{"billablePeriod":{"end":"2017-07-25T21:32:12-04:00","extension":[{"url":"https://bluebutton.cms.gov/assets/ig/StructureDefinition-bluebutton-outpatient-claim-query-cd-extension","valueCoding":{"code":"3","display":"Final Bill","system":"https://bluebutton.cms.gov/assets/ig/ValueSet-claim-query-cd"}}],"start":"2016-07-25T21:32:12-04:00"},"careTeam":[{"provider":{"identifier":{"system":"http://hl7.org/fhir/sid/us-npi","value":"99999999"}},"role":{"coding":[{"code":"primary","display":"Primary Care Practitioner","system":"http://hl7.org/fhir/claimcareteamrole"}]},"sequence":1}],"contained":[{"id":"coverage","resourceType":"Coverage","type":{"text":"private"}}],"extension":[{"url":"https://bluebutton.cms.gov/assets/ig/StructureDefinition-bluebutton-outpatient-nch-profnl-cmpnt-chrg-amt-extension","valueMoney":{"code":"USD","system":"urn:iso:std:iso:4217","value":0}},{"url":"https://bluebutton.cms.gov/assets/ig/StructureDefinition-bluebutton-outpatient-nch-bene-ptb-ddctbl-amt-extension","valueMoney":{"code":"USD","system":"urn:iso:std:iso:4217","value":0}},{"url":"https://bluebutton.cms.gov/assets/ig/StructureDefinition-bluebutton-outpatient-nch-bene-ptb-coinsrnc-amt-extension","valueMoney":{"code":"USD","system":"urn:iso:std:iso:4217","value":0}},{"url":"https://bluebutton.cms.gov/assets/ig/StructureDefinition-bluebutton-outpatient-clm-op-prvdr-pmt-amt-extension","valueMoney":{"code":"USD","system":"urn:iso:std:iso:4217","value":0}},{"url":"https://bluebutton.cms.gov/assets/ig/StructureDefinition-bluebutton-outpatient-clm-op-bene-pmt-amt-extension","valueMoney":{"code":"USD","system":"urn:iso:std:iso:4217","value":0}},{"url":"https://bluebutton.cms.gov/assets/ig/StructureDefinition-bluebutton-outpatient-nch-bene-blood-ddctbl-lblty-am-extension","valueMoney":{"code":"USD","system":"urn:iso:std:iso:4217","value":0}},{"url":"https://bluebutton.cms.gov/assets/ig/StructureDefinition-bluebutton-outpatient-clm-mdcr-non-pmt-rsn-cd-extension","valueCoding":{"code":"N","display":"All other reasons for non-payment","system":"https://bluebutton.cms.gov/assets/ig/CodeSystem-clm-mdcr-non-pmt-rsn-cd"}},{"url":"https://bluebutton.cms.gov/assets/ig/StructureDefinition-bluebutton-outpatient-prpayamt-extension","valueMoney":{"code":"USD","system":"urn:iso:std:iso:4217","value":0}},{"url":"https://bluebutton.cms.gov/assets/ig/StructureDefinition-bluebutton-outpatient-fi-num-extension","valueIdentifier":{"system":"https://bluebutton.cms.gov/assets/ig/CodeSystem-fi-num","value":"002000"}}],"id":"c88ca5e0-d1a7-478b-b063-364696ce569e","identifier":[{"system":"https://bluebutton.cms.gov/resources/variables/clm_id","value":"626f8c5d-2bbb-49f7-a013-f43adb5a9719"},{"system":"https://bluebutton.cms.gov/resources/identifier/claim-group","value":"99999999999"}],"insurance":{"coverage":{"reference":"#coverage"}},"item":[{"extension":[{"url":"https://bluebutton.cms.gov/assets/ig/StructureDefinition-bluebutton-outpatient-rev-cntr-ndc-qty-extension","valueQuantity":{"value":0}}],"locationCodeableConcept":{"coding":[{"code":"21","display":"Inpatient Hospital","system":"https://bluebutton.cms.gov/resources/variables/line_place_of_srvc_cd"}]},"sequence":1},{"adjudication":[{"amount":{"code":"USD","system":"urn:iso:std:iso:4217","value":1993.9040000000002},"category":{"coding":[{"code":"https://bluebutton.cms.gov/resources/variables/line_coinsrnc_amt","display":"Line Beneficiary Coinsurance Amount","system":"https://bluebutton.cms.gov/resources/codesystem/adjudication"}]}},{"amount":{"code":"USD","system":"urn:iso:std:iso:4217","value":7975.616000000001},"category":{"coding":[{"code":"https://bluebutton.cms.gov/resources/variables/line_prvdr_pmt_amt","display":"Line Provider Payment Amount","system":"https://bluebutton.cms.gov/resources/codesystem/adjudication"}]}},{"amount":{"code":"USD","system":"urn:iso:std:iso:4217","value":9969.52},"category":{"coding":[{"code":"https://bluebutton.cms.gov/resources/variables/line_sbmtd_chrg_amt","display":"Line Submitted Charge Amount","system":"https://bluebutton.cms.gov/resources/codesystem/adjudication"}]}},{"amount":{"code":"USD","system":"urn:iso:std:iso:4217","value":9969.52},"category":{"coding":[{"code":"https://bluebutton.cms.gov/resources/variables/line_alowd_chrg_amt","display":"Line Allowed Charge Amount","system":"https://bluebutton.cms.gov/resources/codesystem/adjudication"}]}},{"amount":{"code":"USD","system":"urn:iso:std:iso:4217","value":0},"category":{"coding":[{"code":"https://bluebutton.cms.gov/resources/variables/line_bene_ptb_ddctbl_amt","display":"Line Beneficiary Part B Deductible Amount","system":"https://bluebutton.cms.gov/resources/codesystem/adjudication"}]}},{"category":{"coding":[{"code":"https://bluebutton.cms.gov/resources/variables/line_prcsg_ind_cd","display":"Line Processing Indicator Code","system":"https://bluebutton.cms.gov/resources/codesystem/adjudication"}]}}],"extension":[{"url":"https://bluebutton.cms.gov/assets/ig/StructureDefinition-bluebutton-outpatient-rev-cntr-ndc-qty-extension","valueQuantity":{"value":0}}],"locationCodeableConcept":{"coding":[{"code":"21","display":"Inpatient Hospital","system":"https://bluebutton.cms.gov/resources/variables/line_place_of_srvc_cd"}]},"sequence":2,"service":{"coding":[{"code":"65200003","system":"http://snomed.info/sct","version":"v1"}],"extension":[{"url":"https://bluebutton.cms.gov/assets/ig/StructureDefinition-bluebutton-outpatient-rev-cntr-ide-ndc-upc-num-extension","valueCoding":{"code":"0624","display":"Dummy","system":"https://www.accessdata.fda.gov/scripts/cder/ndc"}}]}}],"meta":{"lastUpdated":"2019-04-09T09:29:33.987509+00:00","profile":["https://bluebutton.cms.gov/assets/ig/StructureDefinition-bluebutton-outpatient-claim"],"versionId":"MTU1NDgwMjE3Mzk4NzUwOTAwMA"},"organization":{"identifier":{"value":"3d5babec-3884-4754-960d-45195bc05bed"}},"patient":{"reference":"Patient/00a3c662-723c-4318-a94c-a7ae88033c2d"},"payment":{"amount":{"code":"USD","system":"urn:iso:std:iso:4217","value":7975.616000000001}},"provider":{"identifier":{"value":"7508a73f-4110-4010-a236-f6a77a2c0346"}},"resourceType":"ExplanationOfBenefit","status":"active","totalCost":{"code":"USD","system":"urn:iso:std:iso:4217","value":10094.52},"type":{"coding":[{"code":"71","display":"Local carrier non-durable medical equipment, prosthetics, orthotics, and supplies (DMEPOS) claim","system":"https://bluebutton.cms.gov/resources/variables/nch_clm_type_cd"},{"code":"CARRIER","display":"EOB Type","system":"https://bluebutton.cms.gov/resources/codesystem/eob-type"},{"code":"professional","display":"Claim Type","system":"http://hl7.org/fhir/ex-claimtype"},{"code":"O","display":"Part B physician/supplier claim record (processed by local carriers; can include DMEPOS services)","system":"https://bluebutton.cms.gov/resources/variables/nch_near_line_rec_ident_cd"}]}}},{"resource":{"date":"2018-12-17T19:27:12-05:00","encounter":{"reference":"Encounter/18bc95c2-710f-4ce3-8fbf-e32211b68fab"},"id":"35c63521-6dfb-41af-81df-03a940a89cdb","meta":{"lastUpdated":"2019-04-09T09:29:36.050890+00:00","versionId":"MTU1NDgwMjE3NjA1MDg5MDAwMA"},"notGiven":false,"patient":{"reference":"Patient/00a3c662-723c-4318-a94c-a7ae88033c2d"},"primarySource":true,"resourceType":"Immunization","status":"completed","vaccineCode":{"coding":[{"code":"140","display":"Influenza, seasonal, injectable, preservative free","system":"http://hl7.org/fhir/sid/cvx"}],"text":"Influenza, seasonal, injectable, preservative free"}}},{"resource":{"date":"2013-11-18T19:27:12-05:00","encounter":{"reference":"Encounter/87bcd98d-69d6-4a43-9188-2f88b484e156"},"id":"3c6cb115-daa6-4491-9586-014cd66b11ab","meta":{"lastUpdated":"2019-04-09T09:29:32.948947+00:00","versionId":"MTU1NDgwMjE3Mjk0ODk0NzAwMA"},"notGiven":false,"patient":{"reference":"Patient/00a3c662-723c-4318-a94c-a7ae88033c2d"},"primarySource":true,"resourceType":"Immunization","status":"completed","vaccineCode":{"coding":[{"code":"140","display":"Influenza, seasonal, injectable, preservative free","system":"http://hl7.org/fhir/sid/cvx"}],"text":"Influenza, seasonal, injectable, preservative free"}}},{"resource":{"date":"2010-11-29T19:27:12-05:00","encounter":{"reference":"Encounter/7a4f8f7b-40b2-4b61-bf55-197839c0cd38"},"id":"5401d9c5-9141-48b6-a897-04638b769375","meta":{"lastUpdated":"2019-04-09T09:29:31.920900+00:00","versionId":"MTU1NDgwMjE3MTkyMDkwMDAwMA"},"notGiven":false,"patient":{"reference":"Patient/00a3c662-723c-4318-a94c-a7ae88033c2d"},"primarySource":true,"resourceType":"Immunization","status":"completed","vaccineCode":{"coding":[{"code":"140","display":"Influenza, seasonal, injectable, preservative free","system":"http://hl7.org/fhir/sid/cvx"}],"text":"Influenza, seasonal, injectable, preservative free"}}},{"resource":{"date":"2016-12-12T19:27:12-05:00","encounter":{"reference":"Encounter/e1356a23-5b74-44cd-bcf2-fb3b12c1492a"},"id":"63466ed2-b8d5-4c39-9c99-777ee47da43f","meta":{"lastUpdated":"2019-04-09T09:29:35.048515+00:00","versionId":"MTU1NDgwMjE3NTA0ODUxNTAwMA"},"notGiven":false,"patient":{"reference":"Patient/00a3c662-723c-4318-a94c-a7ae88033c2d"},"primarySource":true,"resourceType":"Immunization","status":"completed","vaccineCode":{"coding":[{"code":"140","display":"Influenza, seasonal, injectable, preservative free","system":"http://hl7.org/fhir/sid/cvx"}],"text":"Influenza, seasonal, injectable, preservative free"}}},{"resource":{"date":"2010-11-29T19:27:12-05:00","encounter":{"reference":"Encounter/7a4f8f7b-40b2-4b61-bf55-197839c0cd38"},"id":"7643de03-1926-493c-be1a-023e7e87697d","meta":{"lastUpdated":"2019-04-09T09:29:31.920937+00:00","versionId":"MTU1NDgwMjE3MTkyMDkzNzAwMA"},"notGiven":false,"patient":{"reference":"Patient/00a3c662-723c-4318-a94c-a7ae88033c2d"},"primarySource":true,"resourceType":"Immunization","status":"completed","vaccineCode":{"coding":[{"code":"113","display":"Td (adult) preservative free","system":"http://hl7.org/fhir/sid/cvx"}],"text":"Td (adult) preservative free"}}},{"resource":{"date":"2012-12-03T19:27:12-05:00","encounter":{"reference":"Encounter/c61319cd-aeb6-4c6e-8f78-8d0d8c187a42"},"id":"79647add-2c3d-4b2f-8471-a56dc3156565","meta":{"lastUpdated":"2019-04-09T09:29:31.926069+00:00","versionId":"MTU1NDgwMjE3MTkyNjA2OTAwMA"},"notGiven":false,"patient":{"reference":"Patient/00a3c662-723c-4318-a94c-a7ae88033c2d"},"primarySource":true,"resourceType":"Immunization","status":"completed","vaccineCode":{"coding":[{"code":"140","display":"Influenza, seasonal, injectable, preservative free","system":"http://hl7.org/fhir/sid/cvx"}],"text":"Influenza, seasonal, injectable, preservative free"}}},{"resource":{"date":"2017-10-02T20:27:12-04:00","encounter":{"reference":"Encounter/c038f83a-e61a-4e1e-b643-7506ad7efe7a"},"id":"ac719877-9d09-4d6a-a3e1-c873a40db173","meta":{"lastUpdated":"2019-04-09T09:29:35.050216+00:00","versionId":"MTU1NDgwMjE3NTA1MDIxNjAwMA"},"notGiven":false,"patient":{"reference":"Patient/00a3c662-723c-4318-a94c-a7ae88033c2d"},"primarySource":true,"resourceType":"Immunization","status":"completed","vaccineCode":{"coding":[{"code":"140","display":"Influenza, seasonal, injectable, preservative free","system":"http://hl7.org/fhir/sid/cvx"}],"text":"Influenza, seasonal, injectable, preservative free"}}},{"resource":{"date":"2010-11-29T19:27:12-05:00","encounter":{"reference":"Encounter/7a4f8f7b-40b2-4b61-bf55-197839c0cd38"},"id":"d3cb54a8-a96b-406a-ade7-0966d5d44f78","meta":{"lastUpdated":"2019-04-09T09:29:31.920931+00:00","versionId":"MTU1NDgwMjE3MTkyMDkzMTAwMA"},"notGiven":false,"patient":{"reference":"Patient/00a3c662-723c-4318-a94c-a7ae88033c2d"},"primarySource":true,"resourceType":"Immunization","status":"completed","vaccineCode":{"coding":[{"code":"52","display":"Hep A, adult","system":"http://hl7.org/fhir/sid/cvx"}],"text":"Hep A, adult"}}},{"resource":{"date":"2014-12-08T19:27:12-05:00","encounter":{"reference":"Encounter/52bb182a-f054-4ec5-adfe-abdf98d18bcc"},"id":"d43efdd6-b212-444d-9272-387845f8d026","meta":{"lastUpdated":"2019-04-09T09:29:33.987241+00:00","versionId":"MTU1NDgwMjE3Mzk4NzI0MTAwMA"},"notGiven":false,"patient":{"reference":"Patient/00a3c662-723c-4318-a94c-a7ae88033c2d"},"primarySource":true,"resourceType":"Immunization","status":"completed","vaccineCode":{"coding":[{"code":"140","display":"Influenza, seasonal, injectable, preservative free","system":"http://hl7.org/fhir/sid/cvx"}],"text":"Influenza, seasonal, injectable, preservative free"}}},{"resource":{"date":"2012-12-03T19:27:12-05:00","encounter":{"reference":"Encounter/c61319cd-aeb6-4c6e-8f78-8d0d8c187a42"},"id":"e178f3f1-249e-4d08-a030-605bf56193b3","meta":{"lastUpdated":"2019-04-09T09:29:31.926071+00:00","versionId":"MTU1NDgwMjE3MTkyNjA3MTAwMA"},"notGiven":false,"patient":{"reference":"Patient/00a3c662-723c-4318-a94c-a7ae88033c2d"},"primarySource":true,"resourceType":"Immunization","status":"completed","vaccineCode":{"coding":[{"code":"52","display":"Hep A, adult","system":"http://hl7.org/fhir/sid/cvx"}],"text":"Hep A, adult"}}},{"resource":{"authoredOn":"2010-08-19T20:27:12-04:00","context":{"reference":"Encounter/0b847157-0115-43f4-83c3-d3f885f2ab29"},"id":"1a9f3f3e-5bc6-4834-a93f-19150ab4cabc","intent":"order","medicationCodeableConcept":{"coding":[{"code":"748962","display":"Camila 28 Day Pack","system":"http://www.nlm.nih.gov/research/umls/rxnorm"}],"text":"Camila 28 Day Pack"},"meta":{"lastUpdated":"2019-04-09T09:29:30.909908+00:00","versionId":"MTU1NDgwMjE3MDkwOTkwODAwMA"},"requester":{"agent":{"reference":"Practitioner/7508a73f-4110-4010-a236-f6a77a2c0346"},"onBehalfOf":{"reference":"Organization/3d5babec-3884-4754-960d-45195bc05bed"}},"resourceType":"MedicationRequest","status":"stopped","subject":{"reference":"Patient/00a3c662-723c-4318-a94c-a7ae88033c2d"}}},{"resource":{"authoredOn":"2017-09-24T20:27:12-04:00","context":{"reference":"Encounter/30145d0a-8fa3-4fec-bc74-e33e78a266b6"},"id":"2ac00749-2efb-4501-a020-73f0cb02c268","intent":"order","medicationCodeableConcept":{"coding":[{"code":"313782","display":"Acetaminophen 325 MG Oral Tablet","system":"http://www.nlm.nih.gov/research/umls/rxnorm"}],"text":"Acetaminophen 325 MG Oral Tablet"},"meta":{"lastUpdated":"2019-04-09T09:29:35.048524+00:00","versionId":"MTU1NDgwMjE3NTA0ODUyNDAwMA"},"reasonReference":[{"reference":"Condition/609592a3-bf9a-41ed-addd-5529cc36adf7"},{"reference":"Condition/b0130c82-79fc-44f2-acf4-c9b0e49d6a27"}],"requester":{"agent":{"reference":"Practitioner/7508a73f-4110-4010-a236-f6a77a2c0346"},"onBehalfOf":{"reference":"Organization/3d5babec-3884-4754-960d-45195bc05bed"}},"resourceType":"MedicationRequest","status":"stopped","subject":{"reference":"Patient/00a3c662-723c-4318-a94c-a7ae88033c2d"}}},{"resource":{"authoredOn":"2017-07-20T20:27:12-04:00","context":{"reference":"Encounter/421957e2-ceb5-463a-9dc9-f9780cb6ab23"},"id":"45f2fe32-3a6d-41c5-9df6-23bf15028a22","intent":"order","medicationCodeableConcept":{"coding":[{"code":"1367439","display":"NuvaRing 0.12/0.015 MG per 24HR 21 Day Vaginal Ring","system":"http://www.nlm.nih.gov/research/umls/rxnorm"}],"text":"NuvaRing 0.12/0.015 MG per 24HR 21 Day Vaginal Ring"},"meta":{"lastUpdated":"2019-04-09T09:29:35.039363+00:00","versionId":"MTU1NDgwMjE3NTAzOTM2MzAwMA"},"requester":{"agent":{"reference":"Practitioner/7508a73f-4110-4010-a236-f6a77a2c0346"},"onBehalfOf":{"reference":"Organization/3d5babec-3884-4754-960d-45195bc05bed"}},"resourceType":"MedicationRequest","status":"stopped","subject":{"reference":"Patient/00a3c662-723c-4318-a94c-a7ae88033c2d"}}},{"resource":{"authoredOn":"2011-08-14T20:27:12-04:00","context":{"reference":"Encounter/6abe9a62-5207-48b5-bf2e-82a5dc012ea9"},"id":"57badadd-335e-4176-af55-62a608356314","intent":"order","medicationCodeableConcept":{"coding":[{"code":"831533","display":"Errin 28 Day Pack","system":"http://www.nlm.nih.gov/research/umls/rxnorm"}],"text":"Errin 28 Day Pack"},"meta":{"lastUpdated":"2019-04-09T09:29:31.924495+00:00","versionId":"MTU1NDgwMjE3MTkyNDQ5NTAwMA"},"requester":{"agent":{"reference":"Practitioner/7508a73f-4110-4010-a236-f6a77a2c0346"},"onBehalfOf":{"reference":"Organization/3d5babec-3884-4754-960d-45195bc05bed"}},"resourceType":"MedicationRequest","status":"stopped","subject":{"reference":"Patient/00a3c662-723c-4318-a94c-a7ae88033c2d"}}},{"resource":{"authoredOn":"2013-08-03T20:27:12-04:00","context":{"reference":"Encounter/d7fcd57f-aa6a-4ef1-a950-eb3275ac0c78"},"id":"64c34da1-1c72-4036-8441-140afc75a14c","intent":"order","medicationCodeableConcept":{"coding":[{"code":"757594","display":"Jolivette 28 Day Pack","system":"http://www.nlm.nih.gov/research/umls/rxnorm"}],"text":"Jolivette 28 Day Pack"},"meta":{"lastUpdated":"2019-04-09T09:29:31.922886+00:00","versionId":"MTU1NDgwMjE3MTkyMjg4NjAwMA"},"requester":{"agent":{"reference":"Practitioner/7508a73f-4110-4010-a236-f6a77a2c0346"},"onBehalfOf":{"reference":"Organization/3d5babec-3884-4754-960d-45195bc05bed"}},"resourceType":"MedicationRequest","status":"stopped","subject":{"reference":"Patient/00a3c662-723c-4318-a94c-a7ae88033c2d"}}},{"resource":{"authoredOn":"2013-11-11T19:27:12-05:00","context":{"reference":"Encounter/de12fbcd-62db-4acc-b095-754a9a682423"},"id":"679a9af0-b1d4-4112-a0e2-618e8329e93e","intent":"order","medicationCodeableConcept":{"coding":[{"code":"313782","display":"Acetaminophen 325 MG Oral Tablet","system":"http://www.nlm.nih.gov/research/umls/rxnorm"}],"text":"Acetaminophen 325 MG Oral Tablet"},"meta":{"lastUpdated":"2019-04-09T09:29:32.954094+00:00","versionId":"MTU1NDgwMjE3Mjk1NDA5NDAwMA"},"reasonReference":[{"reference":"Condition/609592a3-bf9a-41ed-addd-5529cc36adf7"}],"requester":{"agent":{"reference":"Practitioner/7508a73f-4110-4010-a236-f6a77a2c0346"},"onBehalfOf":{"reference":"Organization/3d5babec-3884-4754-960d-45195bc05bed"}},"resourceType":"MedicationRequest","status":"stopped","subject":{"reference":"Patient/00a3c662-723c-4318-a94c-a7ae88033c2d"}}},{"resource":{"authoredOn":"2014-07-29T20:27:12-04:00","context":{"reference":"Encounter/03a88ee2-4664-45a9-9e07-66435ea89c5a"},"id":"85e3dd9a-ad86-451a-be4d-8331df47206b","intent":"order","medicationCodeableConcept":{"coding":[{"code":"1534809","display":"168 HR Ethinyl Estradiol 0.00146 MG/HR / norelgestromin 0.00625 MG/HR Transdermal System","system":"http://www.nlm.nih.gov/research/umls/rxnorm"}],"text":"168 HR Ethinyl Estradiol 0.00146 MG/HR / norelgestromin 0.00625 MG/HR Transdermal System"},"meta":{"lastUpdated":"2019-04-09T09:29:32.953016+00:00","versionId":"MTU1NDgwMjE3Mjk1MzAxNjAwMA"},"requester":{"agent":{"reference":"Practitioner/7508a73f-4110-4010-a236-f6a77a2c0346"},"onBehalfOf":{"reference":"Organization/3d5babec-3884-4754-960d-45195bc05bed"}},"resourceType":"MedicationRequest","status":"stopped","subject":{"reference":"Patient/00a3c662-723c-4318-a94c-a7ae88033c2d"}}},{"resource":{"authoredOn":"1984-05-22T20:27:12-04:00","context":{"reference":"Encounter/3a9db738-a424-48bf-b726-2a74f274c0f8"},"id":"a7388e88-5f99-47cc-8cce-9c3f0659fe89","intent":"order","medicationCodeableConcept":{"coding":[{"code":"2001499","display":"Vitamin B 12 5 MG/ML Injectable Solution","system":"http://www.nlm.nih.gov/research/umls/rxnorm"}],"text":"Vitamin B 12 5 MG/ML Injectable Solution"},"meta":{"lastUpdated":"2019-04-09T09:29:30.909909+00:00","versionId":"MTU1NDgwMjE3MDkwOTkwOTAwMA"},"requester":{"agent":{"reference":"Practitioner/7508a73f-4110-4010-a236-f6a77a2c0346"},"onBehalfOf":{"reference":"Organization/3d5babec-3884-4754-960d-45195bc05bed"}},"resourceType":"MedicationRequest","status":"active","subject":{"reference":"Patient/00a3c662-723c-4318-a94c-a7ae88033c2d"}}},{"resource":{"authoredOn":"2011-01-17T23:27:12-05:00","context":{"reference":"Encounter/de165f0d-966f-41f1-b063-f01986ec463c"},"dosageInstruction":[{"asNeededBoolean":false,"doseQuantity":{"value":1},"sequence":1,"timing":{"repeat":{"frequency":1,"period":1,"periodUnit":"d"}}}],"id":"be7cceeb-fc9e-4d37-a9ee-2ef273b4e0aa","intent":"order","medicationCodeableConcept":{"coding":[{"code":"312617","display":"predniSONE 5 MG Oral Tablet","system":"http://www.nlm.nih.gov/research/umls/rxnorm"}],"text":"predniSONE 5 MG Oral Tablet"},"meta":{"lastUpdated":"2019-04-09T09:29:31.924536+00:00","versionId":"MTU1NDgwMjE3MTkyNDUzNjAwMA"},"requester":{"agent":{"reference":"Practitioner/7508a73f-4110-4010-a236-f6a77a2c0346"},"onBehalfOf":{"reference":"Organization/3d5babec-3884-4754-960d-45195bc05bed"}},"resourceType":"MedicationRequest","status":"stopped","subject":{"reference":"Patient/00a3c662-723c-4318-a94c-a7ae88033c2d"}}},{"resource":{"authoredOn":"2016-07-21T20:27:12-04:00","context":{"reference":"Encounter/ca28bf6c-d7c1-4794-b870-8eeded1fc502"},"id":"f384620d-8d20-4f28-bcdd-a83dbe024ff2","intent":"order","medicationCodeableConcept":{"coding":[{"code":"807283","display":"Mirena 52 MG Intrauterine System","system":"http://www.nlm.nih.gov/research/umls/rxnorm"}],"text":"Mirena 52 MG Intrauterine System"},"meta":{"lastUpdated":"2019-04-09T09:29:33.995567+00:00","versionId":"MTU1NDgwMjE3Mzk5NTU2NzAwMA"},"requester":{"agent":{"reference":"Practitioner/7508a73f-4110-4010-a236-f6a77a2c0346"},"onBehalfOf":{"reference":"Organization/3d5babec-3884-4754-960d-45195bc05bed"}},"resourceType":"MedicationRequest","status":"stopped","subject":{"reference":"Patient/00a3c662-723c-4318-a94c-a7ae88033c2d"}}},{"resource":{"category":[{"coding":[{"code":"laboratory","display":"laboratory","system":"http://hl7.org/fhir/observation-category"}]}],"code":{"coding":[{"code":"2947-0","display":"Sodium","system":"http://loinc.org"}],"text":"Sodium"},"context":{"reference":"Encounter/52bb182a-f054-4ec5-adfe-abdf98d18bcc"},"effectiveDateTime":"2014-12-08T19:27:12-05:00","id":"044ea630-40c2-4f01-a246-c3e22c83e4f9","issued":"2014-12-08T19:27:12.972-05:00","meta":{"lastUpdated":"2019-04-09T09:29:33.987206+00:00","versionId":"MTU1NDgwMjE3Mzk4NzIwNjAwMA"},"resourceType":"Observation","status":"final","subject":{"reference":"Patient/00a3c662-723c-4318-a94c-a7ae88033c2d"},"valueQuantity":{"code":"mmol/L","system":"http://unitsofmeasure.org","unit":"mmol/L","value":141.81576201992848}}},{"resource":{"category":[{"coding":[{"code":"laboratory","display":"laboratory","system":"http://hl7.org/fhir/observation-category"}]}],"code":{"coding":[{"code":"2571-8","display":"Triglycerides","system":"http://loinc.org"}],"text":"Triglycerides"},"context":{"reference":"Encounter/c61319cd-aeb6-4c6e-8f78-8d0d8c187a42"},"effectiveDateTime":"2012-12-03T19:27:12-05:00","id":"06b514b1-68b0-419e-b3d3-98e6168f946a","issued":"2012-12-03T19:27:12.972-05:00","meta":{"lastUpdated":"2019-04-09T09:29:31.921330+00:00","versionId":"MTU1NDgwMjE3MTkyMTMzMDAwMA"},"resourceType":"Observation","status":"final","subject":{"reference":"Patient/00a3c662-723c-4318-a94c-a7ae88033c2d"},"valueQuantity":{"code":"mg/dL","system":"http://unitsofmeasure.org","unit":"mg/dL","value":119.44711384185192}}},{"resource":{"category":[{"coding":[{"code":"vital-signs","display":"vital-signs","system":"http://hl7.org/fhir/observation-category"}]}],"code":{"coding":[{"code":"72514-3","display":"Pain severity - 0-10 verbal numeric rating [Score] - Reported","system":"http://loinc.org"}],"text":"Pain severity - 0-10 verbal numeric rating [Score] - Reported"},"context":{"reference":"Encounter/e1356a23-5b74-44cd-bcf2-fb3b12c1492a"},"effectiveDateTime":"2016-12-12T19:27:12-05:00","id":"08781fd4-e000-41f2-a86b-1ffd6e18c346","issued":"2016-12-12T19:27:12.972-05:00","meta":{"lastUpdated":"2019-04-09T09:29:33.987320+00:00","versionId":"MTU1NDgwMjE3Mzk4NzMyMDAwMA"},"resourceType":"Observation","status":"final","subject":{"reference":"Patient/00a3c662-723c-4318-a94c-a7ae88033c2d"},"valueQuantity":{"code":"{score}","system":"http://unitsofmeasure.org","unit":"{score}","value":3.698334545334757}}},{"resource":{"category":[{"coding":[{"code":"laboratory","display":"laboratory","system":"http://hl7.org/fhir/observation-category"}]}],"code":{"coding":[{"code":"4548-4","display":"Hemoglobin A1c/Hemoglobin.total in Blood","system":"http://loinc.org"}],"text":"Hemoglobin A1c/Hemoglobin.total in Blood"},"context":{"reference":"Encounter/e1356a23-5b74-44cd-bcf2-fb3b12c1492a"},"effectiveDateTime":"2016-12-12T19:27:12-05:00","id":"0915015a-9955-4146-9880-7750885f98c2","issued":"2016-12-12T19:27:12.972-05:00","meta":{"lastUpdated":"2019-04-09T09:29:35.048517+00:00","versionId":"MTU1NDgwMjE3NTA0ODUxNzAwMA"},"resourceType":"Observation","status":"final","subject":{"reference":"Patient/00a3c662-723c-4318-a94c-a7ae88033c2d"},"valueQuantity":{"code":"%","system":"http://unitsofmeasure.org","unit":"%","value":5.949533245216254}}},{"resource":{"category":[{"coding":[{"code":"laboratory","display":"laboratory","system":"http://hl7.org/fhir/observation-category"}]}],"code":{"coding":[{"code":"2093-3","display":"Total Cholesterol","system":"http://loinc.org"}],"text":"Total Cholesterol"},"context":{"reference":"Encounter/c61319cd-aeb6-4c6e-8f78-8d0d8c187a42"},"effectiveDateTime":"2012-12-03T19:27:12-05:00","id":"0df25c82-e6e2-4bf9-9f05-896f0774aa65","issued":"2012-12-03T19:27:12.972-05:00","meta":{"lastUpdated":"2019-04-09T09:29:31.926068+00:00","versionId":"MTU1NDgwMjE3MTkyNjA2ODAwMA"},"resourceType":"Observation","status":"final","subject":{"reference":"Patient/00a3c662-723c-4318-a94c-a7ae88033c2d"},"valueQuantity":{"code":"mg/dL","system":"http://unitsofmeasure.org","unit":"mg/dL","value":175.08922226950205}}},{"resource":{"category":[{"coding":[{"code":"laboratory","display":"laboratory","system":"http://hl7.org/fhir/observation-category"}]}],"code":{"coding":[{"code":"49765-1","display":"Calcium","system":"http://loinc.org"}],"text":"Calcium"},"context":{"reference":"Encounter/52bb182a-f054-4ec5-adfe-abdf98d18bcc"},"effectiveDateTime":"2014-12-08T19:27:12-05:00","id":"0e01057d-a689-4595-ba70-467f0247945c","issued":"2014-12-08T19:27:12.972-05:00","meta":{"lastUpdated":"2019-04-09T09:29:33.984011+00:00","versionId":"MTU1NDgwMjE3Mzk4NDAxMTAwMA"},"resourceType":"Observation","status":"final","subject":{"reference":"Patient/00a3c662-723c-4318-a94c-a7ae88033c2d"},"valueQuantity":{"code":"mg/dL","system":"http://unitsofmeasure.org","unit":"mg/dL","value":8.884608806253116}}},{"resource":{"category":[{"coding":[{"code":"vital-signs","display":"vital-signs","system":"http://hl7.org/fhir/observation-category"}]}],"code":{"coding":[{"code":"39156-5","display":"Body Mass Index","system":"http://loinc.org"}],"text":"Body Mass Index"},"context":{"reference":"Encounter/7a4f8f7b-40b2-4b61-bf55-197839c0cd38"},"effectiveDateTime":"2010-11-29T19:27:12-05:00","id":"10574c20-d3ff-4046-9ede-2cb52dbd35e5","issued":"2010-11-29T19:27:12.972-05:00","meta":{"lastUpdated":"2019-04-09T09:29:30.905994+00:00","versionId":"MTU1NDgwMjE3MDkwNTk5NDAwMA"},"resourceType":"Observation","status":"final","subject":{"reference":"Patient/00a3c662-723c-4318-a94c-a7ae88033c2d"},"valueQuantity":{"code":"kg/m2","system":"http://unitsofmeasure.org","unit":"kg/m2","value":34.577757434590836}}},{"resource":{"category":[{"coding":[{"code":"vital-signs","display":"vital-signs","system":"http://hl7.org/fhir/observation-category"}]}],"code":{"coding":[{"code":"55284-4","display":"Blood Pressure","system":"http://loinc.org"}],"text":"Blood Pressure"},"component":[{"code":{"coding":[{"code":"8462-4","display":"Diastolic Blood Pressure","system":"http://loinc.org"}],"text":"Diastolic Blood Pressure"},"valueQuantity":{"code":"mmHg","system":"http://unitsofmeasure.org","unit":"mmHg","value":78.76074718745751}},{"code":{"coding":[{"code":"8480-6","display":"Systolic Blood Pressure","system":"http://loinc.org"}],"text":"Systolic Blood Pressure"},"valueQuantity":{"code":"mmHg","system":"http://unitsofmeasure.org","unit":"mmHg","value":110.3443846714701}}],"context":{"reference":"Encounter/18bc95c2-710f-4ce3-8fbf-e32211b68fab"},"effectiveDateTime":"2018-12-17T19:27:12-05:00","id":"1103ad16-ff35-42e1-805f-a1531d07ddad","issued":"2018-12-17T19:27:12.972-05:00","meta":{"lastUpdated":"2019-04-09T09:29:35.049694+00:00","versionId":"MTU1NDgwMjE3NTA0OTY5NDAwMA"},"resourceType":"Observation","status":"final","subject":{"reference":"Patient/00a3c662-723c-4318-a94c-a7ae88033c2d"}}},{"resource":{"category":[{"coding":[{"code":"laboratory","display":"laboratory","system":"http://hl7.org/fhir/observation-category"}]}],"code":{"coding":[{"code":"20565-8","display":"Carbon Dioxide","system":"http://loinc.org"}],"text":"Carbon Dioxide"},"context":{"reference":"Encounter/7a4f8f7b-40b2-4b61-bf55-197839c0cd38"},"effectiveDateTime":"2010-11-29T19:27:12-05:00","id":"131e4b49-583d-4110-a6a8-f60413b13ee5","issued":"2010-11-29T19:27:12.972-05:00","meta":{"lastUpdated":"2019-04-09T09:29:31.924529+00:00","versionId":"MTU1NDgwMjE3MTkyNDUyOTAwMA"},"resourceType":"Observation","status":"final","subject":{"reference":"Patient/00a3c662-723c-4318-a94c-a7ae88033c2d"},"valueQuantity":{"code":"mmol/L","system":"http://unitsofmeasure.org","unit":"mmol/L","value":23.532536978408412}}},{"resource":{"category":[{"coding":[{"code":"laboratory","display":"laboratory","system":"http://hl7.org/fhir/observation-category"}]}],"code":{"coding":[{"code":"6690-2","display":"Leukocytes [#/volume] in Blood by Automated count","system":"http://loinc.org"}],"text":"Leukocytes [#/volume] in Blood by Automated count"},"context":{"reference":"Encounter/52bb182a-f054-4ec5-adfe-abdf98d18bcc"},"effectiveDateTime":"2014-12-08T19:27:12-05:00","id":"16e627fd-a421-42d4-8ac5-7a6d38cce263","issued":"2014-12-08T19:27:12.972-05:00","meta":{"lastUpdated":"2019-04-09T09:29:33.989104+00:00","versionId":"MTU1NDgwMjE3Mzk4OTEwNDAwMA"},"resourceType":"Observation","status":"final","subject":{"reference":"Patient/00a3c662-723c-4318-a94c-a7ae88033c2d"},"valueQuantity":{"code":"10*3/uL","system":"http://unitsofmeasure.org","unit":"10*3/uL","value":7.0049623954212095}}},{"resource":{"category":[{"coding":[{"code":"laboratory","display":"laboratory","system":"http://hl7.org/fhir/observation-category"}]}],"code":{"coding":[{"code":"20565-8","display":"Carbon Dioxide","system":"http://loinc.org"}],"text":"Carbon Dioxide"},"context":{"reference":"Encounter/52bb182a-f054-4ec5-adfe-abdf98d18bcc"},"effectiveDateTime":"2014-12-08T19:27:12-05:00","id":"1882d186-eb8f-4a25-b87c-346ab2860910","issued":"2014-12-08T19:27:12.972-05:00","meta":{"lastUpdated":"2019-04-09T09:29:33.984015+00:00","versionId":"MTU1NDgwMjE3Mzk4NDAxNTAwMA"},"resourceType":"Observation","status":"final","subject":{"reference":"Patient/00a3c662-723c-4318-a94c-a7ae88033c2d"},"valueQuantity":{"code":"mmol/L","system":"http://unitsofmeasure.org","unit":"mmol/L","value":26.300272942945632}}},{"resource":{"category":[{"coding":[{"code":"vital-signs","display":"vital-signs","system":"http://hl7.org/fhir/observation-category"}]}],"code":{"coding":[{"code":"8302-2","display":"Body Height","system":"http://loinc.org"}],"text":"Body Height"},"context":{"reference":"Encounter/7a4f8f7b-40b2-4b61-bf55-197839c0cd38"},"effectiveDateTime":"2010-11-29T19:27:12-05:00","id":"19719da2-52f1-4443-86b8-7de9ba48a465","issued":"2010-11-29T19:27:12.972-05:00","meta":{"lastUpdated":"2019-04-09T09:29:30.905993+00:00","versionId":"MTU1NDgwMjE3MDkwNTk5MzAwMA"},"resourceType":"Observation","status":"final","subject":{"reference":"Patient/00a3c662-723c-4318-a94c-a7ae88033c2d"},"valueQuantity":{"code":"cm","system":"http://unitsofmeasure.org","unit":"cm","value":160.12446409714607}}},{"resource":{"category":[{"coding":[{"code":"laboratory","display":"laboratory","system":"http://hl7.org/fhir/observation-category"}]}],"code":{"coding":[{"code":"777-3","display":"Platelets [#/volume] in Blood by Automated count","system":"http://loinc.org"}],"text":"Platelets [#/volume] in Blood by Automated count"},"context":{"reference":"Encounter/52bb182a-f054-4ec5-adfe-abdf98d18bcc"},"effectiveDateTime":"2014-12-08T19:27:12-05:00","id":"19a1939d-782e-49dc-a507-bca00355bd5f","issued":"2014-12-08T19:27:12.972-05:00","meta":{"lastUpdated":"2019-04-09T09:29:33.994770+00:00","versionId":"MTU1NDgwMjE3Mzk5NDc3MDAwMA"},"resourceType":"Observation","status":"final","subject":{"reference":"Patient/00a3c662-723c-4318-a94c-a7ae88033c2d"},"valueQuantity":{"code":"10*3/uL","system":"http://unitsofmeasure.org","unit":"10*3/uL","value":255.4414827496462}}},{"resource":{"category":[{"coding":[{"code":"laboratory","display":"laboratory","system":"http://hl7.org/fhir/observation-category"}]}],"code":{"coding":[{"code":"2093-3","display":"Total Cholesterol","system":"http://loinc.org"}],"text":"Total Cholesterol"},"context":{"reference":"Encounter/e1356a23-5b74-44cd-bcf2-fb3b12c1492a"},"effectiveDateTime":"2016-12-12T19:27:12-05:00","id":"19b3e8d2-b2a7-4ce9-be58-bbeb19fba053","issued":"2016-12-12T19:27:12.972-05:00","meta":{"lastUpdated":"2019-04-09T09:29:35.037734+00:00","versionId":"MTU1NDgwMjE3NTAzNzczNDAwMA"},"resourceType":"Observation","status":"final","subject":{"reference":"Patient/00a3c662-723c-4318-a94c-a7ae88033c2d"},"valueQuantity":{"code":"mg/dL","system":"http://unitsofmeasure.org","unit":"mg/dL","value":187.26596072797852}}},{"resource":{"category":[{"coding":[{"code":"laboratory","display":"laboratory","system":"http://hl7.org/fhir/observation-category"}]}],"code":{"coding":[{"code":"6299-2","display":"Urea Nitrogen","system":"http://loinc.org"}],"text":"Urea Nitrogen"},"context":{"reference":"Encounter/e1356a23-5b74-44cd-bcf2-fb3b12c1492a"},"effectiveDateTime":"2016-12-12T19:27:12-05:00","id":"19f094b0-0dde-430f-a88c-90b863b781c3","issued":"2016-12-12T19:27:12.972-05:00","meta":{"lastUpdated":"2019-04-09T09:29:35.048514+00:00","versionId":"MTU1NDgwMjE3NTA0ODUxNDAwMA"},"resourceType":"Observation","status":"final","subject":{"reference":"Patient/00a3c662-723c-4318-a94c-a7ae88033c2d"},"valueQuantity":{"code":"mg/dL","system":"http://unitsofmeasure.org","unit":"mg/dL","value":10.569399396556584}}},{"resource":{"category":[{"coding":[{"code":"laboratory","display":"laboratory","system":"http://hl7.org/fhir/observation-category"}]}],"code":{"coding":[{"code":"789-8","display":"Erythrocytes [#/volume] in Blood by Automated count","system":"http://loinc.org"}],"text":"Erythrocytes [#/volume] in Blood by Automated count"},"context":{"reference":"Encounter/52bb182a-f054-4ec5-adfe-abdf98d18bcc"},"effectiveDateTime":"2014-12-08T19:27:12-05:00","id":"1eabb8d6-8d3b-47cd-ab5a-82038188efbf","issued":"2014-12-08T19:27:12.972-05:00","meta":{"lastUpdated":"2019-04-09T09:29:33.989102+00:00","versionId":"MTU1NDgwMjE3Mzk4OTEwMjAwMA"},"resourceType":"Observation","status":"final","subject":{"reference":"Patient/00a3c662-723c-4318-a94c-a7ae88033c2d"},"valueQuantity":{"code":"10*6/uL","system":"http://unitsofmeasure.org","unit":"10*6/uL","value":4.554914786732444}}},{"resource":{"category":[{"coding":[{"code":"laboratory","display":"laboratory","system":"http://hl7.org/fhir/observation-category"}]}],"code":{"coding":[{"code":"2947-0","display":"Sodium","system":"http://loinc.org"}],"text":"Sodium"},"context":{"reference":"Encounter/18bc95c2-710f-4ce3-8fbf-e32211b68fab"},"effectiveDateTime":"2018-12-17T19:27:12-05:00","id":"1f063ad7-670b-4e94-9043-ddcacf9f0e9c","issued":"2018-12-17T19:27:12.972-05:00","meta":{"lastUpdated":"2019-04-09T09:29:35.049696+00:00","versionId":"MTU1NDgwMjE3NTA0OTY5NjAwMA"},"resourceType":"Observation","status":"final","subject":{"reference":"Patient/00a3c662-723c-4318-a94c-a7ae88033c2d"},"valueQuantity":{"code":"mmol/L","system":"http://unitsofmeasure.org","unit":"mmol/L","value":136.8411271047401}}},{"resource":{"category":[{"coding":[{"code":"vital-signs","display":"vital-signs","system":"http://hl7.org/fhir/observation-category"}]}],"code":{"coding":[{"code":"72514-3","display":"Pain severity - 0-10 verbal numeric rating [Score] - Reported","system":"http://loinc.org"}],"text":"Pain severity - 0-10 verbal numeric rating [Score] - Reported"},"context":{"reference":"Encounter/c61319cd-aeb6-4c6e-8f78-8d0d8c187a42"},"effectiveDateTime":"2012-12-03T19:27:12-05:00","id":"1faa16d7-fc90-4d78-961a-620a070a1f1e","issued":"2012-12-03T19:27:12.972-05:00","meta":{"lastUpdated":"2019-04-09T09:29:31.921015+00:00","versionId":"MTU1NDgwMjE3MTkyMTAxNTAwMA"},"resourceType":"Observation","status":"final","subject":{"reference":"Patient/00a3c662-723c-4318-a94c-a7ae88033c2d"},"valueQuantity":{"code":"{score}","system":"http://unitsofmeasure.org","unit":"{score}","value":1.7958111691689407}}},{"resource":{"category":[{"coding":[{"code":"laboratory","display":"laboratory","system":"http://hl7.org/fhir/observation-category"}]}],"code":{"coding":[{"code":"18262-6","display":"Low Density Lipoprotein Cholesterol","system":"http://loinc.org"}],"text":"Low Density Lipoprotein Cholesterol"},"context":{"reference":"Encounter/e1356a23-5b74-44cd-bcf2-fb3b12c1492a"},"effectiveDateTime":"2016-12-12T19:27:12-05:00","id":"20d1fdc0-444c-49be-bbdf-cbb61e60b8d0","issued":"2016-12-12T19:27:12.972-05:00","meta":{"lastUpdated":"2019-04-09T09:29:35.039611+00:00","versionId":"MTU1NDgwMjE3NTAzOTYxMTAwMA"},"resourceType":"Observation","status":"final","subject":{"reference":"Patient/00a3c662-723c-4318-a94c-a7ae88033c2d"},"valueQuantity":{"code":"mg/dL","system":"http://unitsofmeasure.org","unit":"mg/dL","value":95.80730969460306}}},{"resource":{"category":[{"coding":[{"code":"vital-signs","display":"vital-signs","system":"http://hl7.org/fhir/observation-category"}]}],"code":{"coding":[{"code":"39156-5","display":"Body Mass Index","system":"http://loinc.org"}],"text":"Body Mass Index"},"context":{"reference":"Encounter/52bb182a-f054-4ec5-adfe-abdf98d18bcc"},"effectiveDateTime":"2014-12-08T19:27:12-05:00","id":"22ba4c57-7cb6-4de7-80a8-cb4470348b17","issued":"2014-12-08T19:27:12.972-05:00","meta":{"lastUpdated":"2019-04-09T09:29:33.989100+00:00","versionId":"MTU1NDgwMjE3Mzk4OTEwMDAwMA"},"resourceType":"Observation","status":"final","subject":{"reference":"Patient/00a3c662-723c-4318-a94c-a7ae88033c2d"},"valueQuantity":{"code":"kg/m2","system":"http://unitsofmeasure.org","unit":"kg/m2","value":36.89033244981537}}},{"resource":{"category":[{"coding":[{"code":"laboratory","display":"laboratory","system":"http://hl7.org/fhir/observation-category"}]}],"code":{"coding":[{"code":"38483-4","display":"Creatinine","system":"http://loinc.org"}],"text":"Creatinine"},"context":{"reference":"Encounter/c61319cd-aeb6-4c6e-8f78-8d0d8c187a42"},"effectiveDateTime":"2012-12-03T19:27:12-05:00","id":"292b6b6e-3a40-4f0c-acc4-d76ae1ef0cb7","issued":"2012-12-03T19:27:12.972-05:00","meta":{"lastUpdated":"2019-04-09T09:29:31.920855+00:00","versionId":"MTU1NDgwMjE3MTkyMDg1NTAwMA"},"resourceType":"Observation","status":"final","subject":{"reference":"Patient/00a3c662-723c-4318-a94c-a7ae88033c2d"},"valueQuantity":{"code":"mg/dL","system":"http://unitsofmeasure.org","unit":"mg/dL","value":1.3986726223390107}}},{"resource":{"category":[{"coding":[{"code":"laboratory","display":"laboratory","system":"http://hl7.org/fhir/observation-category"}]}],"code":{"coding":[{"code":"2947-0","display":"Sodium","system":"http://loinc.org"}],"text":"Sodium"},"context":{"reference":"Encounter/7a4f8f7b-40b2-4b61-bf55-197839c0cd38"},"effectiveDateTime":"2010-11-29T19:27:12-05:00","id":"299b70de-4458-4a94-aded-c062cdb3c88b","issued":"2010-11-29T19:27:12.972-05:00","meta":{"lastUpdated":"2019-04-09T09:29:31.930583+00:00","versionId":"MTU1NDgwMjE3MTkzMDU4MzAwMA"},"resourceType":"Observation","status":"final","subject":{"reference":"Patient/00a3c662-723c-4318-a94c-a7ae88033c2d"},"valueQuantity":{"code":"mmol/L","system":"http://unitsofmeasure.org","unit":"mmol/L","value":141.8917760901715}}},{"resource":{"category":[{"coding":[{"code":"vital-signs","display":"vital-signs","system":"http://hl7.org/fhir/observation-category"}]}],"code":{"coding":[{"code":"8302-2","display":"Body Height","system":"http://loinc.org"}],"text":"Body Height"},"context":{"reference":"Encounter/c61319cd-aeb6-4c6e-8f78-8d0d8c187a42"},"effectiveDateTime":"2012-12-03T19:27:12-05:00","id":"2a310ffd-d7be-4abc-af6d-8bb35004b69d","issued":"2012-12-03T19:27:12.972-05:00","meta":{"lastUpdated":"2019-04-09T09:29:31.924531+00:00","versionId":"MTU1NDgwMjE3MTkyNDUzMTAwMA"},"resourceType":"Observation","status":"final","subject":{"reference":"Patient/00a3c662-723c-4318-a94c-a7ae88033c2d"},"valueQuantity":{"code":"cm","system":"http://unitsofmeasure.org","unit":"cm","value":160.12446409714607}}},{"resource":{"category":[{"coding":[{"code":"survey","display":"survey","system":"http://hl7.org/fhir/observation-category"}]}],"code":{"coding":[{"code":"72166-2","display":"Tobacco smoking status NHIS","system":"http://loinc.org"}],"text":"Tobacco smoking status NHIS"},"context":{"reference":"Encounter/52bb182a-f054-4ec5-adfe-abdf98d18bcc"},"effectiveDateTime":"2014-12-08T19:27:12-05:00","id":"2f6e5912-2a7b-4cd2-939f-f320004a563b","issued":"2014-12-08T19:27:12.972-05:00","meta":{"lastUpdated":"2019-04-09T09:29:33.989095+00:00","versionId":"MTU1NDgwMjE3Mzk4OTA5NTAwMA"},"resourceType":"Observation","status":"final","subject":{"reference":"Patient/00a3c662-723c-4318-a94c-a7ae88033c2d"},"valueCodeableConcept":{"coding":[{"code":"266919005","display":"Never smoker","system":"http://snomed.info/sct"}],"text":"Never smoker"}}},{"resource":{"category":[{"coding":[{"code":"vital-signs","display":"vital-signs","system":"http://hl7.org/fhir/observation-category"}]}],"code":{"coding":[{"code":"29463-7","display":"Body Weight","system":"http://loinc.org"}],"text":"Body Weight"},"context":{"reference":"Encounter/18bc95c2-710f-4ce3-8fbf-e32211b68fab"},"effectiveDateTime":"2018-12-17T19:27:12-05:00","id":"330faa7f-201e-4b33-96a2-ff01913fbb38","issued":"2018-12-17T19:27:12.972-05:00","meta":{"lastUpdated":"2019-04-09T09:29:35.039565+00:00","versionId":"MTU1NDgwMjE3NTAzOTU2NTAwMA"},"resourceType":"Observation","status":"final","subject":{"reference":"Patient/00a3c662-723c-4318-a94c-a7ae88033c2d"},"valueQuantity":{"code":"kg","system":"http://unitsofmeasure.org","unit":"kg","value":100.68050849991411}}},{"resource":{"category":[{"coding":[{"code":"laboratory","display":"laboratory","system":"http://hl7.org/fhir/observation-category"}]}],"code":{"coding":[{"code":"49765-1","display":"Calcium","system":"http://loinc.org"}],"text":"Calcium"},"context":{"reference":"Encounter/e1356a23-5b74-44cd-bcf2-fb3b12c1492a"},"effectiveDateTime":"2016-12-12T19:27:12-05:00","id":"333936c0-7674-4d9a-84ae-3232276ccc31","issued":"2016-12-12T19:27:12.972-05:00","meta":{"lastUpdated":"2019-04-09T09:29:35.048511+00:00","versionId":"MTU1NDgwMjE3NTA0ODUxMTAwMA"},"resourceType":"Observation","status":"final","subject":{"reference":"Patient/00a3c662-723c-4318-a94c-a7ae88033c2d"},"valueQuantity":{"code":"mg/dL","system":"http://unitsofmeasure.org","unit":"mg/dL","value":9.72957252404464}}},{"resource":{"category":[{"coding":[{"code":"laboratory","display":"laboratory","system":"http://hl7.org/fhir/observation-category"}]}],"code":{"coding":[{"code":"6299-2","display":"Urea Nitrogen","system":"http://loinc.org"}],"text":"Urea Nitrogen"},"context":{"reference":"Encounter/7a4f8f7b-40b2-4b61-bf55-197839c0cd38"},"effectiveDateTime":"2010-11-29T19:27:12-05:00","id":"3af9bb92-e826-4577-b70b-46fa443966f5","issued":"2010-11-29T19:27:12.972-05:00","meta":{"lastUpdated":"2019-04-09T09:29:31.930579+00:00","versionId":"MTU1NDgwMjE3MTkzMDU3OTAwMA"},"resourceType":"Observation","status":"final","subject":{"reference":"Patient/00a3c662-723c-4318-a94c-a7ae88033c2d"},"valueQuantity":{"code":"mg/dL","system":"http://unitsofmeasure.org","unit":"mg/dL","value":9.86265865695294}}},{"resource":{"category":[{"coding":[{"code":"laboratory","display":"laboratory","system":"http://hl7.org/fhir/observation-category"}]}],"code":{"coding":[{"code":"38483-4","display":"Creatinine","system":"http://loinc.org"}],"text":"Creatinine"},"context":{"reference":"Encounter/52bb182a-f054-4ec5-adfe-abdf98d18bcc"},"effectiveDateTime":"2014-12-08T19:27:12-05:00","id":"3b0f5b0b-8af9-4a2e-9fad-538df008f21d","issued":"2014-12-08T19:27:12.972-05:00","meta":{"lastUpdated":"2019-04-09T09:29:33.989098+00:00","versionId":"MTU1NDgwMjE3Mzk4OTA5ODAwMA"},"resourceType":"Observation","status":"final","subject":{"reference":"Patient/00a3c662-723c-4318-a94c-a7ae88033c2d"},"valueQuantity":{"code":"mg/dL","system":"http://unitsofmeasure.org","unit":"mg/dL","value":1.0608109210235752}}},{"resource":{"category":[{"coding":[{"code":"vital-signs","display":"vital-signs","system":"http://hl7.org/fhir/observation-category"}]}],"code":{"coding":[{"code":"72514-3","display":"Pain severity - 0-10 verbal numeric rating [Score] - Reported","system":"http://loinc.org"}],"text":"Pain severity - 0-10 verbal numeric rating [Score] - Reported"},"context":{"reference":"Encounter/7a4f8f7b-40b2-4b61-bf55-197839c0cd38"},"effectiveDateTime":"2010-11-29T19:27:12-05:00","id":"3b13cd9d-b52d-48e6-95a0-ab713847f6b3","issued":"2010-11-29T19:27:12.972-05:00","meta":{"lastUpdated":"2019-04-09T09:29:30.916643+00:00","versionId":"MTU1NDgwMjE3MDkxNjY0MzAwMA"},"resourceType":"Observation","status":"final","subject":{"reference":"Patient/00a3c662-723c-4318-a94c-a7ae88033c2d"},"valueQuantity":{"code":"{score}","system":"http://unitsofmeasure.org","unit":"{score}","value":0.7165817975381468}}},{"resource":{"category":[{"coding":[{"code":"laboratory","display":"laboratory","system":"http://hl7.org/fhir/observation-category"}]}],"code":{"coding":[{"code":"786-4","display":"MCHC [Mass/volume] by Automated count","system":"http://loinc.org"}],"text":"MCHC [Mass/volume] by Automated count"},"context":{"reference":"Encounter/52bb182a-f054-4ec5-adfe-abdf98d18bcc"},"effectiveDateTime":"2014-12-08T19:27:12-05:00","id":"3ebc0079-8bc8-4904-9cb5-d1ca4933bf73","issued":"2014-12-08T19:27:12.972-05:00","meta":{"lastUpdated":"2019-04-09T09:29:33.984016+00:00","versionId":"MTU1NDgwMjE3Mzk4NDAxNjAwMA"},"resourceType":"Observation","status":"final","subject":{"reference":"Patient/00a3c662-723c-4318-a94c-a7ae88033c2d"},"valueQuantity":{"code":"g/dL","system":"http://unitsofmeasure.org","unit":"g/dL","value":33.334979373230766}}},{"resource":{"category":[{"coding":[{"code":"vital-signs","display":"vital-signs","system":"http://hl7.org/fhir/observation-category"}]}],"code":{"coding":[{"code":"55284-4","display":"Blood Pressure","system":"http://loinc.org"}],"text":"Blood Pressure"},"component":[{"code":{"coding":[{"code":"8462-4","display":"Diastolic Blood Pressure","system":"http://loinc.org"}],"text":"Diastolic Blood Pressure"},"valueQuantity":{"code":"mmHg","system":"http://unitsofmeasure.org","unit":"mmHg","value":83.48843585567866}},{"code":{"coding":[{"code":"8480-6","display":"Systolic Blood Pressure","system":"http://loinc.org"}],"text":"Systolic Blood Pressure"},"valueQuantity":{"code":"mmHg","system":"http://unitsofmeasure.org","unit":"mmHg","value":115.87011844513471}}],"context":{"reference":"Encounter/7a4f8f7b-40b2-4b61-bf55-197839c0cd38"},"effectiveDateTime":"2010-11-29T19:27:12-05:00","id":"4348f036-2306-46b7-b0d7-b54ed232e2e1","issued":"2010-11-29T19:27:12.972-05:00","meta":{"lastUpdated":"2019-04-09T09:29:30.908322+00:00","versionId":"MTU1NDgwMjE3MDkwODMyMjAwMA"},"resourceType":"Observation","status":"final","subject":{"reference":"Patient/00a3c662-723c-4318-a94c-a7ae88033c2d"}}},{"resource":{"category":[{"coding":[{"code":"laboratory","display":"laboratory","system":"http://hl7.org/fhir/observation-category"}]}],"code":{"coding":[{"code":"2085-9","display":"High Density Lipoprotein Cholesterol","system":"http://loinc.org"}],"text":"High Density Lipoprotein Cholesterol"},"context":{"reference":"Encounter/c61319cd-aeb6-4c6e-8f78-8d0d8c187a42"},"effectiveDateTime":"2012-12-03T19:27:12-05:00","id":"44f7e81e-dca9-46c9-aa72-9cc932860350","issued":"2012-12-03T19:27:12.972-05:00","meta":{"lastUpdated":"2019-04-09T09:29:31.926072+00:00","versionId":"MTU1NDgwMjE3MTkyNjA3MjAwMA"},"resourceType":"Observation","status":"final","subject":{"reference":"Patient/00a3c662-723c-4318-a94c-a7ae88033c2d"},"valueQuantity":{"code":"mg/dL","system":"http://unitsofmeasure.org","unit":"mg/dL","value":68.18058510656101}}},{"resource":{"category":[{"coding":[{"code":"laboratory","display":"laboratory","system":"http://hl7.org/fhir/observation-category"}]}],"code":{"coding":[{"code":"32623-1","display":"Platelet mean volume [Entitic volume] in Blood by Automated count","system":"http://loinc.org"}],"text":"Platelet mean volume [Entitic volume] in Blood by Automated count"},"context":{"reference":"Encounter/52bb182a-f054-4ec5-adfe-abdf98d18bcc"},"effectiveDateTime":"2014-12-08T19:27:12-05:00","id":"4753bda1-8c19-4d9d-9d93-75114a0da600","issued":"2014-12-08T19:27:12.972-05:00","meta":{"lastUpdated":"2019-04-09T09:29:33.987004+00:00","versionId":"MTU1NDgwMjE3Mzk4NzAwNDAwMA"},"resourceType":"Observation","status":"final","subject":{"reference":"Patient/00a3c662-723c-4318-a94c-a7ae88033c2d"},"valueQuantity":{"code":"fL","system":"http://unitsofmeasure.org","unit":"fL","value":12.242734938799066}}},{"resource":{"category":[{"coding":[{"code":"laboratory","display":"laboratory","system":"http://hl7.org/fhir/observation-category"}]}],"code":{"coding":[{"code":"6298-4","display":"Potassium","system":"http://loinc.org"}],"text":"Potassium"},"context":{"reference":"Encounter/7a4f8f7b-40b2-4b61-bf55-197839c0cd38"},"effectiveDateTime":"2010-11-29T19:27:12-05:00","id":"49df7b01-f23d-4e23-896a-e37b98e7167a","issued":"2010-11-29T19:27:12.972-05:00","meta":{"lastUpdated":"2019-04-09T09:29:31.920846+00:00","versionId":"MTU1NDgwMjE3MTkyMDg0NjAwMA"},"resourceType":"Observation","status":"final","subject":{"reference":"Patient/00a3c662-723c-4318-a94c-a7ae88033c2d"},"valueQuantity":{"code":"mmol/L","system":"http://unitsofmeasure.org","unit":"mmol/L","value":4.083347182839869}}},{"resource":{"category":[{"coding":[{"code":"laboratory","display":"laboratory","system":"http://hl7.org/fhir/observation-category"}]}],"code":{"coding":[{"code":"4548-4","display":"Hemoglobin A1c/Hemoglobin.total in Blood","system":"http://loinc.org"}],"text":"Hemoglobin A1c/Hemoglobin.total in Blood"},"context":{"reference":"Encounter/52bb182a-f054-4ec5-adfe-abdf98d18bcc"},"effectiveDateTime":"2014-12-08T19:27:12-05:00","id":"4addb380-58f6-4934-b23f-834706e90b7f","issued":"2014-12-08T19:27:12.972-05:00","meta":{"lastUpdated":"2019-04-09T09:29:33.987034+00:00","versionId":"MTU1NDgwMjE3Mzk4NzAzNDAwMA"},"resourceType":"Observation","status":"final","subject":{"reference":"Patient/00a3c662-723c-4318-a94c-a7ae88033c2d"},"valueQuantity":{"code":"%","system":"http://unitsofmeasure.org","unit":"%","value":6.254556341191259}}},{"resource":{"category":[{"coding":[{"code":"vital-signs","display":"vital-signs","system":"http://hl7.org/fhir/observation-category"}]}],"code":{"coding":[{"code":"39156-5","display":"Body Mass Index","system":"http://loinc.org"}],"text":"Body Mass Index"},"context":{"reference":"Encounter/c61319cd-aeb6-4c6e-8f78-8d0d8c187a42"},"effectiveDateTime":"2012-12-03T19:27:12-05:00","id":"4f4630da-0d61-4ce0-bf65-2ec846d78576","issued":"2012-12-03T19:27:12.972-05:00","meta":{"lastUpdated":"2019-04-09T09:29:31.924533+00:00","versionId":"MTU1NDgwMjE3MTkyNDUzMzAwMA"},"resourceType":"Observation","status":"final","subject":{"reference":"Patient/00a3c662-723c-4318-a94c-a7ae88033c2d"},"valueQuantity":{"code":"kg/m2","system":"http://unitsofmeasure.org","unit":"kg/m2","value":35.65079255424455}}},{"resource":{"category":[{"coding":[{"code":"vital-signs","display":"vital-signs","system":"http://hl7.org/fhir/observation-category"}]}],"code":{"coding":[{"code":"8302-2","display":"Body Height","system":"http://loinc.org"}],"text":"Body Height"},"context":{"reference":"Encounter/18bc95c2-710f-4ce3-8fbf-e32211b68fab"},"effectiveDateTime":"2018-12-17T19:27:12-05:00","id":"4f4bf9f7-2b43-4440-af6c-0d383d80a841","issued":"2018-12-17T19:27:12.972-05:00","meta":{"lastUpdated":"2019-04-09T09:29:35.037737+00:00","versionId":"MTU1NDgwMjE3NTAzNzczNzAwMA"},"resourceType":"Observation","status":"final","subject":{"reference":"Patient/00a3c662-723c-4318-a94c-a7ae88033c2d"},"valueQuantity":{"code":"cm","system":"http://unitsofmeasure.org","unit":"cm","value":160.12446409714607}}},{"resource":{"category":[{"coding":[{"code":"vital-signs","display":"vital-signs","system":"http://hl7.org/fhir/observation-category"}]}],"code":{"coding":[{"code":"8302-2","display":"Body Height","system":"http://loinc.org"}],"text":"Body Height"},"context":{"reference":"Encounter/e1356a23-5b74-44cd-bcf2-fb3b12c1492a"},"effectiveDateTime":"2016-12-12T19:27:12-05:00","id":"513d87a0-416c-498d-88ce-6d57bce8279b","issued":"2016-12-12T19:27:12.972-05:00","meta":{"lastUpdated":"2019-04-09T09:29:33.988146+00:00","versionId":"MTU1NDgwMjE3Mzk4ODE0NjAwMA"},"resourceType":"Observation","status":"final","subject":{"reference":"Patient/00a3c662-723c-4318-a94c-a7ae88033c2d"},"valueQuantity":{"code":"cm","system":"http://unitsofmeasure.org","unit":"cm","value":160.12446409714607}}},{"resource":{"category":[{"coding":[{"code":"laboratory","display":"laboratory","system":"http://hl7.org/fhir/observation-category"}]}],"code":{"coding":[{"code":"20565-8","display":"Carbon Dioxide","system":"http://loinc.org"}],"text":"Carbon Dioxide"},"context":{"reference":"Encounter/c61319cd-aeb6-4c6e-8f78-8d0d8c187a42"},"effectiveDateTime":"2012-12-03T19:27:12-05:00","id":"51d4ca58-9025-40c6-8148-ca6a381804c1","issued":"2012-12-03T19:27:12.972-05:00","meta":{"lastUpdated":"2019-04-09T09:29:31.926070+00:00","versionId":"MTU1NDgwMjE3MTkyNjA3MDAwMA"},"resourceType":"Observation","status":"final","subject":{"reference":"Patient/00a3c662-723c-4318-a94c-a7ae88033c2d"},"valueQuantity":{"code":"mmol/L","system":"http://unitsofmeasure.org","unit":"mmol/L","value":28.57927821203274}}},{"resource":{"category":[{"coding":[{"code":"laboratory","display":"laboratory","system":"http://hl7.org/fhir/observation-category"}]}],"code":{"coding":[{"code":"6298-4","display":"Potassium","system":"http://loinc.org"}],"text":"Potassium"},"context":{"reference":"Encounter/c61319cd-aeb6-4c6e-8f78-8d0d8c187a42"},"effectiveDateTime":"2012-12-03T19:27:12-05:00","id":"52cc95c6-38ff-4504-97a7-7805ca7b140c","issued":"2012-12-03T19:27:12.972-05:00","meta":{"lastUpdated":"2019-04-09T09:29:31.922049+00:00","versionId":"MTU1NDgwMjE3MTkyMjA0OTAwMA"},"resourceType":"Observation","status":"final","subject":{"reference":"Patient/00a3c662-723c-4318-a94c-a7ae88033c2d"},"valueQuantity":{"code":"mmol/L","system":"http://unitsofmeasure.org","unit":"mmol/L","value":5.032157358185096}}},{"resource":{"category":[{"coding":[{"code":"laboratory","display":"laboratory","system":"http://hl7.org/fhir/observation-category"}]}],"code":{"coding":[{"code":"2339-0","display":"Glucose","system":"http://loinc.org"}],"text":"Glucose"},"context":{"reference":"Encounter/e1356a23-5b74-44cd-bcf2-fb3b12c1492a"},"effectiveDateTime":"2016-12-12T19:27:12-05:00","id":"54e68328-c81b-4b48-9943-6096c9bca7b0","issued":"2016-12-12T19:27:12.972-05:00","meta":{"lastUpdated":"2019-04-09T09:29:35.040134+00:00","versionId":"MTU1NDgwMjE3NTA0MDEzNDAwMA"},"resourceType":"Observation","status":"final","subject":{"reference":"Patient/00a3c662-723c-4318-a94c-a7ae88033c2d"},"valueQuantity":{"code":"mg/dL","system":"http://unitsofmeasure.org","unit":"mg/dL","value":75.8931852170622}}},{"resource":{"category":[{"coding":[{"code":"survey","display":"survey","system":"http://hl7.org/fhir/observation-category"}]}],"code":{"coding":[{"code":"72166-2","display":"Tobacco smoking status NHIS","system":"http://loinc.org"}],"text":"Tobacco smoking status NHIS"},"context":{"reference":"Encounter/c61319cd-aeb6-4c6e-8f78-8d0d8c187a42"},"effectiveDateTime":"2012-12-03T19:27:12-05:00","id":"5cad723b-47bf-4010-9596-2858a54c7d67","issued":"2012-12-03T19:27:12.972-05:00","meta":{"lastUpdated":"2019-04-09T09:29:31.921461+00:00","versionId":"MTU1NDgwMjE3MTkyMTQ2MTAwMA"},"resourceType":"Observation","status":"final","subject":{"reference":"Patient/00a3c662-723c-4318-a94c-a7ae88033c2d"},"valueCodeableConcept":{"coding":[{"code":"266919005","display":"Never smoker","system":"http://snomed.info/sct"}],"text":"Never smoker"}}},{"resource":{"category":[{"coding":[{"code":"laboratory","display":"laboratory","system":"http://hl7.org/fhir/observation-category"}]}],"code":{"coding":[{"code":"4544-3","display":"Hematocrit [Volume Fraction] of Blood by Automated count","system":"http://loinc.org"}],"text":"Hematocrit [Volume Fraction] of Blood by Automated count"},"context":{"reference":"Encounter/52bb182a-f054-4ec5-adfe-abdf98d18bcc"},"effectiveDateTime":"2014-12-08T19:27:12-05:00","id":"611b3c7e-c59c-4881-bf38-3c1e2305b31a","issued":"2014-12-08T19:27:12.972-05:00","meta":{"lastUpdated":"2019-04-09T09:29:33.989097+00:00","versionId":"MTU1NDgwMjE3Mzk4OTA5NzAwMA"},"resourceType":"Observation","status":"final","subject":{"reference":"Patient/00a3c662-723c-4318-a94c-a7ae88033c2d"},"valueQuantity":{"code":"%","system":"http://unitsofmeasure.org","unit":"%","value":41.65713982679448}}},{"resource":{"category":[{"coding":[{"code":"laboratory","display":"laboratory","system":"http://hl7.org/fhir/observation-category"}]}],"code":{"coding":[{"code":"6298-4","display":"Potassium","system":"http://loinc.org"}],"text":"Potassium"},"context":{"reference":"Encounter/52bb182a-f054-4ec5-adfe-abdf98d18bcc"},"effectiveDateTime":"2014-12-08T19:27:12-05:00","id":"62597ccf-621d-4ca1-b7e6-a0d70e72f121","issued":"2014-12-08T19:27:12.972-05:00","meta":{"lastUpdated":"2019-04-09T09:29:33.984014+00:00","versionId":"MTU1NDgwMjE3Mzk4NDAxNDAwMA"},"resourceType":"Observation","status":"final","subject":{"reference":"Patient/00a3c662-723c-4318-a94c-a7ae88033c2d"},"valueQuantity":{"code":"mmol/L","system":"http://unitsofmeasure.org","unit":"mmol/L","value":4.431445364622311}}},{"resource":{"category":[{"coding":[{"code":"laboratory","display":"laboratory","system":"http://hl7.org/fhir/observation-category"}]}],"code":{"coding":[{"code":"6299-2","display":"Urea Nitrogen","system":"http://loinc.org"}],"text":"Urea Nitrogen"},"context":{"reference":"Encounter/c61319cd-aeb6-4c6e-8f78-8d0d8c187a42"},"effectiveDateTime":"2012-12-03T19:27:12-05:00","id":"63b0c229-f646-4a13-b0a4-1ab1c25e2586","issued":"2012-12-03T19:27:12.972-05:00","meta":{"lastUpdated":"2019-04-09T09:29:31.926065+00:00","versionId":"MTU1NDgwMjE3MTkyNjA2NTAwMA"},"resourceType":"Observation","status":"final","subject":{"reference":"Patient/00a3c662-723c-4318-a94c-a7ae88033c2d"},"valueQuantity":{"code":"mg/dL","system":"http://unitsofmeasure.org","unit":"mg/dL","value":7.267866874164854}}},{"resource":{"category":[{"coding":[{"code":"laboratory","display":"laboratory","system":"http://hl7.org/fhir/observation-category"}]}],"code":{"coding":[{"code":"4548-4","display":"Hemoglobin A1c/Hemoglobin.total in Blood","system":"http://loinc.org"}],"text":"Hemoglobin A1c/Hemoglobin.total in Blood"},"context":{"reference":"Encounter/7a4f8f7b-40b2-4b61-bf55-197839c0cd38"},"effectiveDateTime":"2010-11-29T19:27:12-05:00","id":"6db18a8b-da73-4452-b3d3-a56609488bfa","issued":"2010-11-29T19:27:12.972-05:00","meta":{"lastUpdated":"2019-04-09T09:29:31.920840+00:00","versionId":"MTU1NDgwMjE3MTkyMDg0MDAwMA"},"resourceType":"Observation","status":"final","subject":{"reference":"Patient/00a3c662-723c-4318-a94c-a7ae88033c2d"},"valueQuantity":{"code":"%","system":"http://unitsofmeasure.org","unit":"%","value":6.301810272571781}}},{"resource":{"category":[{"coding":[{"code":"laboratory","display":"laboratory","system":"http://hl7.org/fhir/observation-category"}]}],"code":{"coding":[{"code":"32207-3","display":"Platelet distribution width [Entitic volume] in Blood by Automated count","system":"http://loinc.org"}],"text":"Platelet distribution width [Entitic volume] in Blood by Automated count"},"context":{"reference":"Encounter/52bb182a-f054-4ec5-adfe-abdf98d18bcc"},"effectiveDateTime":"2014-12-08T19:27:12-05:00","id":"6f5ebf2b-a62d-470e-8ba0-2e7b57ba5137","issued":"2014-12-08T19:27:12.972-05:00","meta":{"lastUpdated":"2019-04-09T09:29:33.986963+00:00","versionId":"MTU1NDgwMjE3Mzk4Njk2MzAwMA"},"resourceType":"Observation","status":"final","subject":{"reference":"Patient/00a3c662-723c-4318-a94c-a7ae88033c2d"},"valueQuantity":{"code":"fL","system":"http://unitsofmeasure.org","unit":"fL","value":253.3365223735639}}},{"resource":{"category":[{"coding":[{"code":"vital-signs","display":"vital-signs","system":"http://hl7.org/fhir/observation-category"}]}],"code":{"coding":[{"code":"29463-7","display":"Body Weight","system":"http://loinc.org"}],"text":"Body Weight"},"context":{"reference":"Encounter/52bb182a-f054-4ec5-adfe-abdf98d18bcc"},"effectiveDateTime":"2014-12-08T19:27:12-05:00","id":"73eea2d1-3e15-48a7-81ae-e4c5457042ad","issued":"2014-12-08T19:27:12.972-05:00","meta":{"lastUpdated":"2019-04-09T09:29:33.989099+00:00","versionId":"MTU1NDgwMjE3Mzk4OTA5OTAwMA"},"resourceType":"Observation","status":"final","subject":{"reference":"Patient/00a3c662-723c-4318-a94c-a7ae88033c2d"},"valueQuantity":{"code":"kg","system":"http://unitsofmeasure.org","unit":"kg","value":94.5862369209875}}},{"resource":{"category":[{"coding":[{"code":"vital-signs","display":"vital-signs","system":"http://hl7.org/fhir/observation-category"}]}],"code":{"coding":[{"code":"29463-7","display":"Body Weight","system":"http://loinc.org"}],"text":"Body Weight"},"context":{"reference":"Encounter/c61319cd-aeb6-4c6e-8f78-8d0d8c187a42"},"effectiveDateTime":"2012-12-03T19:27:12-05:00","id":"7704cbf2-a7e8-45a7-b7cc-e175b258233f","issued":"2012-12-03T19:27:12.972-05:00","meta":{"lastUpdated":"2019-04-09T09:29:31.921861+00:00","versionId":"MTU1NDgwMjE3MTkyMTg2MTAwMA"},"resourceType":"Observation","status":"final","subject":{"reference":"Patient/00a3c662-723c-4318-a94c-a7ae88033c2d"},"valueQuantity":{"code":"kg","system":"http://unitsofmeasure.org","unit":"kg","value":91.40807596526905}}},{"resource":{"category":[{"coding":[{"code":"laboratory","display":"laboratory","system":"http://hl7.org/fhir/observation-category"}]}],"code":{"coding":[{"code":"718-7","display":"Hemoglobin [Mass/volume] in Blood","system":"http://loinc.org"}],"text":"Hemoglobin [Mass/volume] in Blood"},"context":{"reference":"Encounter/52bb182a-f054-4ec5-adfe-abdf98d18bcc"},"effectiveDateTime":"2014-12-08T19:27:12-05:00","id":"79fa3393-ab00-47b7-b6bc-4daee2f24d5c","issued":"2014-12-08T19:27:12.972-05:00","meta":{"lastUpdated":"2019-04-09T09:29:33.989105+00:00","versionId":"MTU1NDgwMjE3Mzk4OTEwNTAwMA"},"resourceType":"Observation","status":"final","subject":{"reference":"Patient/00a3c662-723c-4318-a94c-a7ae88033c2d"},"valueQuantity":{"code":"g/dL","system":"http://unitsofmeasure.org","unit":"g/dL","value":17.023901555092166}}},{"resource":{"category":[{"coding":[{"code":"vital-signs","display":"vital-signs","system":"http://hl7.org/fhir/observation-category"}]}],"code":{"coding":[{"code":"72514-3","display":"Pain severity - 0-10 verbal numeric rating [Score] - Reported","system":"http://loinc.org"}],"text":"Pain severity - 0-10 verbal numeric rating [Score] - Reported"},"context":{"reference":"Encounter/52bb182a-f054-4ec5-adfe-abdf98d18bcc"},"effectiveDateTime":"2014-12-08T19:27:12-05:00","id":"7bc46bc5-35e3-44c2-a8ff-ac5b8a222b62","issued":"2014-12-08T19:27:12.972-05:00","meta":{"lastUpdated":"2019-04-09T09:29:32.939831+00:00","versionId":"MTU1NDgwMjE3MjkzOTgzMTAwMA"},"resourceType":"Observation","status":"final","subject":{"reference":"Patient/00a3c662-723c-4318-a94c-a7ae88033c2d"},"valueQuantity":{"code":"{score}","system":"http://unitsofmeasure.org","unit":"{score}","value":0.9543965845031974}}},{"resource":{"category":[{"coding":[{"code":"laboratory","display":"laboratory","system":"http://hl7.org/fhir/observation-category"}]}],"code":{"coding":[{"code":"20565-8","display":"Carbon Dioxide","system":"http://loinc.org"}],"text":"Carbon Dioxide"},"context":{"reference":"Encounter/e1356a23-5b74-44cd-bcf2-fb3b12c1492a"},"effectiveDateTime":"2016-12-12T19:27:12-05:00","id":"7bf50fbe-5fae-499e-86d2-f8916c8f64da","issued":"2016-12-12T19:27:12.972-05:00","meta":{"lastUpdated":"2019-04-09T09:29:35.038052+00:00","versionId":"MTU1NDgwMjE3NTAzODA1MjAwMA"},"resourceType":"Observation","status":"final","subject":{"reference":"Patient/00a3c662-723c-4318-a94c-a7ae88033c2d"},"valueQuantity":{"code":"mmol/L","system":"http://unitsofmeasure.org","unit":"mmol/L","value":20.17378937615212}}},{"resource":{"category":[{"coding":[{"code":"vital-signs","display":"vital-signs","system":"http://hl7.org/fhir/observation-category"}]}],"code":{"coding":[{"code":"39156-5","display":"Body Mass Index","system":"http://loinc.org"}],"text":"Body Mass Index"},"context":{"reference":"Encounter/18bc95c2-710f-4ce3-8fbf-e32211b68fab"},"effectiveDateTime":"2018-12-17T19:27:12-05:00","id":"7e9cdf60-564d-4148-bf29-f362c0ff1ab8","issued":"2018-12-17T19:27:12.972-05:00","meta":{"lastUpdated":"2019-04-09T09:29:35.039134+00:00","versionId":"MTU1NDgwMjE3NTAzOTEzNDAwMA"},"resourceType":"Observation","status":"final","subject":{"reference":"Patient/00a3c662-723c-4318-a94c-a7ae88033c2d"},"valueQuantity":{"code":"kg/m2","system":"http://unitsofmeasure.org","unit":"kg/m2","value":39.26720790130274}}},{"resource":{"category":[{"coding":[{"code":"survey","display":"survey","system":"http://hl7.org/fhir/observation-category"}]}],"code":{"coding":[{"code":"72166-2","display":"Tobacco smoking status NHIS","system":"http://loinc.org"}],"text":"Tobacco smoking status NHIS"},"context":{"reference":"Encounter/7a4f8f7b-40b2-4b61-bf55-197839c0cd38"},"effectiveDateTime":"2010-11-29T19:27:12-05:00","id":"8171328a-11e7-43cc-a2df-7d918a370a35","issued":"2010-11-29T19:27:12.972-05:00","meta":{"lastUpdated":"2019-04-09T09:29:31.920976+00:00","versionId":"MTU1NDgwMjE3MTkyMDk3NjAwMA"},"resourceType":"Observation","status":"final","subject":{"reference":"Patient/00a3c662-723c-4318-a94c-a7ae88033c2d"},"valueCodeableConcept":{"coding":[{"code":"266919005","display":"Never smoker","system":"http://snomed.info/sct"}],"text":"Never smoker"}}},{"resource":{"category":[{"coding":[{"code":"laboratory","display":"laboratory","system":"http://hl7.org/fhir/observation-category"}]}],"code":{"coding":[{"code":"2947-0","display":"Sodium","system":"http://loinc.org"}],"text":"Sodium"},"context":{"reference":"Encounter/c61319cd-aeb6-4c6e-8f78-8d0d8c187a42"},"effectiveDateTime":"2012-12-03T19:27:12-05:00","id":"840a3a09-b107-4968-ac18-48f92f6340c1","issued":"2012-12-03T19:27:12.972-05:00","meta":{"lastUpdated":"2019-04-09T09:29:31.921797+00:00","versionId":"MTU1NDgwMjE3MTkyMTc5NzAwMA"},"resourceType":"Observation","status":"final","subject":{"reference":"Patient/00a3c662-723c-4318-a94c-a7ae88033c2d"},"valueQuantity":{"code":"mmol/L","system":"http://unitsofmeasure.org","unit":"mmol/L","value":142.9742380848574}}},{"resource":{"category":[{"coding":[{"code":"vital-signs","display":"vital-signs","system":"http://hl7.org/fhir/observation-category"}]}],"code":{"coding":[{"code":"39156-5","display":"Body Mass Index","system":"http://loinc.org"}],"text":"Body Mass Index"},"context":{"reference":"Encounter/e1356a23-5b74-44cd-bcf2-fb3b12c1492a"},"effectiveDateTime":"2016-12-12T19:27:12-05:00","id":"8a65fe28-dd75-422b-a49c-6e4ec7110b17","issued":"2016-12-12T19:27:12.972-05:00","meta":{"lastUpdated":"2019-04-09T09:29:33.987197+00:00","versionId":"MTU1NDgwMjE3Mzk4NzE5NzAwMA"},"resourceType":"Observation","status":"final","subject":{"reference":"Patient/00a3c662-723c-4318-a94c-a7ae88033c2d"},"valueQuantity":{"code":"kg/m2","system":"http://unitsofmeasure.org","unit":"kg/m2","value":38.03918838003918}}},{"resource":{"category":[{"coding":[{"code":"vital-signs","display":"vital-signs","system":"http://hl7.org/fhir/observation-category"}]}],"code":{"coding":[{"code":"72514-3","display":"Pain severity - 0-10 verbal numeric rating [Score] - Reported","system":"http://loinc.org"}],"text":"Pain severity - 0-10 verbal numeric rating [Score] - Reported"},"context":{"reference":"Encounter/18bc95c2-710f-4ce3-8fbf-e32211b68fab"},"effectiveDateTime":"2018-12-17T19:27:12-05:00","id":"8c2a6d42-fb5a-401c-b52b-edba59ef59e9","issued":"2018-12-17T19:27:12.972-05:00","meta":{"lastUpdated":"2019-04-09T09:29:35.049692+00:00","versionId":"MTU1NDgwMjE3NTA0OTY5MjAwMA"},"resourceType":"Observation","status":"final","subject":{"reference":"Patient/00a3c662-723c-4318-a94c-a7ae88033c2d"},"valueQuantity":{"code":"{score}","system":"http://unitsofmeasure.org","unit":"{score}","value":0.032119928458673286}}},{"resource":{"category":[{"coding":[{"code":"laboratory","display":"laboratory","system":"http://hl7.org/fhir/observation-category"}]}],"code":{"coding":[{"code":"21000-5","display":"Erythrocyte distribution width [Entitic volume] by Automated count","system":"http://loinc.org"}],"text":"Erythrocyte distribution width [Entitic volume] by Automated count"},"context":{"reference":"Encounter/52bb182a-f054-4ec5-adfe-abdf98d18bcc"},"effectiveDateTime":"2014-12-08T19:27:12-05:00","id":"91f6c203-5920-487a-b696-d2632c495642","issued":"2014-12-08T19:27:12.972-05:00","meta":{"lastUpdated":"2019-04-09T09:29:33.987653+00:00","versionId":"MTU1NDgwMjE3Mzk4NzY1MzAwMA"},"resourceType":"Observation","status":"final","subject":{"reference":"Patient/00a3c662-723c-4318-a94c-a7ae88033c2d"},"valueQuantity":{"code":"fL","system":"http://unitsofmeasure.org","unit":"fL","value":45.00250869294083}}},{"resource":{"category":[{"coding":[{"code":"laboratory","display":"laboratory","system":"http://hl7.org/fhir/observation-category"}]}],"code":{"coding":[{"code":"6299-2","display":"Urea Nitrogen","system":"http://loinc.org"}],"text":"Urea Nitrogen"},"context":{"reference":"Encounter/52bb182a-f054-4ec5-adfe-abdf98d18bcc"},"effectiveDateTime":"2014-12-08T19:27:12-05:00","id":"9a5bf67e-751d-4fdf-9a76-a9df91c57726","issued":"2014-12-08T19:27:12.972-05:00","meta":{"lastUpdated":"2019-04-09T09:29:33.989093+00:00","versionId":"MTU1NDgwMjE3Mzk4OTA5MzAwMA"},"resourceType":"Observation","status":"final","subject":{"reference":"Patient/00a3c662-723c-4318-a94c-a7ae88033c2d"},"valueQuantity":{"code":"mg/dL","system":"http://unitsofmeasure.org","unit":"mg/dL","value":11.047559208013986}}},{"resource":{"category":[{"coding":[{"code":"survey","display":"survey","system":"http://hl7.org/fhir/observation-category"}]}],"code":{"coding":[{"code":"72166-2","display":"Tobacco smoking status NHIS","system":"http://loinc.org"}],"text":"Tobacco smoking status NHIS"},"context":{"reference":"Encounter/e1356a23-5b74-44cd-bcf2-fb3b12c1492a"},"effectiveDateTime":"2016-12-12T19:27:12-05:00","id":"a3c7da10-3f3b-4c77-805e-f7d809155d72","issued":"2016-12-12T19:27:12.972-05:00","meta":{"lastUpdated":"2019-04-09T09:29:35.048516+00:00","versionId":"MTU1NDgwMjE3NTA0ODUxNjAwMA"},"resourceType":"Observation","status":"final","subject":{"reference":"Patient/00a3c662-723c-4318-a94c-a7ae88033c2d"},"valueCodeableConcept":{"coding":[{"code":"266919005","display":"Never smoker","system":"http://snomed.info/sct"}],"text":"Never smoker"}}},{"resource":{"category":[{"coding":[{"code":"laboratory","display":"laboratory","system":"http://hl7.org/fhir/observation-category"}]}],"code":{"coding":[{"code":"4548-4","display":"Hemoglobin A1c/Hemoglobin.total in Blood","system":"http://loinc.org"}],"text":"Hemoglobin A1c/Hemoglobin.total in Blood"},"context":{"reference":"Encounter/18bc95c2-710f-4ce3-8fbf-e32211b68fab"},"effectiveDateTime":"2018-12-17T19:27:12-05:00","id":"a7709932-5712-49e7-8865-ed4b89a87678","issued":"2018-12-17T19:27:12.972-05:00","meta":{"lastUpdated":"2019-04-09T09:29:35.040114+00:00","versionId":"MTU1NDgwMjE3NTA0MDExNDAwMA"},"resourceType":"Observation","status":"final","subject":{"reference":"Patient/00a3c662-723c-4318-a94c-a7ae88033c2d"},"valueQuantity":{"code":"%","system":"http://unitsofmeasure.org","unit":"%","value":6.009431522768424}}}],"link":[{"url":"https://syntheticmass.mitre.org/v1/fhir/Patient/00a3c662-723c-4318-a94c-a7ae88033c2d/$everything?_count=100&page_token=CoIBcHJvamVjdHMvc3ludGhlYS9sb2NhdGlvbnMvdXMtY2VudHJhbDEvZGF0YXNldHMvMjAxOTAyL2ZoaXJTdG9yZXMvc3ludGhldGljLW1hc3MvZmhpci9QYXRpZW50LzAwYTNjNjYyLTcyM2MtNDMxOC1hOTRjLWE3YWU4ODAzM2MyZA%3D%3D","relation":"previous"},{"url":"https://syntheticmass.mitre.org/v1/fhir/Patient/00a3c662-723c-4318-a94c-a7ae88033c2d/$everything?_count=100&page_token=CoIBcHJvamVjdHMvc3ludGhlYS9sb2NhdGlvbnMvdXMtY2VudHJhbDEvZGF0YXNldHMvMjAxOTAyL2ZoaXJTdG9yZXMvc3ludGhldGljLW1hc3MvZmhpci9QYXRpZW50LzAwYTNjNjYyLTcyM2MtNDMxOC1hOTRjLWE3YWU4ODAzM2MyZCDIAQ%3D%3D","relation":"next"}],"total":241}
