{"resourceType":"Bundle","type":"searchset","entry":[{"resource":{"code":{"coding":[{"code":"57698-3","display":"Lipid Panel","system":"http://loinc.org"}],"text":"Lipid Panel"},"context":{"reference":"Encounter/b5cada8a-f282-40db-a8e9-71c5dd3a33f7"},"effectiveDateTime":"2016-09-01T08:24:53-04:00","id":"1f67e161-90fb-4347-b1da-e8fa509ec367","issued":"2016-09-01T08:24:53.240-04:00","meta":{"lastUpdated":"2019-04-09T11:38:44.662074+00:00","versionId":"MTU1NDgwOTkyNDY2MjA3NDAwMA"},"resourceType":"DiagnosticReport","result":[{"display":"Total Cholesterol","reference":"Observation/ba97e2b0-d827-4444-8e27-3c9787db661f"},{"display":"Triglycerides","reference":"Observation/c4828a9b-d429-4853-a001-e42e01a7a8ec"},{"display":"Low Density Lipoprotein Cholesterol","reference":"Observation/aa8d761b-d661-4ae8-a936-1784a646bf20"},{"display":"High Density Lipoprotein Cholesterol","reference":"Observation/dd61fcfa-233c-4a1a-898e-fa5780878563"}],"status":"final","subject":{"reference":"Patient/00ba2d77-4512-45d0-b58c-82ee3161b00e"}}},{"resource":{"code":{"coding":[{"code":"57698-3","display":"Lipid Panel","system":"http://loinc.org"}],"text":"Lipid Panel"},"context":{"reference":"Encounter/824ce325-e5ab-443f-9ce8-4c014da6fe36"},"effectiveDateTime":"2011-09-03T08:24:53-04:00","id":"24878285-5de1-4f76-ae7b-e8853e72ed7c","issued":"2011-09-03T08:24:53.240-04:00","meta":{"lastUpdated":"2019-04-09T11:38:35.408534+00:00","versionId":"MTU1NDgwOTkxNTQwODUzNDAwMA"},"resourceType":"DiagnosticReport","result":[{"display":"Total Cholesterol","reference":"Observation/2e1faf19-2957-4e3c-b98a-f9377763b3ea"},{"display":"Triglycerides","reference":"Observation/9c366515-4435-4293-bd5c-34a174885701"},{"display":"Low Density Lipoprotein Cholesterol","reference":"Observation/8c4a4163-ed10-4fb9-9615-3d5f6e4794b9"},{"display":"High Density Lipoprotein Cholesterol","reference":"Observation/a9d480bc-81b1-4e2d-97f5-34151b8fef4e"}],"status":"final","subject":{"reference":"Patient/00ba2d77-4512-45d0-b58c-82ee3161b00e"}}},{"resource":{"code":{"coding":[{"code":"24323-8","display":"Comprehensive metabolic 2000 panel - Serum or Plasma","system":"http://loinc.org"}],"text":"Comprehensive metabolic 2000 panel - Serum or Plasma"},"context":{"reference":"Encounter/f8f745a5-8c77-425e-a529-ad16ef5873f6"},"effectiveDateTime":"2018-09-01T08:24:53-04:00","id":"28e8ca28-3023-49b6-b1ea-8feea3007fa3","issued":"2018-09-01T08:24:53.240-04:00","meta":{"lastUpdated":"2019-04-09T11:38:47.766924+00:00","versionId":"MTU1NDgwOTkyNzc2NjkyNDAwMA"},"resourceType":"DiagnosticReport","result":[{"display":"Glucose","reference":"Observation/a90eb6c6-3baa-4932-b26c-1fa16d8ca3b5"},{"display":"Urea Nitrogen","reference":"Observation/3ee450b4-8db4-4070-aaf7-5631148b4c8d"},{"display":"Creatinine","reference":"Observation/7053cab7-2b1c-45f8-81f6-87f4bf47733d"},{"display":"Calcium","reference":"Observation/9cf53d17-adf6-43c4-b836-c1c1604c963e"},{"display":"Sodium","reference":"Observation/1e0446be-88ab-4511-b4f4-7992c599ec75"},{"display":"Potassium","reference":"Observation/d9ecfb6c-3cae-480b-9c56-46bf518466a6"},{"display":"Chloride","reference":"Observation/ac2177b2-bbfa-4020-9339-f11a293f9c99"},{"display":"Carbon Dioxide","reference":"Observation/08343fff-0b44-4b0b-9d87-b1277ae0f55a"},{"display":"Glomerular filtration rate/1.73 sq M.predicted","reference":"Observation/8126319f-9609-46e0-8cc8-241b36c52558"},{"display":"Protein [Mass/volume] in Serum or Plasma","reference":"Observation/0bd5e3c8-7341-41c5-bfa5-26cbf506385e"},{"display":"Albumin [Mass/volume] in Serum or Plasma","reference":"Observation/2db1744e-e3d0-42b2-9f0d-93fdaf8a1a59"},{"display":"Globulin [Mass/volume] in Serum by calculation","reference":"Observation/b95e27bd-e0b8-41b6-a6dc-9b338676cb72"},{"display":"Bilirubin.total [Mass/volume] in Serum or Plasma","reference":"Observation/217c0c5f-725a-4434-a45d-6914fab62fb3"},{"display":"Alkaline phosphatase [Enzymatic activity/volume] in Serum or Plasma","reference":"Observation/179d4426-1c11-46db-af4a-6ac4f38d6d29"},{"display":"Alanine aminotransferase [Enzymatic activity/volume] in Serum or Plasma","reference":"Observation/4639b5c1-2066-4dda-8084-4bd0d44680c8"},{"display":"Aspartate aminotransferase [Enzymatic activity/volume] in Serum or Plasma","reference":"Observation/a039544a-0a84-4d54-a667-4a18b81dbf04"}],"status":"final","subject":{"reference":"Patient/00ba2d77-4512-45d0-b58c-82ee3161b00e"}}},{"resource":{"code":{"coding":[{"code":"51990-0","display":"Basic Metabolic Panel","system":"http://loinc.org"}],"text":"Basic Metabolic Panel"},"context":{"reference":"Encounter/2a7e0665-ae76-4a43-949d-9e68f5a92f8c"},"effectiveDateTime":"2015-11-29T07:24:53-05:00","id":"2bb4ca04-7a32-43f7-ae9a-14e3d52daa1b","issued":"2015-11-29T07:24:53.240-05:00","meta":{"lastUpdated":"2019-04-09T11:38:44.659214+00:00","versionId":"MTU1NDgwOTkyNDY1OTIxNDAwMA"},"resourceType":"DiagnosticReport","result":[{"display":"Glucose","reference":"Observation/83145b3a-a65c-455d-b7f5-4064e030ef84"},{"display":"Urea Nitrogen","reference":"Observation/39f93f5d-cf55-49b0-991b-8a2dbdd8fc8e"},{"display":"Creatinine","reference":"Observation/08b7e88c-4b30-485c-8fda-7d77905bc201"},{"display":"Calcium","reference":"Observation/69eeee19-0755-4342-a67d-58afc749e6a3"},{"display":"Sodium","reference":"Observation/7f98edd7-8ed5-4d79-bdf1-6f8afc8246db"},{"display":"Potassium","reference":"Observation/d63ed8fb-eafd-4790-84bf-88e10b2f14ce"},{"display":"Chloride","reference":"Observation/b4000bea-3872-48d2-ba88-8863e05ccef0"},{"display":"Carbon Dioxide","reference":"Observation/6e79b786-56e9-494f-9dd5-0689d4658a33"}],"status":"final","subject":{"reference":"Patient/00ba2d77-4512-45d0-b58c-82ee3161b00e"}}},{"resource":{"code":{"coding":[{"code":"51990-0","display":"Basic Metabolic Panel","system":"http://loinc.org"}],"text":"Basic Metabolic Panel"},"context":{"reference":"Encounter/ca571824-6b9a-4c33-95c5-aa82391dd88a"},"effectiveDateTime":"2011-10-30T08:24:53-04:00","id":"39c7aac9-4b80-4800-8e0d-e0fddd42388d","issued":"2011-10-30T08:24:53.240-04:00","meta":{"lastUpdated":"2019-04-09T11:38:36.425442+00:00","versionId":"MTU1NDgwOTkxNjQyNTQ0MjAwMA"},"resourceType":"DiagnosticReport","result":[{"display":"Glucose","reference":"Observation/30e72151-b1f2-4927-a5b0-b362572237cd"},{"display":"Urea Nitrogen","reference":"Observation/0467bb77-2cfe-4c69-b86d-9cd65d51cff9"},{"display":"Creatinine","reference":"Observation/c9cb3afd-b5c5-4a3e-bfc6-74f757a45e1f"},{"display":"Calcium","reference":"Observation/ad7793ee-ec22-436d-aab5-835afb43577d"},{"display":"Sodium","reference":"Observation/0b898bf8-6473-453f-85fc-fd435c48aea1"},{"display":"Potassium","reference":"Observation/f235bd1f-b770-4be9-96e5-b35b9aa284d9"},{"display":"Chloride","reference":"Observation/295118bf-839c-4114-b66c-ccd73b694987"},{"display":"Carbon Dioxide","reference":"Observation/7c57e9cb-3cc8-4a88-98e9-6badec336938"}],"status":"final","subject":{"reference":"Patient/00ba2d77-4512-45d0-b58c-82ee3161b00e"}}},{"resource":{"code":{"coding":[{"code":"24323-8","display":"Comprehensive metabolic 2000 panel - Serum or Plasma","system":"http://loinc.org"}],"text":"Comprehensive metabolic 2000 panel - Serum or Plasma"},"context":{"reference":"Encounter/4e75ac48-3637-4a18-ac38-586107dde84a"},"effectiveDateTime":"2012-09-02T08:24:53-04:00","id":"3ad7d41b-ffa0-4dfa-885e-a7a68a2efeea","issued":"2012-09-02T08:24:53.240-04:00","meta":{"lastUpdated":"2019-04-09T11:38:37.440642+00:00","versionId":"MTU1NDgwOTkxNzQ0MDY0MjAwMA"},"resourceType":"DiagnosticReport","result":[{"display":"Glucose","reference":"Observation/7019f99c-a8aa-46bb-a669-eba542f223b2"},{"display":"Urea Nitrogen","reference":"Observation/ca81af9c-cd29-470d-a24a-fd87c1420955"},{"display":"Creatinine","reference":"Observation/77d95d00-6390-497c-881d-45748f2afb84"},{"display":"Calcium","reference":"Observation/2d95bba1-c5df-461a-ab0b-351151ab6b4d"},{"display":"Sodium","reference":"Observation/fb19c567-7a21-42c2-a712-3b1ec52a5c92"},{"display":"Potassium","reference":"Observation/5ac4fdfe-07a3-40aa-a2bc-ba1fc96f351f"},{"display":"Chloride","reference":"Observation/bfa69418-fc31-4c70-b941-52ee6e6aaa19"},{"display":"Carbon Dioxide","reference":"Observation/f9afe9f6-987b-4938-9a66-2a26985cb673"},{"display":"Glomerular filtration rate/1.73 sq M.predicted","reference":"Observation/8bbea74d-e26b-4a48-abd1-0b577e2c14b8"},{"display":"Protein [Mass/volume] in Serum or Plasma","reference":"Observation/caab8ad0-b89e-4785-a409-a6a17aeb4409"},{"display":"Albumin [Mass/volume] in Serum or Plasma","reference":"Observation/5ec5afec-eac3-4373-bfb2-eed4ac20ba94"},{"display":"Globulin [Mass/volume] in Serum by calculation","reference":"Observation/c1af8d12-d01a-4048-90bc-a1749404bb32"},{"display":"Bilirubin.total [Mass/volume] in Serum or Plasma","reference":"Observation/47824a61-4bde-48ae-86e9-4cf9127d0eb4"},{"display":"Alkaline phosphatase [Enzymatic activity/volume] in Serum or Plasma","reference":"Observation/1056fcd3-b985-4665-ac42-b6d5ad9f0850"},{"display":"Alanine aminotransferase [Enzymatic activity/volume] in Serum or Plasma","reference":"Observation/bd4d1dfe-28f0-4878-b4cf-324000d8ec43"},{"display":"Aspartate aminotransferase [Enzymatic activity/volume] in Serum or Plasma","reference":"Observation/c2e48644-143e-4aca-bc2d-ad53a8767b6e"}],"status":"final","subject":{"reference":"Patient/00ba2d77-4512-45d0-b58c-82ee3161b00e"}}},{"resource":{"code":{"coding":[{"code":"24323-8","display":"Comprehensive metabolic 2000 panel - Serum or Plasma","system":"http://loinc.org"}],"text":"Comprehensive metabolic 2000 panel - Serum or Plasma"},"context":{"reference":"Encounter/b5cada8a-f282-40db-a8e9-71c5dd3a33f7"},"effectiveDateTime":"2016-09-01T08:24:53-04:00","id":"3e204d78-e771-4141-b1a2-6379f1fabc6a","issued":"2016-09-01T08:24:53.240-04:00","meta":{"lastUpdated":"2019-04-09T11:38:44.655339+00:00","versionId":"MTU1NDgwOTkyNDY1NTMzOTAwMA"},"resourceType":"DiagnosticReport","result":[{"display":"Glucose","reference":"Observation/050d6a18-dd85-44ca-9a74-2ce305e58886"},{"display":"Urea Nitrogen","reference":"Observation/9045897a-3602-439a-9616-a37b54660d96"},{"display":"Creatinine","reference":"Observation/5928ba67-d3a7-41d1-bb64-15e3e11b7152"},{"display":"Calcium","reference":"Observation/1ba2153e-4697-4300-8cc1-ff2765404c59"},{"display":"Sodium","reference":"Observation/f2d9ac26-e6d8-431d-a1aa-45df050edd25"},{"display":"Potassium","reference":"Observation/e5d6b8f3-d945-404d-872a-335f2bff573b"},{"display":"Chloride","reference":"Observation/9f037273-e61f-4aea-9d9e-04b122fb62b2"},{"display":"Carbon Dioxide","reference":"Observation/082cd32f-c207-4e74-9872-873510adb75b"},{"display":"Glomerular filtration rate/1.73 sq M.predicted","reference":"Observation/1d6d6b23-2572-4fe9-8f54-ca08a5a8e439"},{"display":"Protein [Mass/volume] in Serum or Plasma","reference":"Observation/c14ed472-95c4-46b1-9743-abce2d185d05"},{"display":"Albumin [Mass/volume] in Serum or Plasma","reference":"Observation/4173bc27-1c17-4fcf-8ab8-dc83567244c3"},{"display":"Globulin [Mass/volume] in Serum by calculation","reference":"Observation/d290ad17-35c8-45b1-999b-20e77514162b"},{"display":"Bilirubin.total [Mass/volume] in Serum or Plasma","reference":"Observation/6aa87fad-9e34-4f32-8f25-7eb4c137fcfe"},{"display":"Alkaline phosphatase [Enzymatic activity/volume] in Serum or Plasma","reference":"Observation/6a6b93bb-8cf8-4f17-a367-f7552ac3c9a6"},{"display":"Alanine aminotransferase [Enzymatic activity/volume] in Serum or Plasma","reference":"Observation/8805d7f9-d048-4835-a5b0-f43879123cb4"},{"display":"Aspartate aminotransferase [Enzymatic activity/volume] in Serum or Plasma","reference":"Observation/8316bf9a-64ce-4825-b6cc-ab3c9a332f3a"}],"status":"final","subject":{"reference":"Patient/00ba2d77-4512-45d0-b58c-82ee3161b00e"}}},{"resource":{"code":{"coding":[{"code":"51990-0","display":"Basic Metabolic Panel","system":"http://loinc.org"}],"text":"Basic Metabolic Panel"},"context":{"reference":"Encounter/d040d467-55a8-4786-93e9-52cff99788a9"},"effectiveDateTime":"2018-12-16T07:24:53-05:00","id":"408ba818-8765-423e-a9ad-7f357d5c3638","issued":"2018-12-16T07:24:53.240-05:00","meta":{"lastUpdated":"2019-04-09T11:38:48.818893+00:00","versionId":"MTU1NDgwOTkyODgxODg5MzAwMA"},"resourceType":"DiagnosticReport","result":[{"display":"Glucose","reference":"Observation/04dfdb57-454f-472d-9d40-eadd6d7d2556"},{"display":"Urea Nitrogen","reference":"Observation/eec530d5-d1f2-4556-adbc-eb0d5a20894b"},{"display":"Creatinine","reference":"Observation/600a524f-1a7a-4e35-92bc-c2bcc3047a61"},{"display":"Calcium","reference":"Observation/0370df55-07c0-4888-a6b1-14143dfe4873"},{"display":"Sodium","reference":"Observation/2c665d68-20eb-4885-a4ad-16b1245eb471"},{"display":"Potassium","reference":"Observation/358430f2-dde6-42c3-9581-50fdec848f42"},{"display":"Chloride","reference":"Observation/8cb934f9-24cd-4314-9784-c1e07e33022b"},{"display":"Carbon Dioxide","reference":"Observation/650eb383-5b7a-4b54-8b57-d6ac592bee8b"}],"status":"final","subject":{"reference":"Patient/00ba2d77-4512-45d0-b58c-82ee3161b00e"}}},{"resource":{"code":{"coding":[{"code":"57698-3","display":"Lipid Panel","system":"http://loinc.org"}],"text":"Lipid Panel"},"context":{"reference":"Encounter/ca571824-6b9a-4c33-95c5-aa82391dd88a"},"effectiveDateTime":"2011-10-30T08:24:53-04:00","id":"42a1be40-a88d-4454-86b9-eb8db6ccbad9","issued":"2011-10-30T08:24:53.240-04:00","meta":{"lastUpdated":"2019-04-09T11:38:36.424034+00:00","versionId":"MTU1NDgwOTkxNjQyNDAzNDAwMA"},"resourceType":"DiagnosticReport","result":[{"display":"Total Cholesterol","reference":"Observation/c5f631ea-63f0-471b-af84-48f6e7428109"},{"display":"Triglycerides","reference":"Observation/b9b52531-89c0-44f9-a129-b991b9eab307"},{"display":"Low Density Lipoprotein Cholesterol","reference":"Observation/f3f5c5cb-6424-4b20-b4c1-fe155f335f9b"},{"display":"High Density Lipoprotein Cholesterol","reference":"Observation/a186bd07-a683-4b12-aa79-4975627f97e6"}],"status":"final","subject":{"reference":"Patient/00ba2d77-4512-45d0-b58c-82ee3161b00e"}}},{"resource":{"code":{"coding":[{"code":"57698-3","display":"Lipid Panel","system":"http://loinc.org"}],"text":"Lipid Panel"},"context":{"reference":"Encounter/62615645-67d2-4d99-aa3c-9c8af4e1f21d"},"effectiveDateTime":"2014-11-16T07:24:53-05:00","id":"43a04baa-b4b6-4688-a546-5af1a2b97b1a","issued":"2014-11-16T07:24:53.240-05:00","meta":{"lastUpdated":"2019-04-09T11:38:41.601092+00:00","versionId":"MTU1NDgwOTkyMTYwMTA5MjAwMA"},"resourceType":"DiagnosticReport","result":[{"display":"Total Cholesterol","reference":"Observation/dab49cdd-f8c3-45c8-abbc-96c9772f2871"},{"display":"Triglycerides","reference":"Observation/35f81e12-cacb-4441-b69f-c8ca41ca2b06"},{"display":"Low Density Lipoprotein Cholesterol","reference":"Observation/4207bffd-8da2-4983-a73c-549001243410"},{"display":"High Density Lipoprotein Cholesterol","reference":"Observation/c8695fb9-c9f3-411c-b2ce-023d8b3f9dac"}],"status":"final","subject":{"reference":"Patient/00ba2d77-4512-45d0-b58c-82ee3161b00e"}}},{"resource":{"code":{"coding":[{"code":"58410-2","display":"Complete blood count (hemogram) panel - Blood by Automated count","system":"http://loinc.org"}],"text":"Complete blood count (hemogram) panel - Blood by Automated count"},"context":{"reference":"Encounter/4676d33b-5ac6-499e-97bf-3ac76b65e626"},"effectiveDateTime":"2012-11-04T07:24:53-05:00","id":"5810020a-433a-4e24-8b29-4ce7398fe60e","issued":"2012-11-04T07:24:53.240-05:00","meta":{"lastUpdated":"2019-04-09T11:38:38.478397+00:00","versionId":"MTU1NDgwOTkxODQ3ODM5NzAwMA"},"resourceType":"DiagnosticReport","result":[{"display":"Leukocytes [#/volume] in Blood by Automated count","reference":"Observation/92573098-f646-4874-9030-e7c0fcf77ab6"},{"display":"Erythrocytes [#/volume] in Blood by Automated count","reference":"Observation/6ffc1ae6-0588-429f-a151-c00d3b21afb4"},{"display":"Hemoglobin [Mass/volume] in Blood","reference":"Observation/79a477bc-83e3-4e23-aae9-05e4ee7b905a"},{"display":"Hematocrit [Volume Fraction] of Blood by Automated count","reference":"Observation/35a92593-31a2-4031-975c-31a93431652e"},{"display":"MCV [Entitic volume] by Automated count","reference":"Observation/49cfcafa-805c-47b4-8e85-2827f3b79936"},{"display":"MCH [Entitic mass] by Automated count","reference":"Observation/017a702a-117e-4292-a9cb-0ba84a6d66ba"},{"display":"MCHC [Mass/volume] by Automated count","reference":"Observation/30e1c812-2303-4bbe-a8d4-ae8655f37df1"},{"display":"Erythrocyte distribution width [Entitic volume] by Automated count","reference":"Observation/c6b6d30d-805c-46ce-98ca-ad771e32356d"},{"display":"Platelets [#/volume] in Blood by Automated count","reference":"Observation/a8cf328c-531c-428c-b4a6-13a81e70096c"},{"display":"Platelet distribution width [Entitic volume] in Blood by Automated count","reference":"Observation/a6a7aa85-3722-4c69-bd64-ab54cfb4ae2b"},{"display":"Platelet mean volume [Entitic volume] in Blood by Automated count","reference":"Observation/ff1cb185-b694-4a64-b777-bea4e32b9aa7"}],"status":"final","subject":{"reference":"Patient/00ba2d77-4512-45d0-b58c-82ee3161b00e"}}},{"resource":{"code":{"coding":[{"code":"57698-3","display":"Lipid Panel","system":"http://loinc.org"}],"text":"Lipid Panel"},"context":{"reference":"Encounter/662be9d8-a254-4540-b569-716a1b080de8"},"effectiveDateTime":"2009-09-03T08:24:53-04:00","id":"5b54cbea-1421-4bf9-8f5b-20f755af2107","issued":"2009-09-03T08:24:53.240-04:00","meta":{"lastUpdated":"2019-04-09T11:38:33.388597+00:00","versionId":"MTU1NDgwOTkxMzM4ODU5NzAwMA"},"resourceType":"DiagnosticReport","result":[{"display":"Total Cholesterol","reference":"Observation/f92717d6-e84b-4ff4-ba34-9da75d69c05c"},{"display":"Triglycerides","reference":"Observation/03281625-72ed-4d24-be5c-0bd2e9c8f099"},{"display":"Low Density Lipoprotein Cholesterol","reference":"Observation/d6c30459-4f0d-4ad1-b055-309fdb11ff92"},{"display":"High Density Lipoprotein Cholesterol","reference":"Observation/cdb2db46-464d-42c3-be7d-6f123b2d8cad"}],"status":"final","subject":{"reference":"Patient/00ba2d77-4512-45d0-b58c-82ee3161b00e"}}},{"resource":{"code":{"coding":[{"code":"51990-0","display":"Basic Metabolic Panel","system":"http://loinc.org"}],"text":"Basic Metabolic Panel"},"context":{"reference":"Encounter/f5ca8abf-3836-4a23-a11a-b093cee82ad6"},"effectiveDateTime":"2010-10-24T08:24:53-04:00","id":"64811644-249d-4e6e-a00e-e2e4c853901a","issued":"2010-10-24T08:24:53.240-04:00","meta":{"lastUpdated":"2019-04-09T11:38:35.407561+00:00","versionId":"MTU1NDgwOTkxNTQwNzU2MTAwMA"},"resourceType":"DiagnosticReport","result":[{"display":"Glucose","reference":"Observation/ab4697ce-289b-46be-bdfc-f9a2f1d034da"},{"display":"Urea Nitrogen","reference":"Observation/e8c055ea-b2a1-4b1f-9b58-2ee20763cc15"},{"display":"Creatinine","reference":"Observation/d1503996-3b44-4c10-86ac-be13faf0f788"},{"display":"Calcium","reference":"Observation/87170f7a-4ad7-427c-ab90-c2919d059107"},{"display":"Sodium","reference":"Observation/940b353f-6e49-4144-b482-7bf041d2e6d3"},{"display":"Potassium","reference":"Observation/22e402e2-3c92-44d3-9e31-77c1a738f4a7"},{"display":"Chloride","reference":"Observation/99f3c9e7-a15c-4202-a979-0b615f269244"},{"display":"Carbon Dioxide","reference":"Observation/1b2f11bb-17a2-4727-b357-7e3b5d90e992"}],"status":"final","subject":{"reference":"Patient/00ba2d77-4512-45d0-b58c-82ee3161b00e"}}},{"resource":{"code":{"coding":[{"code":"57698-3","display":"Lipid Panel","system":"http://loinc.org"}],"text":"Lipid Panel"},"context":{"reference":"Encounter/f36513cc-cff9-4935-9ccb-cead1baf1f52"},"effectiveDateTime":"2014-09-02T08:24:53-04:00","id":"71069210-d777-4900-8a6f-23b5bbb94b94","issued":"2014-09-02T08:24:53.240-04:00","meta":{"lastUpdated":"2019-04-09T11:38:41.600712+00:00","versionId":"MTU1NDgwOTkyMTYwMDcxMjAwMA"},"resourceType":"DiagnosticReport","result":[{"display":"Total Cholesterol","reference":"Observation/1b74b098-9b72-421a-a638-56446d8a7194"},{"display":"Triglycerides","reference":"Observation/2e8aeeda-0992-4e40-bd54-3bea8addaefc"},{"display":"Low Density Lipoprotein Cholesterol","reference":"Observation/2467ae1a-47eb-4e2c-bec2-56101e36015f"},{"display":"High Density Lipoprotein Cholesterol","reference":"Observation/89476d1f-2719-41b2-a3f2-eacc8eddb6aa"}],"status":"final","subject":{"reference":"Patient/00ba2d77-4512-45d0-b58c-82ee3161b00e"}}},{"resource":{"code":{"coding":[{"code":"24323-8","display":"Comprehensive metabolic 2000 panel - Serum or Plasma","system":"http://loinc.org"}],"text":"Comprehensive metabolic 2000 panel - Serum or Plasma"},"context":{"reference":"Encounter/f0fba7d8-7c37-4e8f-bb83-b0a88440e054"},"effectiveDateTime":"2013-09-02T08:24:53-04:00","id":"7a6a5f84-73d7-4a23-8f1e-0f8aa2039f79","issued":"2013-09-02T08:24:53.240-04:00","meta":{"lastUpdated":"2019-04-09T11:38:39.509057+00:00","versionId":"MTU1NDgwOTkxOTUwOTA1NzAwMA"},"resourceType":"DiagnosticReport","result":[{"display":"Glucose","reference":"Observation/d1aa429c-55e5-49c1-bf72-c51174dfca20"},{"display":"Urea Nitrogen","reference":"Observation/4a5aa74c-71b3-4b3e-878e-332541070e41"},{"display":"Creatinine","reference":"Observation/b8071ea0-c1bc-4470-80da-531b1a910593"},{"display":"Calcium","reference":"Observation/2271bbd8-a796-47d4-886b-093b64012479"},{"display":"Sodium","reference":"Observation/5149fc16-96f5-414d-9686-1b98b5c2b911"},{"display":"Potassium","reference":"Observation/6978aeb4-5d41-4916-803c-8d022c42ce04"},{"display":"Chloride","reference":"Observation/dac35fa6-32d5-4035-abd8-13c09fb47d55"},{"display":"Carbon Dioxide","reference":"Observation/c8d8c262-f343-479e-b8d4-d6b2e1be607a"},{"display":"Glomerular filtration rate/1.73 sq M.predicted","reference":"Observation/1d90b338-1914-4050-bb35-235a247a1971"},{"display":"Protein [Mass/volume] in Serum or Plasma","reference":"Observation/b86d62c5-d31a-4adf-beae-d08aad67b291"},{"display":"Albumin [Mass/volume] in Serum or Plasma","reference":"Observation/d56cfc57-7138-4bc4-99fd-c908fb37414a"},{"display":"Globulin [Mass/volume] in Serum by calculation","reference":"Observation/39a4d02e-0ab7-4c94-b569-17110f46f1da"},{"display":"Bilirubin.total [Mass/volume] in Serum or Plasma","reference":"Observation/6fd8f744-4d6c-41f2-b103-be6c27f64bac"},{"display":"Alkaline phosphatase [Enzymatic activity/volume] in Serum or Plasma","reference":"Observation/c9c77c8a-0c9c-45d9-98fb-5fc67dc4716b"},{"display":"Alanine aminotransferase [Enzymatic activity/volume] in Serum or Plasma","reference":"Observation/68faddea-431f-4055-a0c7-320e76113ab9"},{"display":"Aspartate aminotransferase [Enzymatic activity/volume] in Serum or Plasma","reference":"Observation/0e6744a0-1867-4894-b4d3-5f51f34f99a1"}],"status":"final","subject":{"reference":"Patient/00ba2d77-4512-45d0-b58c-82ee3161b00e"}}},{"resource":{"code":{"coding":[{"code":"57698-3","display":"Lipid Panel","system":"http://loinc.org"}],"text":"Lipid Panel"},"context":{"reference":"Encounter/853e4d39-4587-4b1c-b969-4dd2b78aea65"},"effectiveDateTime":"2017-09-01T08:24:53-04:00","id":"7b721bef-7b5d-41d1-8c2a-d02e289d11bd","issued":"2017-09-01T08:24:53.240-04:00","meta":{"lastUpdated":"2019-04-09T11:38:45.680223+00:00","versionId":"MTU1NDgwOTkyNTY4MDIyMzAwMA"},"resourceType":"DiagnosticReport","result":[{"display":"Total Cholesterol","reference":"Observation/13769168-1993-4ad6-a894-2965c94ecb99"},{"display":"Triglycerides","reference":"Observation/69f106e0-d40e-475c-8188-bff4dd3074d6"},{"display":"Low Density Lipoprotein Cholesterol","reference":"Observation/e660a1b2-ddbb-4463-8689-f8749149323e"},{"display":"High Density Lipoprotein Cholesterol","reference":"Observation/4a116431-8b0f-4790-a9ec-d1b0e048cea6"}],"status":"final","subject":{"reference":"Patient/00ba2d77-4512-45d0-b58c-82ee3161b00e"}}},{"resource":{"code":{"coding":[{"code":"51990-0","display":"Basic Metabolic Panel","system":"http://loinc.org"}],"text":"Basic Metabolic Panel"},"context":{"reference":"Encounter/62615645-67d2-4d99-aa3c-9c8af4e1f21d"},"effectiveDateTime":"2014-11-16T07:24:53-05:00","id":"884156c5-60da-4327-940e-97168f3ceee4","issued":"2014-11-16T07:24:53.240-05:00","meta":{"lastUpdated":"2019-04-09T11:38:41.614091+00:00","versionId":"MTU1NDgwOTkyMTYxNDA5MTAwMA"},"resourceType":"DiagnosticReport","result":[{"display":"Glucose","reference":"Observation/e73df4dd-2b6a-4501-bb4f-16b60f0c3967"},{"display":"Urea Nitrogen","reference":"Observation/c5596ba0-b25d-4596-bb6f-98bc41fdab7a"},{"display":"Creatinine","reference":"Observation/2eebf39e-cefa-4904-87b6-60629dc09623"},{"display":"Calcium","reference":"Observation/5bcc816c-ef78-4e03-acdc-de5e2fe6fddc"},{"display":"Sodium","reference":"Observation/84cba6b9-87fd-452b-b2b0-72ec38e3764f"},{"display":"Potassium","reference":"Observation/a2d037cd-a87e-4e59-af0b-c33aabd7d33c"},{"display":"Chloride","reference":"Observation/81a9e41d-bdff-4671-a55a-a4156c1bef22"},{"display":"Carbon Dioxide","reference":"Observation/3c42c28c-6ec8-41ec-8afb-a6077833fafb"}],"status":"final","subject":{"reference":"Patient/00ba2d77-4512-45d0-b58c-82ee3161b00e"}}},{"resource":{"code":{"coding":[{"code":"58410-2","display":"Complete blood count (hemogram) panel - Blood by Automated count","system":"http://loinc.org"}],"text":"Complete blood count (hemogram) panel - Blood by Automated count"},"context":{"reference":"Encounter/e9be45b5-7c71-4054-ad2e-5ff3cd35550d"},"effectiveDateTime":"2017-12-10T07:24:53-05:00","id":"8c3942b4-0203-454f-8032-7562916e2ba4","issued":"2017-12-10T07:24:53.240-05:00","meta":{"lastUpdated":"2019-04-09T11:38:46.692645+00:00","versionId":"MTU1NDgwOTkyNjY5MjY0NTAwMA"},"resourceType":"DiagnosticReport","result":[{"display":"Leukocytes [#/volume] in Blood by Automated count","reference":"Observation/5bfb471f-4829-408b-83e6-96a2beafad28"},{"display":"Erythrocytes [#/volume] in Blood by Automated count","reference":"Observation/62343870-0e67-4e4d-89bc-92dc3f02090d"},{"display":"Hemoglobin [Mass/volume] in Blood","reference":"Observation/fcd3ea62-a398-44d6-9d50-c64dbd778bd3"},{"display":"Hematocrit [Volume Fraction] of Blood by Automated count","reference":"Observation/37fcc63b-3d82-45e7-93be-e3291888a477"},{"display":"MCV [Entitic volume] by Automated count","reference":"Observation/c8f09a3a-d47d-43d0-9d53-38097bf8afd7"},{"display":"MCH [Entitic mass] by Automated count","reference":"Observation/6fcb5664-8c0d-4390-b15d-4d67232667d4"},{"display":"MCHC [Mass/volume] by Automated count","reference":"Observation/1e4a2ae3-13be-4f48-af20-6c478a36e14c"},{"display":"Erythrocyte distribution width [Entitic volume] by Automated count","reference":"Observation/c6962a00-60ad-4310-b384-0960536b7d54"},{"display":"Platelets [#/volume] in Blood by Automated count","reference":"Observation/14aed065-7d28-4126-a7bb-1647c571ab5c"},{"display":"Platelet distribution width [Entitic volume] in Blood by Automated count","reference":"Observation/48448db6-3a5c-4333-8dfb-c1dfb132cbbb"},{"display":"Platelet mean volume [Entitic volume] in Blood by Automated count","reference":"Observation/85f5fdde-0ee8-4853-8208-0453b1ca303d"}],"status":"final","subject":{"reference":"Patient/00ba2d77-4512-45d0-b58c-82ee3161b00e"}}},{"resource":{"code":{"coding":[{"code":"24323-8","display":"Comprehensive metabolic 2000 panel - Serum or Plasma","system":"http://loinc.org"}],"text":"Comprehensive metabolic 2000 panel - Serum or Plasma"},"context":{"reference":"Encounter/84c1d4a3-ee6b-4b09-bf77-6841e8c8e908"},"effectiveDateTime":"2010-09-03T08:24:53-04:00","id":"93cd4377-6340-42bc-a350-53481bb254aa","issued":"2010-09-03T08:24:53.240-04:00","meta":{"lastUpdated":"2019-04-09T11:38:34.402212+00:00","versionId":"MTU1NDgwOTkxNDQwMjIxMjAwMA"},"resourceType":"DiagnosticReport","result":[{"display":"Glucose","reference":"Observation/6e272628-9c96-4fe7-b824-bcc7feb66f8e"},{"display":"Urea Nitrogen","reference":"Observation/8b3e45b5-0235-401e-b95e-b5768a139490"},{"display":"Creatinine","reference":"Observation/b5b7720a-c733-4c5e-bca9-18329e3d9877"},{"display":"Calcium","reference":"Observation/944bf7a2-48ba-4359-b2ab-70b5f8c2cb51"},{"display":"Sodium","reference":"Observation/f37eb202-0563-49a5-be87-bd32b2537a86"},{"display":"Potassium","reference":"Observation/8c5574d7-df35-41f7-8102-fff2a931748b"},{"display":"Chloride","reference":"Observation/8ff6f2e0-a6b6-437f-ab0f-5a01b4fb9085"},{"display":"Carbon Dioxide","reference":"Observation/7f9235e0-f9ab-4f6b-8f5e-e7bd571e67a3"},{"display":"Glomerular filtration rate/1.73 sq M.predicted","reference":"Observation/1dd78186-9666-4f67-b777-20854862e222"},{"display":"Protein [Mass/volume] in Serum or Plasma","reference":"Observation/51ba95bb-7706-4dd1-8db1-ff4f28181748"},{"display":"Albumin [Mass/volume] in Serum or Plasma","reference":"Observation/c68aefac-ada7-42e0-a882-e37bf26beab6"},{"display":"Globulin [Mass/volume] in Serum by calculation","reference":"Observation/cd60de5f-2224-422c-ab26-1509130c0a27"},{"display":"Bilirubin.total [Mass/volume] in Serum or Plasma","reference":"Observation/61e99f76-02d6-4175-9874-01d00f1d8493"},{"display":"Alkaline phosphatase [Enzymatic activity/volume] in Serum or Plasma","reference":"Observation/fb977a60-4a9a-432a-8a2d-94c88608355d"},{"display":"Alanine aminotransferase [Enzymatic activity/volume] in Serum or Plasma","reference":"Observation/0dac2717-c2e0-4a87-8e96-f17616f97968"},{"display":"Aspartate aminotransferase [Enzymatic activity/volume] in Serum or Plasma","reference":"Observation/853dd501-4b14-4af0-abc5-2609e465da27"}],"status":"final","subject":{"reference":"Patient/00ba2d77-4512-45d0-b58c-82ee3161b00e"}}},{"resource":{"code":{"coding":[{"code":"57698-3","display":"Lipid Panel","system":"http://loinc.org"}],"text":"Lipid Panel"},"context":{"reference":"Encounter/f0fba7d8-7c37-4e8f-bb83-b0a88440e054"},"effectiveDateTime":"2013-09-02T08:24:53-04:00","id":"a11e9dda-4570-4ebe-91a6-4132c5e2a66c","issued":"2013-09-02T08:24:53.240-04:00","meta":{"lastUpdated":"2019-04-09T11:38:39.507324+00:00","versionId":"MTU1NDgwOTkxOTUwNzMyNDAwMA"},"resourceType":"DiagnosticReport","result":[{"display":"Total Cholesterol","reference":"Observation/300c7d56-74f8-41d6-b686-67fba166288c"},{"display":"Triglycerides","reference":"Observation/16c46597-4a4b-4dfe-941b-f0abeee774ae"},{"display":"Low Density Lipoprotein Cholesterol","reference":"Observation/48a30430-9f49-46c1-bba5-97728e79ac23"},{"display":"High Density Lipoprotein Cholesterol","reference":"Observation/a43adac9-d813-4be1-889d-5b09e35023b5"}],"status":"final","subject":{"reference":"Patient/00ba2d77-4512-45d0-b58c-82ee3161b00e"}}},{"resource":{"code":{"coding":[{"code":"24323-8","display":"Comprehensive metabolic 2000 panel - Serum or Plasma","system":"http://loinc.org"}],"text":"Comprehensive metabolic 2000 panel - Serum or Plasma"},"context":{"reference":"Encounter/853e4d39-4587-4b1c-b969-4dd2b78aea65"},"effectiveDateTime":"2017-09-01T08:24:53-04:00","id":"a16cc698-3cac-4c11-9c01-b4a46bd98a47","issued":"2017-09-01T08:24:53.240-04:00","meta":{"lastUpdated":"2019-04-09T11:38:45.684661+00:00","versionId":"MTU1NDgwOTkyNTY4NDY2MTAwMA"},"resourceType":"DiagnosticReport","result":[{"display":"Glucose","reference":"Observation/29c57359-4267-49ed-baf5-fff19a2863a1"},{"display":"Urea Nitrogen","reference":"Observation/56e65fb4-4211-4246-8e7f-16ee53d18082"},{"display":"Creatinine","reference":"Observation/f3947677-6746-401f-a750-c123f01da74e"},{"display":"Calcium","reference":"Observation/d20fa781-5936-4be6-bc98-78aebc2c4d3d"},{"display":"Sodium","reference":"Observation/5d16afba-a6d5-4262-babc-453a582c4b9d"},{"display":"Potassium","reference":"Observation/88bb0013-c070-4737-a507-76f7a5773e1a"},{"display":"Chloride","reference":"Observation/f3e15e96-f42a-4bb0-81d0-84ea68b41ee0"},{"display":"Carbon Dioxide","reference":"Observation/dfe208d8-4d93-45e4-869a-ec08de4f1dba"},{"display":"Glomerular filtration rate/1.73 sq M.predicted","reference":"Observation/3c4db8af-2b26-4309-8239-1fb1be5c4cab"},{"display":"Protein [Mass/volume] in Serum or Plasma","reference":"Observation/c8615313-62b5-4d8e-9056-60c09c689f69"},{"display":"Albumin [Mass/volume] in Serum or Plasma","reference":"Observation/759be85e-b623-4ce7-a324-67f4ba0e3273"},{"display":"Globulin [Mass/volume] in Serum by calculation","reference":"Observation/5e178f4a-5b3a-47b2-a4d9-ac0de0d03b48"},{"display":"Bilirubin.total [Mass/volume] in Serum or Plasma","reference":"Observation/f72453d2-7ec4-4e68-a018-fc0620dc95db"},{"display":"Alkaline phosphatase [Enzymatic activity/volume] in Serum or Plasma","reference":"Observation/8c5d9544-c6f4-471f-9b67-3313e587d53f"},{"display":"Alanine aminotransferase [Enzymatic activity/volume] in Serum or Plasma","reference":"Observation/c8388c6f-eca6-43f2-8cdb-580198e04df0"},{"display":"Aspartate aminotransferase [Enzymatic activity/volume] in Serum or Plasma","reference":"Observation/07ed84ae-e681-4f1a-a063-5978e7c0eb88"}],"status":"final","subject":{"reference":"Patient/00ba2d77-4512-45d0-b58c-82ee3161b00e"}}},{"resource":{"code":{"coding":[{"code":"51990-0","display":"Basic Metabolic Panel","system":"http://loinc.org"}],"text":"Basic Metabolic Panel"},"context":{"reference":"Encounter/7d401114-351e-4b6f-a04c-9e9d0104e90a"},"effectiveDateTime":"2009-10-18T08:24:53-04:00","id":"bb408e16-baab-4c9f-95b4-b028a0b96973","issued":"2009-10-18T08:24:53.240-04:00","meta":{"lastUpdated":"2019-04-09T11:38:34.402211+00:00","versionId":"MTU1NDgwOTkxNDQwMjIxMTAwMA"},"resourceType":"DiagnosticReport","result":[{"display":"Glucose","reference":"Observation/8635d18e-5f26-429a-9b94-af367d3fc55b"},{"display":"Urea Nitrogen","reference":"Observation/d7c58096-3ae1-453d-b694-03446828d877"},{"display":"Creatinine","reference":"Observation/39defa3e-6de1-41b7-84a3-fac79f14a2f8"},{"display":"Calcium","reference":"Observation/b9d42fcd-0c94-4cc6-9e83-bb61d90e51bb"},{"display":"Sodium","reference":"Observation/043fa475-cc78-4121-8eb3-23140fb7058c"},{"display":"Potassium","reference":"Observation/4943ae75-ba8b-4f2c-be3f-b8d6a8fbd5f1"},{"display":"Chloride","reference":"Observation/f73dc2c3-645c-4719-a9af-09d873bcda5b"},{"display":"Carbon Dioxide","reference":"Observation/cb0eeace-76d9-4951-9d83-1012f0ce302f"}],"status":"final","subject":{"reference":"Patient/00ba2d77-4512-45d0-b58c-82ee3161b00e"}}},{"resource":{"code":{"coding":[{"code":"24323-8","display":"Comprehensive metabolic 2000 panel - Serum or Plasma","system":"http://loinc.org"}],"text":"Comprehensive metabolic 2000 panel - Serum or Plasma"},"context":{"reference":"Encounter/3111236c-b934-4ba5-8d2b-28d71c7366b9"},"effectiveDateTime":"2015-09-02T08:24:53-04:00","id":"c0c36da3-b58e-4b97-9943-fa78208d02f4","issued":"2015-09-02T08:24:53.240-04:00","meta":{"lastUpdated":"2019-04-09T11:38:42.640879+00:00","versionId":"MTU1NDgwOTkyMjY0MDg3OTAwMA"},"resourceType":"DiagnosticReport","result":[{"display":"Glucose","reference":"Observation/400edc60-815c-48e9-ab4d-af4855e3d868"},{"display":"Urea Nitrogen","reference":"Observation/aa1e442a-c427-48a1-aab3-65a1dc2fd55c"},{"display":"Creatinine","reference":"Observation/fc971fea-86a8-432e-8a65-ed767be66ac7"},{"display":"Calcium","reference":"Observation/5bf9aa5d-22e8-487b-95c9-cd509b87b221"},{"display":"Sodium","reference":"Observation/51be4910-0972-43d8-9dd4-3443b1948a64"},{"display":"Potassium","reference":"Observation/2a1d1dfa-3ef6-4a71-b699-c5df34b7b2d4"},{"display":"Chloride","reference":"Observation/963f9c7e-b669-4fa0-af84-1a41adc1ff0a"},{"display":"Carbon Dioxide","reference":"Observation/cd78bc06-75e3-4aec-b8d8-76046820f7a2"},{"display":"Glomerular filtration rate/1.73 sq M.predicted","reference":"Observation/e445b4ac-eefc-44df-b5b3-24f615ae57a5"},{"display":"Protein [Mass/volume] in Serum or Plasma","reference":"Observation/3a5fc376-f054-422f-b3a4-6aac37fccefc"},{"display":"Albumin [Mass/volume] in Serum or Plasma","reference":"Observation/eb08a145-4c00-4e1a-8b4e-574b1c4498c0"},{"display":"Globulin [Mass/volume] in Serum by calculation","reference":"Observation/f1471d7f-c06b-446f-8015-e9a1229acca7"},{"display":"Bilirubin.total [Mass/volume] in Serum or Plasma","reference":"Observation/025bd33a-11d9-4ce8-81df-b261d76ce5cd"},{"display":"Alkaline phosphatase [Enzymatic activity/volume] in Serum or Plasma","reference":"Observation/aeda51cf-342a-4cb0-98f6-97f7ba6410ac"},{"display":"Alanine aminotransferase [Enzymatic activity/volume] in Serum or Plasma","reference":"Observation/71946c7e-79d5-407f-a84e-46f385433c38"},{"display":"Aspartate aminotransferase [Enzymatic activity/volume] in Serum or Plasma","reference":"Observation/ec306c1e-e4b6-4147-9ad5-c28bcac2d8b6"}],"status":"final","subject":{"reference":"Patient/00ba2d77-4512-45d0-b58c-82ee3161b00e"}}},{"resource":{"code":{"coding":[{"code":"24323-8","display":"Comprehensive metabolic 2000 panel - Serum or Plasma","system":"http://loinc.org"}],"text":"Comprehensive metabolic 2000 panel - Serum or Plasma"},"context":{"reference":"Encounter/662be9d8-a254-4540-b569-716a1b080de8"},"effectiveDateTime":"2009-09-03T08:24:53-04:00","id":"c31603c3-965d-4e77-abb5-ee01fc1ef7f6","issued":"2009-09-03T08:24:53.240-04:00","meta":{"lastUpdated":"2019-04-09T11:38:33.388355+00:00","versionId":"MTU1NDgwOTkxMzM4ODM1NTAwMA"},"resourceType":"DiagnosticReport","result":[{"display":"Glucose","reference":"Observation/34ae8f81-e36a-48d5-b8b4-f1fbe0595541"},{"display":"Urea Nitrogen","reference":"Observation/c4b19b80-db90-4b09-bebb-7948c530ebc9"},{"display":"Creatinine","reference":"Observation/ee394d5c-0efb-4d5a-884d-ad19fc116e15"},{"display":"Calcium","reference":"Observation/1c74ad89-a8d6-4a01-bb3b-7c77a3f6fd12"},{"display":"Sodium","reference":"Observation/03a02a44-85b3-447b-8f0a-c852e636961c"},{"display":"Potassium","reference":"Observation/8ca86225-e2b7-41fb-b80a-633fb3ec14a2"},{"display":"Chloride","reference":"Observation/714b71f1-1e5d-4eed-9ef8-046caea97b64"},{"display":"Carbon Dioxide","reference":"Observation/85531956-fa72-41c2-9290-43e074de44aa"},{"display":"Glomerular filtration rate/1.73 sq M.predicted","reference":"Observation/b5bf2b11-fc6c-42d4-a5cd-e59014615872"},{"display":"Protein [Mass/volume] in Serum or Plasma","reference":"Observation/2f8a2fb7-cd94-4e77-892c-d1da6a62cb55"},{"display":"Albumin [Mass/volume] in Serum or Plasma","reference":"Observation/87f9077e-fdf6-4768-ab63-fd0d12839ceb"},{"display":"Globulin [Mass/volume] in Serum by calculation","reference":"Observation/d4d1467b-9373-4eda-a8be-7873ad314214"},{"display":"Bilirubin.total [Mass/volume] in Serum or Plasma","reference":"Observation/19ec0f01-4fcf-4322-a34e-5d86d6c2d454"},{"display":"Alkaline phosphatase [Enzymatic activity/volume] in Serum or Plasma","reference":"Observation/9ab15fdb-e212-4b2e-ba24-c4e377f7dcac"},{"display":"Alanine aminotransferase [Enzymatic activity/volume] in Serum or Plasma","reference":"Observation/01fd5760-bdc2-45cf-8921-41fcd1a636b2"},{"display":"Aspartate aminotransferase [Enzymatic activity/volume] in Serum or Plasma","reference":"Observation/3cf075f4-77a7-4d9d-a6ff-8c8d95c0a717"}],"status":"final","subject":{"reference":"Patient/00ba2d77-4512-45d0-b58c-82ee3161b00e"}}},{"resource":{"code":{"coding":[{"code":"57698-3","display":"Lipid Panel","system":"http://loinc.org"}],"text":"Lipid Panel"},"context":{"reference":"Encounter/e9be45b5-7c71-4054-ad2e-5ff3cd35550d"},"effectiveDateTime":"2017-12-10T07:24:53-05:00","id":"c643227d-1c6a-49da-bb26-571b78d007ab","issued":"2017-12-10T07:24:53.240-05:00","meta":{"lastUpdated":"2019-04-09T11:38:46.692664+00:00","versionId":"MTU1NDgwOTkyNjY5MjY2NDAwMA"},"resourceType":"DiagnosticReport","result":[{"display":"Total Cholesterol","reference":"Observation/982531cc-d37a-461f-adf5-393fdce801f3"},{"display":"Triglycerides","reference":"Observation/df1a8695-689c-4eb0-9889-b59f8100c182"},{"display":"Low Density Lipoprotein Cholesterol","reference":"Observation/b8e294a7-788f-4a32-ae96-7afb9442ca53"},{"display":"High Density Lipoprotein Cholesterol","reference":"Observation/50d157ac-e4e5-4410-9952-5fa7d76a69fc"}],"status":"final","subject":{"reference":"Patient/00ba2d77-4512-45d0-b58c-82ee3161b00e"}}},{"resource":{"code":{"coding":[{"code":"57698-3","display":"Lipid Panel","system":"http://loinc.org"}],"text":"Lipid Panel"},"context":{"reference":"Encounter/3111236c-b934-4ba5-8d2b-28d71c7366b9"},"effectiveDateTime":"2015-09-02T08:24:53-04:00","id":"ca7283b3-2a0f-4d30-9f66-28e4b3f56a0f","issued":"2015-09-02T08:24:53.240-04:00","meta":{"lastUpdated":"2019-04-09T11:38:42.644345+00:00","versionId":"MTU1NDgwOTkyMjY0NDM0NTAwMA"},"resourceType":"DiagnosticReport","result":[{"display":"Total Cholesterol","reference":"Observation/abfb8550-f818-4b78-ba52-7483b3413d53"},{"display":"Triglycerides","reference":"Observation/59fe345a-0b20-41f9-805a-3bfff71a4628"},{"display":"Low Density Lipoprotein Cholesterol","reference":"Observation/064ac574-28fe-4206-b8a3-06cb08bdc199"},{"display":"High Density Lipoprotein Cholesterol","reference":"Observation/048ea60e-a5d2-40f6-90f9-3cffcb160eaf"}],"status":"final","subject":{"reference":"Patient/00ba2d77-4512-45d0-b58c-82ee3161b00e"}}},{"resource":{"code":{"coding":[{"code":"51990-0","display":"Basic Metabolic Panel","system":"http://loinc.org"}],"text":"Basic Metabolic Panel"},"context":{"reference":"Encounter/83ef2b65-0b42-4872-a505-6b2f9e463831"},"effectiveDateTime":"2016-12-04T07:24:53-05:00","id":"dbed41db-f60c-45e1-9281-bb357dd317c3","issued":"2016-12-04T07:24:53.240-05:00","meta":{"lastUpdated":"2019-04-09T11:38:45.688709+00:00","versionId":"MTU1NDgwOTkyNTY4ODcwOTAwMA"},"resourceType":"DiagnosticReport","result":[{"display":"Glucose","reference":"Observation/b69e29a5-3066-49fe-bd8f-e505ecaf36a9"},{"display":"Urea Nitrogen","reference":"Observation/63fc9001-1ba0-427c-8cf3-09b8d795bfaf"},{"display":"Creatinine","reference":"Observation/f6eb224a-8448-4eca-8799-59f0e4e7706f"},{"display":"Calcium","reference":"Observation/d7c4aea0-8b0e-4180-aaed-668c37b6566d"},{"display":"Sodium","reference":"Observation/269ee3ab-3f0d-4a31-a22f-8a1eba7449bc"},{"display":"Potassium","reference":"Observation/e9671438-873e-4f60-ae97-d699ba5ba8f6"},{"display":"Chloride","reference":"Observation/7d104fa2-0c97-4a9e-81bd-7f3c0285dc48"},{"display":"Carbon Dioxide","reference":"Observation/1572e508-5ee3-4a3d-a8a4-2b4417882862"}],"status":"final","subject":{"reference":"Patient/00ba2d77-4512-45d0-b58c-82ee3161b00e"}}},{"resource":{"code":{"coding":[{"code":"51990-0","display":"Basic Metabolic Panel","system":"http://loinc.org"}],"text":"Basic Metabolic Panel"},"context":{"reference":"Encounter/4676d33b-5ac6-499e-97bf-3ac76b65e626"},"effectiveDateTime":"2012-11-04T07:24:53-05:00","id":"deb712df-4811-4ec5-9c13-06f17b9114d6","issued":"2012-11-04T07:24:53.240-05:00","meta":{"lastUpdated":"2019-04-09T11:38:38.478908+00:00","versionId":"MTU1NDgwOTkxODQ3ODkwODAwMA"},"resourceType":"DiagnosticReport","result":[{"display":"Glucose","reference":"Observation/448334b8-f384-4e91-a258-842ee7df5c29"},{"display":"Urea Nitrogen","reference":"Observation/8d277a9b-bfd0-4174-9249-0954492c8cca"},{"display":"Creatinine","reference":"Observation/99c8a68c-1a38-46f2-b058-244edb2830e1"},{"display":"Calcium","reference":"Observation/b269552d-a5bc-4bd4-b7e9-303465df439e"},{"display":"Sodium","reference":"Observation/5a443ee2-9133-4669-aaf6-35275938b5d0"},{"display":"Potassium","reference":"Observation/d216af8e-9be1-4f22-8dfd-1bc0bee5966d"},{"display":"Chloride","reference":"Observation/190cf5d9-52ab-4dc7-b947-165eba0fbc28"},{"display":"Carbon Dioxide","reference":"Observation/751f8d5c-51d3-49a9-9b4a-b4de6527039c"}],"status":"final","subject":{"reference":"Patient/00ba2d77-4512-45d0-b58c-82ee3161b00e"}}},{"resource":{"code":{"coding":[{"code":"57698-3","display":"Lipid Panel","system":"http://loinc.org"}],"text":"Lipid Panel"},"context":{"reference":"Encounter/4e75ac48-3637-4a18-ac38-586107dde84a"},"effectiveDateTime":"2012-09-02T08:24:53-04:00","id":"f8bea874-59bd-4f49-8e9a-8b75dd93900d","issued":"2012-09-02T08:24:53.240-04:00","meta":{"lastUpdated":"2019-04-09T11:38:37.439229+00:00","versionId":"MTU1NDgwOTkxNzQzOTIyOTAwMA"},"resourceType":"DiagnosticReport","result":[{"display":"Total Cholesterol","reference":"Observation/a28b49be-5edf-4ea1-941b-8d4ceb2fcca6"},{"display":"Triglycerides","reference":"Observation/d34ae39c-1666-447e-b471-11f6bbd13e36"},{"display":"Low Density Lipoprotein Cholesterol","reference":"Observation/e51db433-2d24-4d35-9cea-0bbe357968ed"},{"display":"High Density Lipoprotein Cholesterol","reference":"Observation/b6a4bc53-dd22-4e74-9122-f8e72398b85e"}],"status":"final","subject":{"reference":"Patient/00ba2d77-4512-45d0-b58c-82ee3161b00e"}}},{"resource":{"class":{"code":"ambulatory"},"id":"0d8293b5-2dc9-4bb5-8a48-5cd12fd5fba7","meta":{"lastUpdated":"2019-04-09T11:38:31.318597+00:00","versionId":"MTU1NDgwOTkxMTMxODU5NzAwMA"},"participant":[{"individual":{"reference":"Practitioner/ebd27f21-bb93-4416-bdf8-84490ae394cc"}}],"period":{"end":"2002-09-05T08:39:53-04:00","start":"2002-09-05T08:24:53-04:00"},"reason":[{"coding":[{"code":"55822004","display":"Hyperlipidemia","system":"http://snomed.info/sct"}]}],"resourceType":"Encounter","serviceProvider":{"reference":"Organization/915f9f66-75d8-46c2-8da4-04b35046240b"},"status":"finished","subject":{"reference":"Patient/00ba2d77-4512-45d0-b58c-82ee3161b00e"},"type":[{"coding":[{"code":"390906007","display":"Follow-up encounter","system":"http://snomed.info/sct"}],"text":"Follow-up encounter"}]}},{"resource":{"class":{"code":"ambulatory"},"id":"1055070f-8142-4ff9-98f2-7648c286f1b3","meta":{"lastUpdated":"2019-04-09T11:38:31.319796+00:00","versionId":"MTU1NDgwOTkxMTMxOTc5NjAwMA"},"participant":[{"individual":{"reference":"Practitioner/ebd27f21-bb93-4416-bdf8-84490ae394cc"}}],"period":{"end":"2001-12-16T07:54:53-05:00","start":"2001-12-16T07:24:53-05:00"},"reason":[{"coding":[{"code":"363406005","display":"Malignant tumor of colon","system":"http://snomed.info/sct"}]}],"resourceType":"Encounter","serviceProvider":{"reference":"Organization/915f9f66-75d8-46c2-8da4-04b35046240b"},"status":"finished","subject":{"reference":"Patient/00ba2d77-4512-45d0-b58c-82ee3161b00e"},"type":[{"coding":[{"code":"185347001","display":"Encounter for problem","system":"http://snomed.info/sct"}],"text":"Encounter for problem"}]}},{"resource":{"class":{"code":"ambulatory"},"id":"17392ac7-c63c-4c1b-9fa1-d0284c0872d8","meta":{"lastUpdated":"2019-04-09T11:38:32.338094+00:00","versionId":"MTU1NDgwOTkxMjMzODA5NDAwMA"},"participant":[{"individual":{"reference":"Practitioner/ebd27f21-bb93-4416-bdf8-84490ae394cc"}}],"period":{"end":"2008-09-03T08:39:53-04:00","start":"2008-09-03T08:24:53-04:00"},"reason":[{"coding":[{"code":"55822004","display":"Hyperlipidemia","system":"http://snomed.info/sct"}]}],"resourceType":"Encounter","serviceProvider":{"reference":"Organization/915f9f66-75d8-46c2-8da4-04b35046240b"},"status":"finished","subject":{"reference":"Patient/00ba2d77-4512-45d0-b58c-82ee3161b00e"},"type":[{"coding":[{"code":"390906007","display":"Follow-up encounter","system":"http://snomed.info/sct"}],"text":"Follow-up encounter"}]}},{"resource":{"class":{"code":"ambulatory"},"id":"1b62ca3d-9cfc-4d94-842c-52d8fe6d9120","meta":{"lastUpdated":"2019-04-09T11:38:31.314175+00:00","versionId":"MTU1NDgwOTkxMTMxNDE3NTAwMA"},"participant":[{"individual":{"reference":"Practitioner/ebd27f21-bb93-4416-bdf8-84490ae394cc"}}],"period":{"end":"2003-09-05T08:39:53-04:00","start":"2003-09-05T08:24:53-04:00"},"reason":[{"coding":[{"code":"55822004","display":"Hyperlipidemia","system":"http://snomed.info/sct"}]}],"resourceType":"Encounter","serviceProvider":{"reference":"Organization/915f9f66-75d8-46c2-8da4-04b35046240b"},"status":"finished","subject":{"reference":"Patient/00ba2d77-4512-45d0-b58c-82ee3161b00e"},"type":[{"coding":[{"code":"390906007","display":"Follow-up encounter","system":"http://snomed.info/sct"}],"text":"Follow-up encounter"}]}},{"resource":{"class":{"code":"ambulatory"},"id":"1c0d93ba-ec42-4b5c-a069-272d8275bb76","meta":{"lastUpdated":"2019-04-09T11:38:30.286463+00:00","versionId":"MTU1NDgwOTkxMDI4NjQ2MzAwMA"},"participant":[{"individual":{"reference":"Practitioner/ebd27f21-bb93-4416-bdf8-84490ae394cc"}}],"period":{"end":"1995-09-07T08:39:53-04:00","start":"1995-09-07T08:24:53-04:00"},"reason":[{"coding":[{"code":"55822004","display":"Hyperlipidemia","system":"http://snomed.info/sct"}]}],"resourceType":"Encounter","serviceProvider":{"reference":"Organization/915f9f66-75d8-46c2-8da4-04b35046240b"},"status":"finished","subject":{"reference":"Patient/00ba2d77-4512-45d0-b58c-82ee3161b00e"},"type":[{"coding":[{"code":"390906007","display":"Follow-up encounter","system":"http://snomed.info/sct"}],"text":"Follow-up encounter"}]}},{"resource":{"class":{"code":"WELLNESS"},"id":"2a7e0665-ae76-4a43-949d-9e68f5a92f8c","meta":{"lastUpdated":"2019-04-09T11:38:43.637966+00:00","versionId":"MTU1NDgwOTkyMzYzNzk2NjAwMA"},"participant":[{"individual":{"reference":"Practitioner/ebd27f21-bb93-4416-bdf8-84490ae394cc"}}],"period":{"end":"2015-11-29T07:39:53-05:00","start":"2015-11-29T07:24:53-05:00"},"resourceType":"Encounter","serviceProvider":{"reference":"Organization/915f9f66-75d8-46c2-8da4-04b35046240b"},"status":"finished","subject":{"reference":"Patient/00ba2d77-4512-45d0-b58c-82ee3161b00e"},"type":[{"coding":[{"code":"185349003","display":"Encounter for check up (procedure)","system":"http://snomed.info/sct"}],"text":"Encounter for check up (procedure)"}]}},{"resource":{"class":{"code":"WELLNESS"},"id":"2ea00974-2610-4ee8-807b-5ac1bf555c36","meta":{"lastUpdated":"2019-04-09T11:38:29.199090+00:00","versionId":"MTU1NDgwOTkwOTE5OTA5MDAwMA"},"participant":[{"individual":{"reference":"Practitioner/ebd27f21-bb93-4416-bdf8-84490ae394cc"}}],"period":{"end":"1963-06-09T08:54:53-04:00","start":"1963-06-09T08:24:53-04:00"},"resourceType":"Encounter","serviceProvider":{"reference":"Organization/915f9f66-75d8-46c2-8da4-04b35046240b"},"status":"finished","subject":{"reference":"Patient/00ba2d77-4512-45d0-b58c-82ee3161b00e"},"type":[{"coding":[{"code":"185349003","display":"Encounter for check up (procedure)","system":"http://snomed.info/sct"}],"text":"Encounter for check up (procedure)"}]}},{"resource":{"class":{"code":"ambulatory"},"id":"3111236c-b934-4ba5-8d2b-28d71c7366b9","meta":{"lastUpdated":"2019-04-09T11:38:41.590335+00:00","versionId":"MTU1NDgwOTkyMTU5MDMzNTAwMA"},"participant":[{"individual":{"reference":"Practitioner/ebd27f21-bb93-4416-bdf8-84490ae394cc"}}],"period":{"end":"2015-09-02T08:39:53-04:00","start":"2015-09-02T08:24:53-04:00"},"reason":[{"coding":[{"code":"55822004","display":"Hyperlipidemia","system":"http://snomed.info/sct"}]}],"resourceType":"Encounter","serviceProvider":{"reference":"Organization/915f9f66-75d8-46c2-8da4-04b35046240b"},"status":"finished","subject":{"reference":"Patient/00ba2d77-4512-45d0-b58c-82ee3161b00e"},"type":[{"coding":[{"code":"390906007","display":"Follow-up encounter","system":"http://snomed.info/sct"}],"text":"Follow-up encounter"}]}},{"resource":{"class":{"code":"ambulatory"},"id":"31c42b56-87cd-4277-bfb9-062cd02a07d9","meta":{"lastUpdated":"2019-04-09T11:38:30.282640+00:00","versionId":"MTU1NDgwOTkxMDI4MjY0MDAwMA"},"participant":[{"individual":{"reference":"Practitioner/ebd27f21-bb93-4416-bdf8-84490ae394cc"}}],"period":{"end":"2000-09-05T08:39:53-04:00","start":"2000-09-05T08:24:53-04:00"},"reason":[{"coding":[{"code":"55822004","display":"Hyperlipidemia","system":"http://snomed.info/sct"}]}],"resourceType":"Encounter","serviceProvider":{"reference":"Organization/915f9f66-75d8-46c2-8da4-04b35046240b"},"status":"finished","subject":{"reference":"Patient/00ba2d77-4512-45d0-b58c-82ee3161b00e"},"type":[{"coding":[{"code":"390906007","display":"Follow-up encounter","system":"http://snomed.info/sct"}],"text":"Follow-up encounter"}]}},{"resource":{"class":{"code":"ambulatory"},"id":"3382e9bd-114c-4154-a68a-6798b73f49de","meta":{"lastUpdated":"2019-04-09T11:38:29.195637+00:00","versionId":"MTU1NDgwOTkwOTE5NTYzNzAwMA"},"participant":[{"individual":{"reference":"Practitioner/ebd27f21-bb93-4416-bdf8-84490ae394cc"}}],"period":{"end":"1990-09-08T08:39:53-04:00","start":"1990-09-08T08:24:53-04:00"},"reason":[{"coding":[{"code":"55822004","display":"Hyperlipidemia","system":"http://snomed.info/sct"}]}],"resourceType":"Encounter","serviceProvider":{"reference":"Organization/915f9f66-75d8-46c2-8da4-04b35046240b"},"status":"finished","subject":{"reference":"Patient/00ba2d77-4512-45d0-b58c-82ee3161b00e"},"type":[{"coding":[{"code":"390906007","display":"Follow-up encounter","system":"http://snomed.info/sct"}],"text":"Follow-up encounter"}]}},{"resource":{"class":{"code":"ambulatory"},"id":"4606b094-c6ca-45ce-a3a8-e15ff62099ef","meta":{"lastUpdated":"2019-04-09T11:38:30.297399+00:00","versionId":"MTU1NDgwOTkxMDI5NzM5OTAwMA"},"participant":[{"individual":{"reference":"Practitioner/ebd27f21-bb93-4416-bdf8-84490ae394cc"}}],"period":{"end":"1997-09-06T08:39:53-04:00","start":"1997-09-06T08:24:53-04:00"},"reason":[{"coding":[{"code":"55822004","display":"Hyperlipidemia","system":"http://snomed.info/sct"}]}],"resourceType":"Encounter","serviceProvider":{"reference":"Organization/915f9f66-75d8-46c2-8da4-04b35046240b"},"status":"finished","subject":{"reference":"Patient/00ba2d77-4512-45d0-b58c-82ee3161b00e"},"type":[{"coding":[{"code":"390906007","display":"Follow-up encounter","system":"http://snomed.info/sct"}],"text":"Follow-up encounter"}]}},{"resource":{"class":{"code":"WELLNESS"},"id":"4676d33b-5ac6-499e-97bf-3ac76b65e626","meta":{"lastUpdated":"2019-04-09T11:38:37.444584+00:00","versionId":"MTU1NDgwOTkxNzQ0NDU4NDAwMA"},"participant":[{"individual":{"reference":"Practitioner/ebd27f21-bb93-4416-bdf8-84490ae394cc"}}],"period":{"end":"2012-11-04T07:39:53-05:00","start":"2012-11-04T07:24:53-05:00"},"resourceType":"Encounter","serviceProvider":{"reference":"Organization/915f9f66-75d8-46c2-8da4-04b35046240b"},"status":"finished","subject":{"reference":"Patient/00ba2d77-4512-45d0-b58c-82ee3161b00e"},"type":[{"coding":[{"code":"185349003","display":"Encounter for check up (procedure)","system":"http://snomed.info/sct"}],"text":"Encounter for check up (procedure)"}]}},{"resource":{"class":{"code":"emergency"},"id":"49733f21-b3ab-4560-abc5-ec3ae9e2c39c","meta":{"lastUpdated":"2019-04-09T11:38:38.472489+00:00","versionId":"MTU1NDgwOTkxODQ3MjQ4OTAwMA"},"participant":[{"individual":{"reference":"Practitioner/ebd27f21-bb93-4416-bdf8-84490ae394cc"}}],"period":{"end":"2013-08-02T11:09:53-04:00","start":"2013-08-02T08:24:53-04:00"},"resourceType":"Encounter","serviceProvider":{"reference":"Organization/915f9f66-75d8-46c2-8da4-04b35046240b"},"status":"finished","subject":{"reference":"Patient/00ba2d77-4512-45d0-b58c-82ee3161b00e"},"type":[{"coding":[{"code":"50849002","display":"Emergency room admission (procedure)","system":"http://snomed.info/sct"}],"text":"Emergency room admission (procedure)"}]}},{"resource":{"class":{"code":"ambulatory"},"id":"4b680064-17f9-4e21-8bf5-d7c1e3d48da7","meta":{"lastUpdated":"2019-04-09T11:38:32.333837+00:00","versionId":"MTU1NDgwOTkxMjMzMzgzNzAwMA"},"participant":[{"individual":{"reference":"Practitioner/ebd27f21-bb93-4416-bdf8-84490ae394cc"}}],"period":{"end":"2005-09-04T08:39:53-04:00","start":"2005-09-04T08:24:53-04:00"},"reason":[{"coding":[{"code":"55822004","display":"Hyperlipidemia","system":"http://snomed.info/sct"}]}],"resourceType":"Encounter","serviceProvider":{"reference":"Organization/915f9f66-75d8-46c2-8da4-04b35046240b"},"status":"finished","subject":{"reference":"Patient/00ba2d77-4512-45d0-b58c-82ee3161b00e"},"type":[{"coding":[{"code":"390906007","display":"Follow-up encounter","system":"http://snomed.info/sct"}],"text":"Follow-up encounter"}]}},{"resource":{"class":{"code":"ambulatory"},"id":"4e75ac48-3637-4a18-ac38-586107dde84a","meta":{"lastUpdated":"2019-04-09T11:38:36.425833+00:00","versionId":"MTU1NDgwOTkxNjQyNTgzMzAwMA"},"participant":[{"individual":{"reference":"Practitioner/ebd27f21-bb93-4416-bdf8-84490ae394cc"}}],"period":{"end":"2012-09-02T08:39:53-04:00","start":"2012-09-02T08:24:53-04:00"},"reason":[{"coding":[{"code":"55822004","display":"Hyperlipidemia","system":"http://snomed.info/sct"}]}],"resourceType":"Encounter","serviceProvider":{"reference":"Organization/915f9f66-75d8-46c2-8da4-04b35046240b"},"status":"finished","subject":{"reference":"Patient/00ba2d77-4512-45d0-b58c-82ee3161b00e"},"type":[{"coding":[{"code":"390906007","display":"Follow-up encounter","system":"http://snomed.info/sct"}],"text":"Follow-up encounter"}]}},{"resource":{"class":{"code":"WELLNESS"},"id":"62615645-67d2-4d99-aa3c-9c8af4e1f21d","meta":{"lastUpdated":"2019-04-09T11:38:41.604604+00:00","versionId":"MTU1NDgwOTkyMTYwNDYwNDAwMA"},"participant":[{"individual":{"reference":"Practitioner/ebd27f21-bb93-4416-bdf8-84490ae394cc"}}],"period":{"end":"2014-11-16T07:54:53-05:00","start":"2014-11-16T07:24:53-05:00"},"resourceType":"Encounter","serviceProvider":{"reference":"Organization/915f9f66-75d8-46c2-8da4-04b35046240b"},"status":"finished","subject":{"reference":"Patient/00ba2d77-4512-45d0-b58c-82ee3161b00e"},"type":[{"coding":[{"code":"185349003","display":"Encounter for check up (procedure)","system":"http://snomed.info/sct"}],"text":"Encounter for check up (procedure)"}]}},{"resource":{"class":{"code":"ambulatory"},"id":"662be9d8-a254-4540-b569-716a1b080de8","meta":{"lastUpdated":"2019-04-09T11:38:33.393802+00:00","versionId":"MTU1NDgwOTkxMzM5MzgwMjAwMA"},"participant":[{"individual":{"reference":"Practitioner/ebd27f21-bb93-4416-bdf8-84490ae394cc"}}],"period":{"end":"2009-09-03T08:39:53-04:00","start":"2009-09-03T08:24:53-04:00"},"reason":[{"coding":[{"code":"55822004","display":"Hyperlipidemia","system":"http://snomed.info/sct"}]}],"resourceType":"Encounter","serviceProvider":{"reference":"Organization/915f9f66-75d8-46c2-8da4-04b35046240b"},"status":"finished","subject":{"reference":"Patient/00ba2d77-4512-45d0-b58c-82ee3161b00e"},"type":[{"coding":[{"code":"390906007","display":"Follow-up encounter","system":"http://snomed.info/sct"}],"text":"Follow-up encounter"}]}},{"resource":{"class":{"code":"ambulatory"},"id":"6bee969a-01fa-4189-b715-b5e4ae43bf49","meta":{"lastUpdated":"2019-04-09T11:38:32.349320+00:00","versionId":"MTU1NDgwOTkxMjM0OTMyMDAwMA"},"participant":[{"individual":{"reference":"Practitioner/ebd27f21-bb93-4416-bdf8-84490ae394cc"}}],"period":{"end":"2006-09-04T08:39:53-04:00","start":"2006-09-04T08:24:53-04:00"},"reason":[{"coding":[{"code":"55822004","display":"Hyperlipidemia","system":"http://snomed.info/sct"}]}],"resourceType":"Encounter","serviceProvider":{"reference":"Organization/915f9f66-75d8-46c2-8da4-04b35046240b"},"status":"finished","subject":{"reference":"Patient/00ba2d77-4512-45d0-b58c-82ee3161b00e"},"type":[{"coding":[{"code":"390906007","display":"Follow-up encounter","system":"http://snomed.info/sct"}],"text":"Follow-up encounter"}]}},{"resource":{"class":{"code":"ambulatory"},"id":"6d1d5a52-3b03-4978-a3ec-1238c93b0c73","meta":{"lastUpdated":"2019-04-09T11:38:31.317018+00:00","versionId":"MTU1NDgwOTkxMTMxNzAxODAwMA"},"participant":[{"individual":{"reference":"Practitioner/ebd27f21-bb93-4416-bdf8-84490ae394cc"}}],"period":{"end":"2001-11-21T08:23:53-05:00","start":"2001-11-21T07:24:53-05:00"},"resourceType":"Encounter","serviceProvider":{"reference":"Organization/915f9f66-75d8-46c2-8da4-04b35046240b"},"status":"finished","subject":{"reference":"Patient/00ba2d77-4512-45d0-b58c-82ee3161b00e"},"type":[{"coding":[{"code":"185349003","display":"Encounter for 'check-up'","system":"http://snomed.info/sct"}],"text":"Encounter for 'check-up'"}]}},{"resource":{"class":{"code":"WELLNESS"},"id":"78c0926a-2466-4c84-aee0-4e649adb2479","meta":{"lastUpdated":"2019-04-09T11:38:39.488551+00:00","versionId":"MTU1NDgwOTkxOTQ4ODU1MTAwMA"},"participant":[{"individual":{"reference":"Practitioner/ebd27f21-bb93-4416-bdf8-84490ae394cc"}}],"period":{"end":"2013-11-10T07:54:53-05:00","start":"2013-11-10T07:24:53-05:00"},"resourceType":"Encounter","serviceProvider":{"reference":"Organization/915f9f66-75d8-46c2-8da4-04b35046240b"},"status":"finished","subject":{"reference":"Patient/00ba2d77-4512-45d0-b58c-82ee3161b00e"},"type":[{"coding":[{"code":"185349003","display":"Encounter for check up (procedure)","system":"http://snomed.info/sct"}],"text":"Encounter for check up (procedure)"}]}},{"resource":{"class":{"code":"WELLNESS"},"id":"7d401114-351e-4b6f-a04c-9e9d0104e90a","meta":{"lastUpdated":"2019-04-09T11:38:33.393801+00:00","versionId":"MTU1NDgwOTkxMzM5MzgwMTAwMA"},"participant":[{"individual":{"reference":"Practitioner/ebd27f21-bb93-4416-bdf8-84490ae394cc"}}],"period":{"end":"2009-10-18T08:54:53-04:00","start":"2009-10-18T08:24:53-04:00"},"resourceType":"Encounter","serviceProvider":{"reference":"Organization/915f9f66-75d8-46c2-8da4-04b35046240b"},"status":"finished","subject":{"reference":"Patient/00ba2d77-4512-45d0-b58c-82ee3161b00e"},"type":[{"coding":[{"code":"185349003","display":"Encounter for check up (procedure)","system":"http://snomed.info/sct"}],"text":"Encounter for check up (procedure)"}]}},{"resource":{"class":{"code":"ambulatory"},"id":"7f844d5f-ab1e-4d15-9d4d-37439a2ece2b","meta":{"lastUpdated":"2019-04-09T11:38:30.282638+00:00","versionId":"MTU1NDgwOTkxMDI4MjYzODAwMA"},"participant":[{"individual":{"reference":"Practitioner/ebd27f21-bb93-4416-bdf8-84490ae394cc"}}],"period":{"end":"1993-09-07T08:39:53-04:00","start":"1993-09-07T08:24:53-04:00"},"reason":[{"coding":[{"code":"55822004","display":"Hyperlipidemia","system":"http://snomed.info/sct"}]}],"resourceType":"Encounter","serviceProvider":{"reference":"Organization/915f9f66-75d8-46c2-8da4-04b35046240b"},"status":"finished","subject":{"reference":"Patient/00ba2d77-4512-45d0-b58c-82ee3161b00e"},"type":[{"coding":[{"code":"390906007","display":"Follow-up encounter","system":"http://snomed.info/sct"}],"text":"Follow-up encounter"}]}},{"resource":{"class":{"code":"ambulatory"},"id":"824ce325-e5ab-443f-9ce8-4c014da6fe36","meta":{"lastUpdated":"2019-04-09T11:38:35.405218+00:00","versionId":"MTU1NDgwOTkxNTQwNTIxODAwMA"},"participant":[{"individual":{"reference":"Practitioner/ebd27f21-bb93-4416-bdf8-84490ae394cc"}}],"period":{"end":"2011-09-03T08:39:53-04:00","start":"2011-09-03T08:24:53-04:00"},"reason":[{"coding":[{"code":"55822004","display":"Hyperlipidemia","system":"http://snomed.info/sct"}]}],"resourceType":"Encounter","serviceProvider":{"reference":"Organization/915f9f66-75d8-46c2-8da4-04b35046240b"},"status":"finished","subject":{"reference":"Patient/00ba2d77-4512-45d0-b58c-82ee3161b00e"},"type":[{"coding":[{"code":"390906007","display":"Follow-up encounter","system":"http://snomed.info/sct"}],"text":"Follow-up encounter"}]}},{"resource":{"class":{"code":"WELLNESS"},"id":"83ef2b65-0b42-4872-a505-6b2f9e463831","meta":{"lastUpdated":"2019-04-09T11:38:44.653174+00:00","versionId":"MTU1NDgwOTkyNDY1MzE3NDAwMA"},"participant":[{"individual":{"reference":"Practitioner/ebd27f21-bb93-4416-bdf8-84490ae394cc"}}],"period":{"end":"2016-12-04T07:54:53-05:00","start":"2016-12-04T07:24:53-05:00"},"resourceType":"Encounter","serviceProvider":{"reference":"Organization/915f9f66-75d8-46c2-8da4-04b35046240b"},"status":"finished","subject":{"reference":"Patient/00ba2d77-4512-45d0-b58c-82ee3161b00e"},"type":[{"coding":[{"code":"185349003","display":"Encounter for check up (procedure)","system":"http://snomed.info/sct"}],"text":"Encounter for check up (procedure)"}]}},{"resource":{"class":{"code":"ambulatory"},"id":"84c1d4a3-ee6b-4b09-bf77-6841e8c8e908","meta":{"lastUpdated":"2019-04-09T11:38:34.393667+00:00","versionId":"MTU1NDgwOTkxNDM5MzY2NzAwMA"},"participant":[{"individual":{"reference":"Practitioner/ebd27f21-bb93-4416-bdf8-84490ae394cc"}}],"period":{"end":"2010-09-03T08:39:53-04:00","start":"2010-09-03T08:24:53-04:00"},"reason":[{"coding":[{"code":"55822004","display":"Hyperlipidemia","system":"http://snomed.info/sct"}]}],"resourceType":"Encounter","serviceProvider":{"reference":"Organization/915f9f66-75d8-46c2-8da4-04b35046240b"},"status":"finished","subject":{"reference":"Patient/00ba2d77-4512-45d0-b58c-82ee3161b00e"},"type":[{"coding":[{"code":"390906007","display":"Follow-up encounter","system":"http://snomed.info/sct"}],"text":"Follow-up encounter"}]}},{"resource":{"class":{"code":"ambulatory"},"id":"853e4d39-4587-4b1c-b969-4dd2b78aea65","meta":{"lastUpdated":"2019-04-09T11:38:45.668452+00:00","versionId":"MTU1NDgwOTkyNTY2ODQ1MjAwMA"},"participant":[{"individual":{"reference":"Practitioner/ebd27f21-bb93-4416-bdf8-84490ae394cc"}}],"period":{"end":"2017-09-01T08:39:53-04:00","start":"2017-09-01T08:24:53-04:00"},"reason":[{"coding":[{"code":"55822004","display":"Hyperlipidemia","system":"http://snomed.info/sct"}]}],"resourceType":"Encounter","serviceProvider":{"reference":"Organization/915f9f66-75d8-46c2-8da4-04b35046240b"},"status":"finished","subject":{"reference":"Patient/00ba2d77-4512-45d0-b58c-82ee3161b00e"},"type":[{"coding":[{"code":"390906007","display":"Follow-up encounter","system":"http://snomed.info/sct"}],"text":"Follow-up encounter"}]}},{"resource":{"class":{"code":"WELLNESS"},"id":"94408aae-49da-47a9-924c-c478d16c998b","meta":{"lastUpdated":"2019-04-09T11:38:42.640180+00:00","versionId":"MTU1NDgwOTkyMjY0MDE4MDAwMA"},"participant":[{"individual":{"reference":"Practitioner/ebd27f21-bb93-4416-bdf8-84490ae394cc"}}],"period":{"end":"2015-11-22T07:54:53-05:00","start":"2015-11-22T07:24:53-05:00"},"resourceType":"Encounter","serviceProvider":{"reference":"Organization/915f9f66-75d8-46c2-8da4-04b35046240b"},"status":"finished","subject":{"reference":"Patient/00ba2d77-4512-45d0-b58c-82ee3161b00e"},"type":[{"coding":[{"code":"185349003","display":"Encounter for check up (procedure)","system":"http://snomed.info/sct"}],"text":"Encounter for check up (procedure)"}]}},{"resource":{"class":{"code":"WELLNESS"},"id":"a8b3eba2-ea8a-44c5-a4f0-6e331a500bd3","meta":{"lastUpdated":"2019-04-09T11:38:29.187863+00:00","versionId":"MTU1NDgwOTkwOTE4Nzg2MzAwMA"},"participant":[{"individual":{"reference":"Practitioner/ebd27f21-bb93-4416-bdf8-84490ae394cc"}}],"period":{"end":"1990-08-19T08:54:53-04:00","start":"1990-08-19T08:24:53-04:00"},"resourceType":"Encounter","serviceProvider":{"reference":"Organization/915f9f66-75d8-46c2-8da4-04b35046240b"},"status":"finished","subject":{"reference":"Patient/00ba2d77-4512-45d0-b58c-82ee3161b00e"},"type":[{"coding":[{"code":"185349003","display":"Encounter for check up (procedure)","system":"http://snomed.info/sct"}],"text":"Encounter for check up (procedure)"}]}},{"resource":{"class":{"code":"ambulatory"},"id":"ac2406d8-4839-467c-aa1b-871839a68d21","meta":{"lastUpdated":"2019-04-09T11:38:30.287561+00:00","versionId":"MTU1NDgwOTkxMDI4NzU2MTAwMA"},"participant":[{"individual":{"reference":"Practitioner/ebd27f21-bb93-4416-bdf8-84490ae394cc"}}],"period":{"end":"2000-08-28T09:34:53-04:00","start":"2000-08-28T08:24:53-04:00"},"resourceType":"Encounter","serviceProvider":{"reference":"Organization/915f9f66-75d8-46c2-8da4-04b35046240b"},"status":"finished","subject":{"reference":"Patient/00ba2d77-4512-45d0-b58c-82ee3161b00e"},"type":[{"coding":[{"code":"185349003","display":"Encounter for 'check-up'","system":"http://snomed.info/sct"}],"text":"Encounter for 'check-up'"}]}},{"resource":{"class":{"code":"ambulatory"},"id":"b15a50b3-182e-45b6-b622-37c4eb8b60f8","meta":{"lastUpdated":"2019-04-09T11:38:31.318596+00:00","versionId":"MTU1NDgwOTkxMTMxODU5NjAwMA"},"participant":[{"individual":{"reference":"Practitioner/ebd27f21-bb93-4416-bdf8-84490ae394cc"}}],"period":{"end":"2001-09-05T08:39:53-04:00","start":"2001-09-05T08:24:53-04:00"},"reason":[{"coding":[{"code":"55822004","display":"Hyperlipidemia","system":"http://snomed.info/sct"}]}],"resourceType":"Encounter","serviceProvider":{"reference":"Organization/915f9f66-75d8-46c2-8da4-04b35046240b"},"status":"finished","subject":{"reference":"Patient/00ba2d77-4512-45d0-b58c-82ee3161b00e"},"type":[{"coding":[{"code":"390906007","display":"Follow-up encounter","system":"http://snomed.info/sct"}],"text":"Follow-up encounter"}]}},{"resource":{"class":{"code":"ambulatory"},"id":"b5cada8a-f282-40db-a8e9-71c5dd3a33f7","meta":{"lastUpdated":"2019-04-09T11:38:44.653175+00:00","versionId":"MTU1NDgwOTkyNDY1MzE3NTAwMA"},"participant":[{"individual":{"reference":"Practitioner/ebd27f21-bb93-4416-bdf8-84490ae394cc"}}],"period":{"end":"2016-09-01T08:39:53-04:00","start":"2016-09-01T08:24:53-04:00"},"reason":[{"coding":[{"code":"55822004","display":"Hyperlipidemia","system":"http://snomed.info/sct"}]}],"resourceType":"Encounter","serviceProvider":{"reference":"Organization/915f9f66-75d8-46c2-8da4-04b35046240b"},"status":"finished","subject":{"reference":"Patient/00ba2d77-4512-45d0-b58c-82ee3161b00e"},"type":[{"coding":[{"code":"390906007","display":"Follow-up encounter","system":"http://snomed.info/sct"}],"text":"Follow-up encounter"}]}},{"resource":{"class":{"code":"ambulatory"},"id":"bc40cf21-3ed7-4df0-bf5f-41baa83fbf46","meta":{"lastUpdated":"2019-04-09T11:38:30.288531+00:00","versionId":"MTU1NDgwOTkxMDI4ODUzMTAwMA"},"participant":[{"individual":{"reference":"Practitioner/ebd27f21-bb93-4416-bdf8-84490ae394cc"}}],"period":{"end":"1996-09-06T08:39:53-04:00","start":"1996-09-06T08:24:53-04:00"},"reason":[{"coding":[{"code":"55822004","display":"Hyperlipidemia","system":"http://snomed.info/sct"}]}],"resourceType":"Encounter","serviceProvider":{"reference":"Organization/915f9f66-75d8-46c2-8da4-04b35046240b"},"status":"finished","subject":{"reference":"Patient/00ba2d77-4512-45d0-b58c-82ee3161b00e"},"type":[{"coding":[{"code":"390906007","display":"Follow-up encounter","system":"http://snomed.info/sct"}],"text":"Follow-up encounter"}]}},{"resource":{"class":{"code":"ambulatory"},"id":"be71e711-45ea-4113-a400-5e989454c857","meta":{"lastUpdated":"2019-04-09T11:38:30.297397+00:00","versionId":"MTU1NDgwOTkxMDI5NzM5NzAwMA"},"participant":[{"individual":{"reference":"Practitioner/ebd27f21-bb93-4416-bdf8-84490ae394cc"}}],"period":{"end":"1994-09-07T08:39:53-04:00","start":"1994-09-07T08:24:53-04:00"},"reason":[{"coding":[{"code":"55822004","display":"Hyperlipidemia","system":"http://snomed.info/sct"}]}],"resourceType":"Encounter","serviceProvider":{"reference":"Organization/915f9f66-75d8-46c2-8da4-04b35046240b"},"status":"finished","subject":{"reference":"Patient/00ba2d77-4512-45d0-b58c-82ee3161b00e"},"type":[{"coding":[{"code":"390906007","display":"Follow-up encounter","system":"http://snomed.info/sct"}],"text":"Follow-up encounter"}]}},{"resource":{"class":{"code":"ambulatory"},"id":"c1e23301-ed16-445a-8d1e-b1dca5af7fb9","meta":{"lastUpdated":"2019-04-09T11:38:32.333839+00:00","versionId":"MTU1NDgwOTkxMjMzMzgzOTAwMA"},"participant":[{"individual":{"reference":"Practitioner/ebd27f21-bb93-4416-bdf8-84490ae394cc"}}],"period":{"end":"2007-09-04T08:39:53-04:00","start":"2007-09-04T08:24:53-04:00"},"reason":[{"coding":[{"code":"55822004","display":"Hyperlipidemia","system":"http://snomed.info/sct"}]}],"resourceType":"Encounter","serviceProvider":{"reference":"Organization/915f9f66-75d8-46c2-8da4-04b35046240b"},"status":"finished","subject":{"reference":"Patient/00ba2d77-4512-45d0-b58c-82ee3161b00e"},"type":[{"coding":[{"code":"390906007","display":"Follow-up encounter","system":"http://snomed.info/sct"}],"text":"Follow-up encounter"}]}},{"resource":{"class":{"code":"ambulatory"},"id":"c9f81c77-44c3-44b8-a2d5-4d0118da72ad","meta":{"lastUpdated":"2019-04-09T11:38:30.297394+00:00","versionId":"MTU1NDgwOTkxMDI5NzM5NDAwMA"},"participant":[{"individual":{"reference":"Practitioner/ebd27f21-bb93-4416-bdf8-84490ae394cc"}}],"period":{"end":"1992-09-07T08:39:53-04:00","start":"1992-09-07T08:24:53-04:00"},"reason":[{"coding":[{"code":"55822004","display":"Hyperlipidemia","system":"http://snomed.info/sct"}]}],"resourceType":"Encounter","serviceProvider":{"reference":"Organization/915f9f66-75d8-46c2-8da4-04b35046240b"},"status":"finished","subject":{"reference":"Patient/00ba2d77-4512-45d0-b58c-82ee3161b00e"},"type":[{"coding":[{"code":"390906007","display":"Follow-up encounter","system":"http://snomed.info/sct"}],"text":"Follow-up encounter"}]}},{"resource":{"class":{"code":"WELLNESS"},"id":"ca571824-6b9a-4c33-95c5-aa82391dd88a","meta":{"lastUpdated":"2019-04-09T11:38:36.410258+00:00","versionId":"MTU1NDgwOTkxNjQxMDI1ODAwMA"},"participant":[{"individual":{"reference":"Practitioner/ebd27f21-bb93-4416-bdf8-84490ae394cc"}}],"period":{"end":"2011-10-30T08:39:53-04:00","start":"2011-10-30T08:24:53-04:00"},"resourceType":"Encounter","serviceProvider":{"reference":"Organization/915f9f66-75d8-46c2-8da4-04b35046240b"},"status":"finished","subject":{"reference":"Patient/00ba2d77-4512-45d0-b58c-82ee3161b00e"},"type":[{"coding":[{"code":"185349003","display":"Encounter for check up (procedure)","system":"http://snomed.info/sct"}],"text":"Encounter for check up (procedure)"}]}},{"resource":{"class":{"code":"WELLNESS"},"id":"d040d467-55a8-4786-93e9-52cff99788a9","meta":{"lastUpdated":"2019-04-09T11:38:47.765728+00:00","versionId":"MTU1NDgwOTkyNzc2NTcyODAwMA"},"participant":[{"individual":{"reference":"Practitioner/ebd27f21-bb93-4416-bdf8-84490ae394cc"}}],"period":{"end":"2018-12-16T07:54:53-05:00","start":"2018-12-16T07:24:53-05:00"},"resourceType":"Encounter","serviceProvider":{"reference":"Organization/915f9f66-75d8-46c2-8da4-04b35046240b"},"status":"finished","subject":{"reference":"Patient/00ba2d77-4512-45d0-b58c-82ee3161b00e"},"type":[{"coding":[{"code":"185349003","display":"Encounter for check up (procedure)","system":"http://snomed.info/sct"}],"text":"Encounter for check up (procedure)"}]}},{"resource":{"class":{"code":"ambulatory"},"id":"d2525501-a8f1-4491-9bd5-d42adbbaace0","meta":{"lastUpdated":"2019-04-09T11:38:30.282639+00:00","versionId":"MTU1NDgwOTkxMDI4MjYzOTAwMA"},"participant":[{"individual":{"reference":"Practitioner/ebd27f21-bb93-4416-bdf8-84490ae394cc"}}],"period":{"end":"1999-09-06T08:39:53-04:00","start":"1999-09-06T08:24:53-04:00"},"reason":[{"coding":[{"code":"55822004","display":"Hyperlipidemia","system":"http://snomed.info/sct"}]}],"resourceType":"Encounter","serviceProvider":{"reference":"Organization/915f9f66-75d8-46c2-8da4-04b35046240b"},"status":"finished","subject":{"reference":"Patient/00ba2d77-4512-45d0-b58c-82ee3161b00e"},"type":[{"coding":[{"code":"390906007","display":"Follow-up encounter","system":"http://snomed.info/sct"}],"text":"Follow-up encounter"}]}},{"resource":{"class":{"code":"ambulatory"},"id":"d324f119-159f-4549-a73d-718bcf71f183","meta":{"lastUpdated":"2019-04-09T11:38:30.282641+00:00","versionId":"MTU1NDgwOTkxMDI4MjY0MTAwMA"},"participant":[{"individual":{"reference":"Practitioner/ebd27f21-bb93-4416-bdf8-84490ae394cc"}}],"period":{"end":"1998-09-06T08:39:53-04:00","start":"1998-09-06T08:24:53-04:00"},"reason":[{"coding":[{"code":"55822004","display":"Hyperlipidemia","system":"http://snomed.info/sct"}]}],"resourceType":"Encounter","serviceProvider":{"reference":"Organization/915f9f66-75d8-46c2-8da4-04b35046240b"},"status":"finished","subject":{"reference":"Patient/00ba2d77-4512-45d0-b58c-82ee3161b00e"},"type":[{"coding":[{"code":"390906007","display":"Follow-up encounter","system":"http://snomed.info/sct"}],"text":"Follow-up encounter"}]}},{"resource":{"class":{"code":"ambulatory"},"id":"dfebcd97-0ee8-4beb-ba27-3ef28c810bbf","meta":{"lastUpdated":"2019-04-09T11:38:30.286461+00:00","versionId":"MTU1NDgwOTkxMDI4NjQ2MTAwMA"},"participant":[{"individual":{"reference":"Practitioner/ebd27f21-bb93-4416-bdf8-84490ae394cc"}}],"period":{"end":"1991-09-08T08:39:53-04:00","start":"1991-09-08T08:24:53-04:00"},"reason":[{"coding":[{"code":"55822004","display":"Hyperlipidemia","system":"http://snomed.info/sct"}]}],"resourceType":"Encounter","serviceProvider":{"reference":"Organization/915f9f66-75d8-46c2-8da4-04b35046240b"},"status":"finished","subject":{"reference":"Patient/00ba2d77-4512-45d0-b58c-82ee3161b00e"},"type":[{"coding":[{"code":"390906007","display":"Follow-up encounter","system":"http://snomed.info/sct"}],"text":"Follow-up encounter"}]}},{"resource":{"class":{"code":"ambulatory"},"id":"e16d9654-5aa5-4158-b3b4-1654c9871a14","meta":{"lastUpdated":"2019-04-09T11:38:42.631631+00:00","versionId":"MTU1NDgwOTkyMjYzMTYzMTAwMA"},"participant":[{"individual":{"reference":"Practitioner/ebd27f21-bb93-4416-bdf8-84490ae394cc"}}],"period":{"end":"2015-11-13T07:50:53-05:00","start":"2015-11-13T07:24:53-05:00"},"reason":[{"coding":[{"code":"10509002","display":"Acute bronchitis (disorder)","system":"http://snomed.info/sct"}]}],"resourceType":"Encounter","serviceProvider":{"reference":"Organization/915f9f66-75d8-46c2-8da4-04b35046240b"},"status":"finished","subject":{"reference":"Patient/00ba2d77-4512-45d0-b58c-82ee3161b00e"},"type":[{"coding":[{"code":"185345009","display":"Encounter for symptom","system":"http://snomed.info/sct"}],"text":"Encounter for symptom"}]}},{"resource":{"class":{"code":"WELLNESS"},"id":"e9be45b5-7c71-4054-ad2e-5ff3cd35550d","meta":{"lastUpdated":"2019-04-09T11:38:45.667166+00:00","versionId":"MTU1NDgwOTkyNTY2NzE2NjAwMA"},"participant":[{"individual":{"reference":"Practitioner/ebd27f21-bb93-4416-bdf8-84490ae394cc"}}],"period":{"end":"2017-12-10T07:54:53-05:00","start":"2017-12-10T07:24:53-05:00"},"resourceType":"Encounter","serviceProvider":{"reference":"Organization/915f9f66-75d8-46c2-8da4-04b35046240b"},"status":"finished","subject":{"reference":"Patient/00ba2d77-4512-45d0-b58c-82ee3161b00e"},"type":[{"coding":[{"code":"185349003","display":"Encounter for check up (procedure)","system":"http://snomed.info/sct"}],"text":"Encounter for check up (procedure)"}]}},{"resource":{"class":{"code":"ambulatory"},"id":"f0fba7d8-7c37-4e8f-bb83-b0a88440e054","meta":{"lastUpdated":"2019-04-09T11:38:38.469217+00:00","versionId":"MTU1NDgwOTkxODQ2OTIxNzAwMA"},"participant":[{"individual":{"reference":"Practitioner/ebd27f21-bb93-4416-bdf8-84490ae394cc"}}],"period":{"end":"2013-09-02T08:39:53-04:00","start":"2013-09-02T08:24:53-04:00"},"reason":[{"coding":[{"code":"55822004","display":"Hyperlipidemia","system":"http://snomed.info/sct"}]}],"resourceType":"Encounter","serviceProvider":{"reference":"Organization/915f9f66-75d8-46c2-8da4-04b35046240b"},"status":"finished","subject":{"reference":"Patient/00ba2d77-4512-45d0-b58c-82ee3161b00e"},"type":[{"coding":[{"code":"390906007","display":"Follow-up encounter","system":"http://snomed.info/sct"}],"text":"Follow-up encounter"}]}},{"resource":{"class":{"code":"ambulatory"},"id":"f36513cc-cff9-4935-9ccb-cead1baf1f52","meta":{"lastUpdated":"2019-04-09T11:38:40.544718+00:00","versionId":"MTU1NDgwOTkyMDU0NDcxODAwMA"},"participant":[{"individual":{"reference":"Practitioner/ebd27f21-bb93-4416-bdf8-84490ae394cc"}}],"period":{"end":"2014-09-02T08:39:53-04:00","start":"2014-09-02T08:24:53-04:00"},"reason":[{"coding":[{"code":"55822004","display":"Hyperlipidemia","system":"http://snomed.info/sct"}]}],"resourceType":"Encounter","serviceProvider":{"reference":"Organization/915f9f66-75d8-46c2-8da4-04b35046240b"},"status":"finished","subject":{"reference":"Patient/00ba2d77-4512-45d0-b58c-82ee3161b00e"},"type":[{"coding":[{"code":"390906007","display":"Follow-up encounter","system":"http://snomed.info/sct"}],"text":"Follow-up encounter"}]}},{"resource":{"class":{"code":"WELLNESS"},"id":"f5ca8abf-3836-4a23-a11a-b093cee82ad6","meta":{"lastUpdated":"2019-04-09T11:38:34.387662+00:00","versionId":"MTU1NDgwOTkxNDM4NzY2MjAwMA"},"participant":[{"individual":{"reference":"Practitioner/ebd27f21-bb93-4416-bdf8-84490ae394cc"}}],"period":{"end":"2010-10-24T08:39:53-04:00","start":"2010-10-24T08:24:53-04:00"},"resourceType":"Encounter","serviceProvider":{"reference":"Organization/915f9f66-75d8-46c2-8da4-04b35046240b"},"status":"finished","subject":{"reference":"Patient/00ba2d77-4512-45d0-b58c-82ee3161b00e"},"type":[{"coding":[{"code":"185349003","display":"Encounter for check up (procedure)","system":"http://snomed.info/sct"}],"text":"Encounter for check up (procedure)"}]}},{"resource":{"class":{"code":"ambulatory"},"id":"f8f745a5-8c77-425e-a529-ad16ef5873f6","meta":{"lastUpdated":"2019-04-09T11:38:46.663328+00:00","versionId":"MTU1NDgwOTkyNjY2MzMyODAwMA"},"participant":[{"individual":{"reference":"Practitioner/ebd27f21-bb93-4416-bdf8-84490ae394cc"}}],"period":{"end":"2018-09-01T08:39:53-04:00","start":"2018-09-01T08:24:53-04:00"},"reason":[{"coding":[{"code":"55822004","display":"Hyperlipidemia","system":"http://snomed.info/sct"}]}],"resourceType":"Encounter","serviceProvider":{"reference":"Organization/915f9f66-75d8-46c2-8da4-04b35046240b"},"status":"finished","subject":{"reference":"Patient/00ba2d77-4512-45d0-b58c-82ee3161b00e"},"type":[{"coding":[{"code":"390906007","display":"Follow-up encounter","system":"http://snomed.info/sct"}],"text":"Follow-up encounter"}]}},{"resource":{"class":{"code":"ambulatory"},"id":"fa93eb8a-5ee1-474c-9fc2-d94085b4b07f","meta":{"lastUpdated":"2019-04-09T11:38:39.492983+00:00","versionId":"MTU1NDgwOTkxOTQ5Mjk4MzAwMA"},"participant":[{"individual":{"reference":"Practitioner/ebd27f21-bb93-4416-bdf8-84490ae394cc"}}],"period":{"end":"2013-10-31T08:39:53-04:00","start":"2013-10-31T08:24:53-04:00"},"reason":[{"coding":[{"code":"58150001","display":"Fracture of clavicle","system":"http://snomed.info/sct"}]}],"resourceType":"Encounter","serviceProvider":{"reference":"Organization/915f9f66-75d8-46c2-8da4-04b35046240b"},"status":"finished","subject":{"reference":"Patient/00ba2d77-4512-45d0-b58c-82ee3161b00e"},"type":[{"coding":[{"code":"185349003","display":"Encounter for 'check-up'","system":"http://snomed.info/sct"}],"text":"Encounter for 'check-up'"}]}},{"resource":{"class":{"code":"ambulatory"},"id":"ff04c40a-0229-4572-aff2-16fd7c372fc4","meta":{"lastUpdated":"2019-04-09T11:38:32.349321+00:00","versionId":"MTU1NDgwOTkxMjM0OTMyMTAwMA"},"participant":[{"individual":{"reference":"Practitioner/ebd27f21-bb93-4416-bdf8-84490ae394cc"}}],"period":{"end":"2004-09-04T08:39:53-04:00","start":"2004-09-04T08:24:53-04:00"},"reason":[{"coding":[{"code":"55822004","display":"Hyperlipidemia","system":"http://snomed.info/sct"}]}],"resourceType":"Encounter","serviceProvider":{"reference":"Organization/915f9f66-75d8-46c2-8da4-04b35046240b"},"status":"finished","subject":{"reference":"Patient/00ba2d77-4512-45d0-b58c-82ee3161b00e"},"type":[{"coding":[{"code":"390906007","display":"Follow-up encounter","system":"http://snomed.info/sct"}],"text":"Follow-up encounter"}]}},{"resource":{"billablePeriod":{"end":"2012-10-30T08:39:53-04:00","start":"2011-10-30T08:39:53-04:00"},"careTeam":[{"provider":{"identifier":{"system":"http://hl7.org/fhir/sid/us-npi","value":"99999999"}},"role":{"coding":[{"code":"primary","display":"Primary Care Practitioner","system":"http://hl7.org/fhir/claimcareteamrole"}]},"sequence":1}],"claim":{"reference":"Claim/1e8ae518-4073-4852-b235-b4efd1a42fe2"},"contained":[{"id":"1","intent":"order","recipient":[{"identifier":{"system":"http://hl7.org/fhir/sid/us-npi","value":"99999999"}}],"requester":{"agent":{"identifier":{"system":"http://hl7.org/fhir/sid/us-npi","value":"99999999"}}},"resourceType":"ReferralRequest","status":"completed","subject":{"reference":"Patient/00ba2d77-4512-45d0-b58c-82ee3161b00e"}},{"id":"coverage","resourceType":"Coverage","type":{"text":"medicare"}}],"created":"2011-10-30T08:39:53-04:00","id":"033b0ef2-8b11-4820-a478-5d9905e2beaf","identifier":[{"system":"https://bluebutton.cms.gov/resources/variables/clm_id","value":"1e8ae518-4073-4852-b235-b4efd1a42fe2"},{"system":"https://bluebutton.cms.gov/resources/identifier/claim-group","value":"99999999999"}],"insurance":{"coverage":{"reference":"#coverage"}},"item":[{"category":{"coding":[{"code":"1","display":"Medical care","system":"https://bluebutton.cms.gov/resources/variables/line_cms_type_srvc_cd"}]},"encounter":[{"reference":"Encounter/ca571824-6b9a-4c33-95c5-aa82391dd88a"}],"locationCodeableConcept":{"coding":[{"code":"21","display":"Inpatient Hospital","system":"https://bluebutton.cms.gov/resources/variables/line_place_of_srvc_cd"}]},"sequence":1,"servicedPeriod":{"end":"2011-10-30T08:39:53-04:00","start":"2011-10-30T08:24:53-04:00"}},{"adjudication":[{"amount":{"code":"USD","system":"urn:iso:std:iso:4217","value":28.104000000000003},"category":{"coding":[{"code":"https://bluebutton.cms.gov/resources/variables/line_coinsrnc_amt","display":"Line Beneficiary Coinsurance Amount","system":"https://bluebutton.cms.gov/resources/codesystem/adjudication"}]}},{"amount":{"code":"USD","system":"urn:iso:std:iso:4217","value":112.41600000000001},"category":{"coding":[{"code":"https://bluebutton.cms.gov/resources/variables/line_prvdr_pmt_amt","display":"Line Provider Payment Amount","system":"https://bluebutton.cms.gov/resources/codesystem/adjudication"}]}},{"amount":{"code":"USD","system":"urn:iso:std:iso:4217","value":140.52},"category":{"coding":[{"code":"https://bluebutton.cms.gov/resources/variables/line_sbmtd_chrg_amt","display":"Line Submitted Charge Amount","system":"https://bluebutton.cms.gov/resources/codesystem/adjudication"}]}},{"amount":{"code":"USD","system":"urn:iso:std:iso:4217","value":140.52},"category":{"coding":[{"code":"https://bluebutton.cms.gov/resources/variables/line_alowd_chrg_amt","display":"Line Allowed Charge Amount","system":"https://bluebutton.cms.gov/resources/codesystem/adjudication"}]}},{"amount":{"code":"USD","system":"urn:iso:std:iso:4217","value":0},"category":{"coding":[{"code":"https://bluebutton.cms.gov/resources/variables/line_bene_ptb_ddctbl_amt","display":"Line Beneficiary Part B Deductible Amount","system":"https://bluebutton.cms.gov/resources/codesystem/adjudication"}]}},{"category":{"coding":[{"code":"https://bluebutton.cms.gov/resources/variables/line_prcsg_ind_cd","display":"Line Processing Indicator Code","system":"https://bluebutton.cms.gov/resources/codesystem/adjudication"}]},"reason":{"coding":[{"code":"A","display":"Allowed","system":"https://bluebutton.cms.gov/resources/variables/line_prcsg_ind_cd"}]}}],"category":{"coding":[{"code":"1","display":"Medical care","system":"https://bluebutton.cms.gov/resources/variables/line_cms_type_srvc_cd"}]},"informationLinkId":[1],"locationCodeableConcept":{"coding":[{"code":"21","display":"Inpatient Hospital","system":"https://bluebutton.cms.gov/resources/variables/line_place_of_srvc_cd"}]},"net":{"code":"USD","system":"urn:iso:std:iso:4217","value":140.52},"sequence":2,"servicedPeriod":{"end":"2011-10-30T08:39:53-04:00","start":"2011-10-30T08:24:53-04:00"}}],"meta":{"lastUpdated":"2019-04-09T11:38:36.451622+00:00","versionId":"MTU1NDgwOTkxNjQ1MTYyMjAwMA"},"organization":{"identifier":{"value":"915f9f66-75d8-46c2-8da4-04b35046240b"}},"patient":{"reference":"Patient/00ba2d77-4512-45d0-b58c-82ee3161b00e"},"payment":{"amount":{"code":"USD","system":"urn:iso:std:iso:4217","value":112.41600000000001}},"provider":{"identifier":{"value":"ebd27f21-bb93-4416-bdf8-84490ae394cc"}},"referral":{"reference":"#1"},"resourceType":"ExplanationOfBenefit","status":"active","totalCost":{"code":"USD","system":"urn:iso:std:iso:4217","value":265.52},"type":{"coding":[{"code":"71","display":"Local carrier non-durable medical equipment, prosthetics, orthotics, and supplies (DMEPOS) claim","system":"https://bluebutton.cms.gov/resources/variables/nch_clm_type_cd"},{"code":"CARRIER","display":"EOB Type","system":"https://bluebutton.cms.gov/resources/codesystem/eob-type"},{"code":"professional","display":"Claim Type","system":"http://hl7.org/fhir/ex-claimtype"},{"code":"O","display":"Part B physician/supplier claim record (processed by local carriers; can include DMEPOS services)","system":"https://bluebutton.cms.gov/resources/variables/nch_near_line_rec_ident_cd"}]}}},{"resource":{"billablePeriod":{"end":"2016-11-22T07:54:53-05:00","start":"2015-11-22T07:54:53-05:00"},"careTeam":[{"provider":{"identifier":{"system":"http://hl7.org/fhir/sid/us-npi","value":"99999999"}},"role":{"coding":[{"code":"primary","display":"Primary Care Practitioner","system":"http://hl7.org/fhir/claimcareteamrole"}]},"sequence":1}],"claim":{"reference":"Claim/c2ce6c3a-6ea6-41ae-a4e7-5dbcea1213f8"},"contained":[{"id":"1","intent":"order","recipient":[{"identifier":{"system":"http://hl7.org/fhir/sid/us-npi","value":"99999999"}}],"requester":{"agent":{"identifier":{"system":"http://hl7.org/fhir/sid/us-npi","value":"99999999"}}},"resourceType":"ReferralRequest","status":"completed","subject":{"reference":"Patient/00ba2d77-4512-45d0-b58c-82ee3161b00e"}},{"id":"coverage","resourceType":"Coverage","type":{"text":"medicare"}}],"created":"2015-11-22T07:54:53-05:00","id":"08c677ad-6e65-4386-8963-e3e8f3f8aa95","identifier":[{"system":"https://bluebutton.cms.gov/resources/variables/clm_id","value":"c2ce6c3a-6ea6-41ae-a4e7-5dbcea1213f8"},{"system":"https://bluebutton.cms.gov/resources/identifier/claim-group","value":"99999999999"}],"insurance":{"coverage":{"reference":"#coverage"}},"item":[{"category":{"coding":[{"code":"1","display":"Medical care","system":"https://bluebutton.cms.gov/resources/variables/line_cms_type_srvc_cd"}]},"encounter":[{"reference":"Encounter/94408aae-49da-47a9-924c-c478d16c998b"}],"locationCodeableConcept":{"coding":[{"code":"21","display":"Inpatient Hospital","system":"https://bluebutton.cms.gov/resources/variables/line_place_of_srvc_cd"}]},"sequence":1,"servicedPeriod":{"end":"2015-11-22T07:54:53-05:00","start":"2015-11-22T07:24:53-05:00"}},{"adjudication":[{"amount":{"code":"USD","system":"urn:iso:std:iso:4217","value":28.104000000000003},"category":{"coding":[{"code":"https://bluebutton.cms.gov/resources/variables/line_coinsrnc_amt","display":"Line Beneficiary Coinsurance Amount","system":"https://bluebutton.cms.gov/resources/codesystem/adjudication"}]}},{"amount":{"code":"USD","system":"urn:iso:std:iso:4217","value":112.41600000000001},"category":{"coding":[{"code":"https://bluebutton.cms.gov/resources/variables/line_prvdr_pmt_amt","display":"Line Provider Payment Amount","system":"https://bluebutton.cms.gov/resources/codesystem/adjudication"}]}},{"amount":{"code":"USD","system":"urn:iso:std:iso:4217","value":140.52},"category":{"coding":[{"code":"https://bluebutton.cms.gov/resources/variables/line_sbmtd_chrg_amt","display":"Line Submitted Charge Amount","system":"https://bluebutton.cms.gov/resources/codesystem/adjudication"}]}},{"amount":{"code":"USD","system":"urn:iso:std:iso:4217","value":140.52},"category":{"coding":[{"code":"https://bluebutton.cms.gov/resources/variables/line_alowd_chrg_amt","display":"Line Allowed Charge Amount","system":"https://bluebutton.cms.gov/resources/codesystem/adjudication"}]}},{"amount":{"code":"USD","system":"urn:iso:std:iso:4217","value":0},"category":{"coding":[{"code":"https://bluebutton.cms.gov/resources/variables/line_bene_ptb_ddctbl_amt","display":"Line Beneficiary Part B Deductible Amount","system":"https://bluebutton.cms.gov/resources/codesystem/adjudication"}]}},{"category":{"coding":[{"code":"https://bluebutton.cms.gov/resources/variables/line_prcsg_ind_cd","display":"Line Processing Indicator Code","system":"https://bluebutton.cms.gov/resources/codesystem/adjudication"}]},"reason":{"coding":[{"code":"A","display":"Allowed","system":"https://bluebutton.cms.gov/resources/variables/line_prcsg_ind_cd"}]}}],"category":{"coding":[{"code":"1","display":"Medical care","system":"https://bluebutton.cms.gov/resources/variables/line_cms_type_srvc_cd"}]},"informationLinkId":[1],"locationCodeableConcept":{"coding":[{"code":"21","display":"Inpatient Hospital","system":"https://bluebutton.cms.gov/resources/variables/line_place_of_srvc_cd"}]},"net":{"code":"USD","system":"urn:iso:std:iso:4217","value":140.52},"sequence":2,"servicedPeriod":{"end":"2015-11-22T07:54:53-05:00","start":"2015-11-22T07:24:53-05:00"}},{"adjudication":[{"amount":{"code":"USD","system":"urn:iso:std:iso:4217","value":101.00200000000001},"category":{"coding":[{"code":"https://bluebutton.cms.gov/resources/variables/line_coinsrnc_amt","display":"Line Beneficiary Coinsurance Amount","system":"https://bluebutton.cms.gov/resources/codesystem/adjudication"}]}},{"amount":{"code":"USD","system":"urn:iso:std:iso:4217","value":404.00800000000004},"category":{"coding":[{"code":"https://bluebutton.cms.gov/resources/variables/line_prvdr_pmt_amt","display":"Line Provider Payment Amount","system":"https://bluebutton.cms.gov/resources/codesystem/adjudication"}]}},{"amount":{"code":"USD","system":"urn:iso:std:iso:4217","value":505.01},"category":{"coding":[{"code":"https://bluebutton.cms.gov/resources/variables/line_sbmtd_chrg_amt","display":"Line Submitted Charge Amount","system":"https://bluebutton.cms.gov/resources/codesystem/adjudication"}]}},{"amount":{"code":"USD","system":"urn:iso:std:iso:4217","value":505.01},"category":{"coding":[{"code":"https://bluebutton.cms.gov/resources/variables/line_alowd_chrg_amt","display":"Line Allowed Charge Amount","system":"https://bluebutton.cms.gov/resources/codesystem/adjudication"}]}},{"amount":{"code":"USD","system":"urn:iso:std:iso:4217","value":0},"category":{"coding":[{"code":"https://bluebutton.cms.gov/resources/variables/line_bene_ptb_ddctbl_amt","display":"Line Beneficiary Part B Deductible Amount","system":"https://bluebutton.cms.gov/resources/codesystem/adjudication"}]}},{"category":{"coding":[{"code":"https://bluebutton.cms.gov/resources/variables/line_prcsg_ind_cd","display":"Line Processing Indicator Code","system":"https://bluebutton.cms.gov/resources/codesystem/adjudication"}]},"reason":{"coding":[{"code":"A","display":"Allowed","system":"https://bluebutton.cms.gov/resources/variables/line_prcsg_ind_cd"}]}}],"category":{"coding":[{"code":"1","display":"Medical care","system":"https://bluebutton.cms.gov/resources/variables/line_cms_type_srvc_cd"}]},"locationCodeableConcept":{"coding":[{"code":"21","display":"Inpatient Hospital","system":"https://bluebutton.cms.gov/resources/variables/line_place_of_srvc_cd"}]},"net":{"code":"USD","system":"urn:iso:std:iso:4217","value":505.01},"sequence":3,"service":{"coding":[{"code":"428191000124101","system":"http://snomed.info/sct","version":"v1"}]},"servicedPeriod":{"end":"2015-11-22T07:54:53-05:00","start":"2015-11-22T07:24:53-05:00"}}],"meta":{"lastUpdated":"2019-04-09T11:38:43.641499+00:00","versionId":"MTU1NDgwOTkyMzY0MTQ5OTAwMA"},"organization":{"identifier":{"value":"915f9f66-75d8-46c2-8da4-04b35046240b"}},"patient":{"reference":"Patient/00ba2d77-4512-45d0-b58c-82ee3161b00e"},"payment":{"amount":{"code":"USD","system":"urn:iso:std:iso:4217","value":516.4240000000001}},"provider":{"identifier":{"value":"ebd27f21-bb93-4416-bdf8-84490ae394cc"}},"referral":{"reference":"#1"},"resourceType":"ExplanationOfBenefit","status":"active","totalCost":{"code":"USD","system":"urn:iso:std:iso:4217","value":770.53},"type":{"coding":[{"code":"71","display":"Local carrier non-durable medical equipment, prosthetics, orthotics, and supplies (DMEPOS) claim","system":"https://bluebutton.cms.gov/resources/variables/nch_clm_type_cd"},{"code":"CARRIER","display":"EOB Type","system":"https://bluebutton.cms.gov/resources/codesystem/eob-type"},{"code":"professional","display":"Claim Type","system":"http://hl7.org/fhir/ex-claimtype"},{"code":"O","display":"Part B physician/supplier claim record (processed by local carriers; can include DMEPOS services)","system":"https://bluebutton.cms.gov/resources/variables/nch_near_line_rec_ident_cd"}]}}},{"resource":{"billablePeriod":{"end":"1991-08-19T08:54:53-04:00","start":"1990-08-19T08:54:53-04:00"},"careTeam":[{"provider":{"identifier":{"system":"http://hl7.org/fhir/sid/us-npi","value":"99999999"}},"role":{"coding":[{"code":"primary","display":"Primary Care Practitioner","system":"http://hl7.org/fhir/claimcareteamrole"}]},"sequence":1}],"claim":{"reference":"Claim/cf3e7c52-7af7-4ec0-873b-26af489e5093"},"contained":[{"id":"1","intent":"order","recipient":[{"identifier":{"system":"http://hl7.org/fhir/sid/us-npi","value":"99999999"}}],"requester":{"agent":{"identifier":{"system":"http://hl7.org/fhir/sid/us-npi","value":"99999999"}}},"resourceType":"ReferralRequest","status":"completed","subject":{"reference":"Patient/00ba2d77-4512-45d0-b58c-82ee3161b00e"}},{"id":"coverage","resourceType":"Coverage","type":{"text":"private"}}],"created":"1990-08-19T08:54:53-04:00","diagnosis":[{"diagnosisReference":{"reference":"Condition/311dcd38-5569-4f33-aa8b-b93844077a19"},"extension":[{"url":"https://bluebutton.cms.gov/assets/ig/StructureDefinition-bluebutton-inpatient-clm-poa-ind-sw1-extension","valueCoding":{"code":"Y","display":"Diagnosis present at time of admission","system":"https://bluebutton.cms.gov/assets/ig/CodeSystem-clm-poa-ind-sw1"}}],"sequence":1,"type":[{"coding":[{"code":"principal","system":"https://bluebutton.cms.gov/resources/codesystem/diagnosis-type"}]}]}],"id":"0ca6e468-5a92-4eac-a5d7-80b7cf39bdd3","identifier":[{"system":"https://bluebutton.cms.gov/resources/variables/clm_id","value":"cf3e7c52-7af7-4ec0-873b-26af489e5093"},{"system":"https://bluebutton.cms.gov/resources/identifier/claim-group","value":"99999999999"}],"insurance":{"coverage":{"reference":"#coverage"}},"item":[{"category":{"coding":[{"code":"1","display":"Medical care","system":"https://bluebutton.cms.gov/resources/variables/line_cms_type_srvc_cd"}]},"encounter":[{"reference":"Encounter/a8b3eba2-ea8a-44c5-a4f0-6e331a500bd3"}],"locationCodeableConcept":{"coding":[{"code":"21","display":"Inpatient Hospital","system":"https://bluebutton.cms.gov/resources/variables/line_place_of_srvc_cd"}]},"sequence":1,"servicedPeriod":{"end":"1990-08-19T08:54:53-04:00","start":"1990-08-19T08:24:53-04:00"}},{"category":{"coding":[{"code":"1","display":"Medical care","system":"https://bluebutton.cms.gov/resources/variables/line_cms_type_srvc_cd"}]},"diagnosisLinkId":[1],"locationCodeableConcept":{"coding":[{"code":"21","display":"Inpatient Hospital","system":"https://bluebutton.cms.gov/resources/variables/line_place_of_srvc_cd"}]},"sequence":2,"servicedPeriod":{"end":"1990-08-19T08:54:53-04:00","start":"1990-08-19T08:24:53-04:00"}}],"meta":{"lastUpdated":"2019-04-09T11:38:29.195340+00:00","versionId":"MTU1NDgwOTkwOTE5NTM0MDAwMA"},"organization":{"identifier":{"value":"915f9f66-75d8-46c2-8da4-04b35046240b"}},"patient":{"reference":"Patient/00ba2d77-4512-45d0-b58c-82ee3161b00e"},"payment":{"amount":{"code":"USD","system":"urn:iso:std:iso:4217","value":0}},"provider":{"identifier":{"value":"ebd27f21-bb93-4416-bdf8-84490ae394cc"}},"referral":{"reference":"#1"},"resourceType":"ExplanationOfBenefit","status":"active","totalCost":{"code":"USD","system":"urn:iso:std:iso:4217","value":125},"type":{"coding":[{"code":"71","display":"Local carrier non-durable medical equipment, prosthetics, orthotics, and supplies (DMEPOS) claim","system":"https://bluebutton.cms.gov/resources/variables/nch_clm_type_cd"},{"code":"CARRIER","display":"EOB Type","system":"https://bluebutton.cms.gov/resources/codesystem/eob-type"},{"code":"professional","display":"Claim Type","system":"http://hl7.org/fhir/ex-claimtype"},{"code":"O","display":"Part B physician/supplier claim record (processed by local carriers; can include DMEPOS services)","system":"https://bluebutton.cms.gov/resources/variables/nch_near_line_rec_ident_cd"}]}}},{"resource":{"billablePeriod":{"end":"2018-09-01T08:39:53-04:00","extension":[{"url":"https://bluebutton.cms.gov/assets/ig/StructureDefinition-bluebutton-inpatient-claim-query-cd-extension","valueCoding":{"code":"3","display":"Final Bill","system":"https://bluebutton.cms.gov/assets/ig/ValueSet-claim-query-cd"}}],"start":"2017-09-01T08:39:53-04:00"},"careTeam":[{"provider":{"identifier":{"system":"http://hl7.org/fhir/sid/us-npi","value":"99999999"}},"role":{"coding":[{"code":"primary","display":"Primary Care Practitioner","system":"http://hl7.org/fhir/claimcareteamrole"}]},"sequence":1}],"contained":[{"id":"coverage","resourceType":"Coverage","type":{"text":"medicare"}}],"extension":[{"url":"https://bluebutton.cms.gov/assets/ig/StructureDefinition-bluebutton-inpatient-ime-op-clm-val-amt-extension","valueMoney":{"code":"USD","system":"urn:iso:std:iso:4217","value":400}},{"url":"https://bluebutton.cms.gov/assets/ig/StructureDefinition-bluebutton-inpatient-dsh-op-clm-val-amt-extension","valueMoney":{"code":"USD","system":"urn:iso:std:iso:4217","value":0}},{"url":"https://bluebutton.cms.gov/assets/ig/StructureDefinition-bluebutton-inpatient-clm-pass-thru-per-diem-amt-extension","valueMoney":{"code":"USD","system":"urn:iso:std:iso:4217","value":0}},{"url":"https://bluebutton.cms.gov/assets/ig/StructureDefinition-bluebutton-inpatient-nch-profnl-cmpnt-chrg-amt-extension","valueMoney":{"code":"USD","system":"urn:iso:std:iso:4217","value":0}},{"url":"https://bluebutton.cms.gov/assets/ig/StructureDefinition-bluebutton-inpatient-clm-tot-pps-cptl-amt-extension","valueMoney":{"code":"USD","system":"urn:iso:std:iso:4217","value":0}},{"url":"https://bluebutton.cms.gov/assets/ig/StructureDefinition-bluebutton-inpatient-nch-bene-ip-ddctbl-amt-extension","valueMoney":{"code":"USD","system":"urn:iso:std:iso:4217","value":0}},{"url":"https://bluebutton.cms.gov/assets/ig/StructureDefinition-bluebutton-inpatient-nch-bene-pta-coinsrnc-lblty-amt-extension","valueMoney":{"code":"USD","system":"urn:iso:std:iso:4217","value":0}},{"url":"https://bluebutton.cms.gov/assets/ig/StructureDefinition-bluebutton-inpatient-nch-ip-ncvrd-chrg-amt-extension","valueMoney":{"code":"USD","system":"urn:iso:std:iso:4217","value":0}},{"url":"https://bluebutton.cms.gov/assets/ig/StructureDefinition-bluebutton-inpatient-nch-ip-tot-ddctn-amt-extension","valueMoney":{"code":"USD","system":"urn:iso:std:iso:4217","value":0}},{"url":"https://bluebutton.cms.gov/assets/ig/StructureDefinition-bluebutton-inpatient-clm-pps-cptl-dsprprtnt-shr-amt-extension","valueMoney":{"code":"USD","system":"urn:iso:std:iso:4217","value":0}},{"url":"https://bluebutton.cms.gov/assets/ig/StructureDefinition-bluebutton-inpatient-clm-pps-cptl-excptn-amt-extension","valueMoney":{"code":"USD","system":"urn:iso:std:iso:4217","value":0}},{"url":"https://bluebutton.cms.gov/assets/ig/StructureDefinition-bluebutton-inpatient-clm-pps-cptl-fsp-amt-extension","valueMoney":{"code":"USD","system":"urn:iso:std:iso:4217","value":0}},{"url":"https://bluebutton.cms.gov/assets/ig/StructureDefinition-bluebutton-inpatient-clm-pps-cptl-ime-amt-extension","valueMoney":{"code":"USD","system":"urn:iso:std:iso:4217","value":400}},{"url":"https://bluebutton.cms.gov/assets/ig/StructureDefinition-bluebutton-inpatient-clm-pps-cptl-outlier-amt-extension","valueMoney":{"code":"USD","system":"urn:iso:std:iso:4217","value":0}},{"url":"https://bluebutton.cms.gov/assets/ig/StructureDefinition-bluebutton-inpatient-clm-pps-old-cptl-hld-hrmls-amt-extension","valueMoney":{"code":"USD","system":"urn:iso:std:iso:4217","value":0}},{"url":"https://bluebutton.cms.gov/assets/ig/StructureDefinition-bluebutton-inpatient-nch-drg-outlier-aprvd-pmt-amt-extension","valueMoney":{"code":"USD","system":"urn:iso:std:iso:4217","value":0}},{"url":"https://bluebutton.cms.gov/assets/ig/StructureDefinition-bluebutton-inpatient-nch-bene-blood-ddctbl-lblty-am-extension","valueMoney":{"code":"USD","system":"urn:iso:std:iso:4217","value":0}},{"url":"https://bluebutton.cms.gov/assets/ig/StructureDefinition-bluebutton-inpatient-clm-mdcr-non-pmt-rsn-cd-extension","valueCoding":{"code":"N","display":"All other reasons for non-payment","system":"https://bluebutton.cms.gov/assets/ig/CodeSystem-clm-mdcr-non-pmt-rsn-cd"}},{"url":"https://bluebutton.cms.gov/assets/ig/StructureDefinition-bluebutton-inpatient-prpayamt-extension","valueMoney":{"code":"USD","system":"urn:iso:std:iso:4217","value":0}},{"url":"https://bluebutton.cms.gov/assets/ig/StructureDefinition-bluebutton-inpatient-fi-num-extension","valueIdentifier":{"system":"https://bluebutton.cms.gov/assets/ig/CodeSystem-fi-num","value":"002000"}}],"id":"0fed6eef-e698-4f76-bf82-bf9e6b72e968","identifier":[{"system":"https://bluebutton.cms.gov/resources/variables/clm_id","value":"ca0a3f9d-1025-45ea-9384-ce591fbc3ef9"},{"system":"https://bluebutton.cms.gov/resources/identifier/claim-group","value":"99999999999"}],"insurance":{"coverage":{"reference":"#coverage"}},"item":[{"extension":[{"url":"https://bluebutton.cms.gov/assets/ig/StructureDefinition-bluebutton-inpatient-rev-cntr-ndc-qty-extension","valueQuantity":{"value":0}}],"locationCodeableConcept":{"coding":[{"code":"21","display":"Inpatient Hospital","system":"https://bluebutton.cms.gov/resources/variables/line_place_of_srvc_cd"}]},"sequence":1}],"meta":{"lastUpdated":"2019-04-09T11:38:45.696766+00:00","profile":["https://bluebutton.cms.gov/assets/ig/StructureDefinition-bluebutton-inpatient-claim"],"versionId":"MTU1NDgwOTkyNTY5Njc2NjAwMA"},"organization":{"identifier":{"value":"915f9f66-75d8-46c2-8da4-04b35046240b"}},"patient":{"reference":"Patient/00ba2d77-4512-45d0-b58c-82ee3161b00e"},"payment":{"amount":{"code":"USD","system":"urn:iso:std:iso:4217","value":0}},"provider":{"identifier":{"value":"ebd27f21-bb93-4416-bdf8-84490ae394cc"}},"resourceType":"ExplanationOfBenefit","status":"active","totalCost":{"code":"USD","system":"urn:iso:std:iso:4217","value":125},"type":{"coding":[{"code":"71","display":"Local carrier non-durable medical equipment, prosthetics, orthotics, and supplies (DMEPOS) claim","system":"https://bluebutton.cms.gov/resources/variables/nch_clm_type_cd"},{"code":"CARRIER","display":"EOB Type","system":"https://bluebutton.cms.gov/resources/codesystem/eob-type"},{"code":"professional","display":"Claim Type","system":"http://hl7.org/fhir/ex-claimtype"},{"code":"O","display":"Part B physician/supplier claim record (processed by local carriers; can include DMEPOS services)","system":"https://bluebutton.cms.gov/resources/variables/nch_near_line_rec_ident_cd"}]}}},{"resource":{"billablePeriod":{"end":"2007-09-04T08:39:53-04:00","extension":[{"url":"https://bluebutton.cms.gov/assets/ig/StructureDefinition-bluebutton-inpatient-claim-query-cd-extension","valueCoding":{"code":"3","display":"Final Bill","system":"https://bluebutton.cms.gov/assets/ig/ValueSet-claim-query-cd"}}],"start":"2006-09-04T08:39:53-04:00"},"careTeam":[{"provider":{"identifier":{"system":"http://hl7.org/fhir/sid/us-npi","value":"99999999"}},"role":{"coding":[{"code":"primary","display":"Primary Care Practitioner","system":"http://hl7.org/fhir/claimcareteamrole"}]},"sequence":1}],"contained":[{"id":"coverage","resourceType":"Coverage","type":{"text":"medicare"}}],"extension":[{"url":"https://bluebutton.cms.gov/assets/ig/StructureDefinition-bluebutton-inpatient-ime-op-clm-val-amt-extension","valueMoney":{"code":"USD","system":"urn:iso:std:iso:4217","value":400}},{"url":"https://bluebutton.cms.gov/assets/ig/StructureDefinition-bluebutton-inpatient-dsh-op-clm-val-amt-extension","valueMoney":{"code":"USD","system":"urn:iso:std:iso:4217","value":0}},{"url":"https://bluebutton.cms.gov/assets/ig/StructureDefinition-bluebutton-inpatient-clm-pass-thru-per-diem-amt-extension","valueMoney":{"code":"USD","system":"urn:iso:std:iso:4217","value":0}},{"url":"https://bluebutton.cms.gov/assets/ig/StructureDefinition-bluebutton-inpatient-nch-profnl-cmpnt-chrg-amt-extension","valueMoney":{"code":"USD","system":"urn:iso:std:iso:4217","value":0}},{"url":"https://bluebutton.cms.gov/assets/ig/StructureDefinition-bluebutton-inpatient-clm-tot-pps-cptl-amt-extension","valueMoney":{"code":"USD","system":"urn:iso:std:iso:4217","value":0}},{"url":"https://bluebutton.cms.gov/assets/ig/StructureDefinition-bluebutton-inpatient-nch-bene-ip-ddctbl-amt-extension","valueMoney":{"code":"USD","system":"urn:iso:std:iso:4217","value":0}},{"url":"https://bluebutton.cms.gov/assets/ig/StructureDefinition-bluebutton-inpatient-nch-bene-pta-coinsrnc-lblty-amt-extension","valueMoney":{"code":"USD","system":"urn:iso:std:iso:4217","value":0}},{"url":"https://bluebutton.cms.gov/assets/ig/StructureDefinition-bluebutton-inpatient-nch-ip-ncvrd-chrg-amt-extension","valueMoney":{"code":"USD","system":"urn:iso:std:iso:4217","value":0}},{"url":"https://bluebutton.cms.gov/assets/ig/StructureDefinition-bluebutton-inpatient-nch-ip-tot-ddctn-amt-extension","valueMoney":{"code":"USD","system":"urn:iso:std:iso:4217","value":0}},{"url":"https://bluebutton.cms.gov/assets/ig/StructureDefinition-bluebutton-inpatient-clm-pps-cptl-dsprprtnt-shr-amt-extension","valueMoney":{"code":"USD","system":"urn:iso:std:iso:4217","value":0}},{"url":"https://bluebutton.cms.gov/assets/ig/StructureDefinition-bluebutton-inpatient-clm-pps-cptl-excptn-amt-extension","valueMoney":{"code":"USD","system":"urn:iso:std:iso:4217","value":0}},{"url":"https://bluebutton.cms.gov/assets/ig/StructureDefinition-bluebutton-inpatient-clm-pps-cptl-fsp-amt-extension","valueMoney":{"code":"USD","system":"urn:iso:std:iso:4217","value":0}},{"url":"https://bluebutton.cms.gov/assets/ig/StructureDefinition-bluebutton-inpatient-clm-pps-cptl-ime-amt-extension","valueMoney":{"code":"USD","system":"urn:iso:std:iso:4217","value":400}},{"url":"https://bluebutton.cms.gov/assets/ig/StructureDefinition-bluebutton-inpatient-clm-pps-cptl-outlier-amt-extension","valueMoney":{"code":"USD","system":"urn:iso:std:iso:4217","value":0}},{"url":"https://bluebutton.cms.gov/assets/ig/StructureDefinition-bluebutton-inpatient-clm-pps-old-cptl-hld-hrmls-amt-extension","valueMoney":{"code":"USD","system":"urn:iso:std:iso:4217","value":0}},{"url":"https://bluebutton.cms.gov/assets/ig/StructureDefinition-bluebutton-inpatient-nch-drg-outlier-aprvd-pmt-amt-extension","valueMoney":{"code":"USD","system":"urn:iso:std:iso:4217","value":0}},{"url":"https://bluebutton.cms.gov/assets/ig/StructureDefinition-bluebutton-inpatient-nch-bene-blood-ddctbl-lblty-am-extension","valueMoney":{"code":"USD","system":"urn:iso:std:iso:4217","value":0}},{"url":"https://bluebutton.cms.gov/assets/ig/StructureDefinition-bluebutton-inpatient-clm-mdcr-non-pmt-rsn-cd-extension","valueCoding":{"code":"N","display":"All other reasons for non-payment","system":"https://bluebutton.cms.gov/assets/ig/CodeSystem-clm-mdcr-non-pmt-rsn-cd"}},{"url":"https://bluebutton.cms.gov/assets/ig/StructureDefinition-bluebutton-inpatient-prpayamt-extension","valueMoney":{"code":"USD","system":"urn:iso:std:iso:4217","value":0}},{"url":"https://bluebutton.cms.gov/assets/ig/StructureDefinition-bluebutton-inpatient-fi-num-extension","valueIdentifier":{"system":"https://bluebutton.cms.gov/assets/ig/CodeSystem-fi-num","value":"002000"}}],"id":"32ed818c-71fc-4f2a-aca3-c4bbf3bbd089","identifier":[{"system":"https://bluebutton.cms.gov/resources/variables/clm_id","value":"34be05bd-27b8-451e-88f9-3873e49d810b"},{"system":"https://bluebutton.cms.gov/resources/identifier/claim-group","value":"99999999999"}],"insurance":{"coverage":{"reference":"#coverage"}},"item":[{"extension":[{"url":"https://bluebutton.cms.gov/assets/ig/StructureDefinition-bluebutton-inpatient-rev-cntr-ndc-qty-extension","valueQuantity":{"value":0}}],"locationCodeableConcept":{"coding":[{"code":"21","display":"Inpatient Hospital","system":"https://bluebutton.cms.gov/resources/variables/line_place_of_srvc_cd"}]},"sequence":1}],"meta":{"lastUpdated":"2019-04-09T11:38:32.333835+00:00","profile":["https://bluebutton.cms.gov/assets/ig/StructureDefinition-bluebutton-inpatient-claim"],"versionId":"MTU1NDgwOTkxMjMzMzgzNTAwMA"},"organization":{"identifier":{"value":"915f9f66-75d8-46c2-8da4-04b35046240b"}},"patient":{"reference":"Patient/00ba2d77-4512-45d0-b58c-82ee3161b00e"},"payment":{"amount":{"code":"USD","system":"urn:iso:std:iso:4217","value":0}},"provider":{"identifier":{"value":"ebd27f21-bb93-4416-bdf8-84490ae394cc"}},"resourceType":"ExplanationOfBenefit","status":"active","totalCost":{"code":"USD","system":"urn:iso:std:iso:4217","value":125},"type":{"coding":[{"code":"71","display":"Local carrier non-durable medical equipment, prosthetics, orthotics, and supplies (DMEPOS) claim","system":"https://bluebutton.cms.gov/resources/variables/nch_clm_type_cd"},{"code":"CARRIER","display":"EOB Type","system":"https://bluebutton.cms.gov/resources/codesystem/eob-type"},{"code":"professional","display":"Claim Type","system":"http://hl7.org/fhir/ex-claimtype"},{"code":"O","display":"Part B physician/supplier claim record (processed by local carriers; can include DMEPOS services)","system":"https://bluebutton.cms.gov/resources/variables/nch_near_line_rec_ident_cd"}]}}},{"resource":{"billablePeriod":{"end":"1999-09-06T08:39:53-04:00","extension":[{"url":"https://bluebutton.cms.gov/assets/ig/StructureDefinition-bluebutton-inpatient-claim-query-cd-extension","valueCoding":{"code":"3","display":"Final Bill","system":"https://bluebutton.cms.gov/assets/ig/ValueSet-claim-query-cd"}}],"start":"1998-09-06T08:39:53-04:00"},"careTeam":[{"provider":{"identifier":{"system":"http://hl7.org/fhir/sid/us-npi","value":"99999999"}},"role":{"coding":[{"code":"primary","display":"Primary Care Practitioner","system":"http://hl7.org/fhir/claimcareteamrole"}]},"sequence":1}],"contained":[{"id":"coverage","resourceType":"Coverage","type":{"text":"private"}}],"extension":[{"url":"https://bluebutton.cms.gov/assets/ig/StructureDefinition-bluebutton-inpatient-ime-op-clm-val-amt-extension","valueMoney":{"code":"USD","system":"urn:iso:std:iso:4217","value":400}},{"url":"https://bluebutton.cms.gov/assets/ig/StructureDefinition-bluebutton-inpatient-dsh-op-clm-val-amt-extension","valueMoney":{"code":"USD","system":"urn:iso:std:iso:4217","value":0}},{"url":"https://bluebutton.cms.gov/assets/ig/StructureDefinition-bluebutton-inpatient-clm-pass-thru-per-diem-amt-extension","valueMoney":{"code":"USD","system":"urn:iso:std:iso:4217","value":0}},{"url":"https://bluebutton.cms.gov/assets/ig/StructureDefinition-bluebutton-inpatient-nch-profnl-cmpnt-chrg-amt-extension","valueMoney":{"code":"USD","system":"urn:iso:std:iso:4217","value":0}},{"url":"https://bluebutton.cms.gov/assets/ig/StructureDefinition-bluebutton-inpatient-clm-tot-pps-cptl-amt-extension","valueMoney":{"code":"USD","system":"urn:iso:std:iso:4217","value":0}},{"url":"https://bluebutton.cms.gov/assets/ig/StructureDefinition-bluebutton-inpatient-nch-bene-ip-ddctbl-amt-extension","valueMoney":{"code":"USD","system":"urn:iso:std:iso:4217","value":0}},{"url":"https://bluebutton.cms.gov/assets/ig/StructureDefinition-bluebutton-inpatient-nch-bene-pta-coinsrnc-lblty-amt-extension","valueMoney":{"code":"USD","system":"urn:iso:std:iso:4217","value":0}},{"url":"https://bluebutton.cms.gov/assets/ig/StructureDefinition-bluebutton-inpatient-nch-ip-ncvrd-chrg-amt-extension","valueMoney":{"code":"USD","system":"urn:iso:std:iso:4217","value":0}},{"url":"https://bluebutton.cms.gov/assets/ig/StructureDefinition-bluebutton-inpatient-nch-ip-tot-ddctn-amt-extension","valueMoney":{"code":"USD","system":"urn:iso:std:iso:4217","value":0}},{"url":"https://bluebutton.cms.gov/assets/ig/StructureDefinition-bluebutton-inpatient-clm-pps-cptl-dsprprtnt-shr-amt-extension","valueMoney":{"code":"USD","system":"urn:iso:std:iso:4217","value":0}},{"url":"https://bluebutton.cms.gov/assets/ig/StructureDefinition-bluebutton-inpatient-clm-pps-cptl-excptn-amt-extension","valueMoney":{"code":"USD","system":"urn:iso:std:iso:4217","value":0}},{"url":"https://bluebutton.cms.gov/assets/ig/StructureDefinition-bluebutton-inpatient-clm-pps-cptl-fsp-amt-extension","valueMoney":{"code":"USD","system":"urn:iso:std:iso:4217","value":0}},{"url":"https://bluebutton.cms.gov/assets/ig/StructureDefinition-bluebutton-inpatient-clm-pps-cptl-ime-amt-extension","valueMoney":{"code":"USD","system":"urn:iso:std:iso:4217","value":400}},{"url":"https://bluebutton.cms.gov/assets/ig/StructureDefinition-bluebutton-inpatient-clm-pps-cptl-outlier-amt-extension","valueMoney":{"code":"USD","system":"urn:iso:std:iso:4217","value":0}},{"url":"https://bluebutton.cms.gov/assets/ig/StructureDefinition-bluebutton-inpatient-clm-pps-old-cptl-hld-hrmls-amt-extension","valueMoney":{"code":"USD","system":"urn:iso:std:iso:4217","value":0}},{"url":"https://bluebutton.cms.gov/assets/ig/StructureDefinition-bluebutton-inpatient-nch-drg-outlier-aprvd-pmt-amt-extension","valueMoney":{"code":"USD","system":"urn:iso:std:iso:4217","value":0}},{"url":"https://bluebutton.cms.gov/assets/ig/StructureDefinition-bluebutton-inpatient-nch-bene-blood-ddctbl-lblty-am-extension","valueMoney":{"code":"USD","system":"urn:iso:std:iso:4217","value":0}},{"url":"https://bluebutton.cms.gov/assets/ig/StructureDefinition-bluebutton-inpatient-clm-mdcr-non-pmt-rsn-cd-extension","valueCoding":{"code":"N","display":"All other reasons for non-payment","system":"https://bluebutton.cms.gov/assets/ig/CodeSystem-clm-mdcr-non-pmt-rsn-cd"}},{"url":"https://bluebutton.cms.gov/assets/ig/StructureDefinition-bluebutton-inpatient-prpayamt-extension","valueMoney":{"code":"USD","system":"urn:iso:std:iso:4217","value":0}},{"url":"https://bluebutton.cms.gov/assets/ig/StructureDefinition-bluebutton-inpatient-fi-num-extension","valueIdentifier":{"system":"https://bluebutton.cms.gov/assets/ig/CodeSystem-fi-num","value":"002000"}}],"id":"36d7fa87-2355-4766-ab9e-9d2f227780e7","identifier":[{"system":"https://bluebutton.cms.gov/resources/variables/clm_id","value":"557f5dfb-2bca-4f31-9199-3bbf6fe6f37d"},{"system":"https://bluebutton.cms.gov/resources/identifier/claim-group","value":"99999999999"}],"insurance":{"coverage":{"reference":"#coverage"}},"item":[{"extension":[{"url":"https://bluebutton.cms.gov/assets/ig/StructureDefinition-bluebutton-inpatient-rev-cntr-ndc-qty-extension","valueQuantity":{"value":0}}],"locationCodeableConcept":{"coding":[{"code":"21","display":"Inpatient Hospital","system":"https://bluebutton.cms.gov/resources/variables/line_place_of_srvc_cd"}]},"sequence":1}],"meta":{"lastUpdated":"2019-04-09T11:38:30.281030+00:00","profile":["https://bluebutton.cms.gov/assets/ig/StructureDefinition-bluebutton-inpatient-claim"],"versionId":"MTU1NDgwOTkxMDI4MTAzMDAwMA"},"organization":{"identifier":{"value":"915f9f66-75d8-46c2-8da4-04b35046240b"}},"patient":{"reference":"Patient/00ba2d77-4512-45d0-b58c-82ee3161b00e"},"payment":{"amount":{"code":"USD","system":"urn:iso:std:iso:4217","value":0}},"provider":{"identifier":{"value":"ebd27f21-bb93-4416-bdf8-84490ae394cc"}},"resourceType":"ExplanationOfBenefit","status":"active","totalCost":{"code":"USD","system":"urn:iso:std:iso:4217","value":125},"type":{"coding":[{"code":"71","display":"Local carrier non-durable medical equipment, prosthetics, orthotics, and supplies (DMEPOS) claim","system":"https://bluebutton.cms.gov/resources/variables/nch_clm_type_cd"},{"code":"CARRIER","display":"EOB Type","system":"https://bluebutton.cms.gov/resources/codesystem/eob-type"},{"code":"professional","display":"Claim Type","system":"http://hl7.org/fhir/ex-claimtype"},{"code":"O","display":"Part B physician/supplier claim record (processed by local carriers; can include DMEPOS services)","system":"https://bluebutton.cms.gov/resources/variables/nch_near_line_rec_ident_cd"}]}}},{"resource":{"billablePeriod":{"end":"1998-09-06T08:39:53-04:00","extension":[{"url":"https://bluebutton.cms.gov/assets/ig/StructureDefinition-bluebutton-inpatient-claim-query-cd-extension","valueCoding":{"code":"3","display":"Final Bill","system":"https://bluebutton.cms.gov/assets/ig/ValueSet-claim-query-cd"}}],"start":"1997-09-06T08:39:53-04:00"},"careTeam":[{"provider":{"identifier":{"system":"http://hl7.org/fhir/sid/us-npi","value":"99999999"}},"role":{"coding":[{"code":"primary","display":"Primary Care Practitioner","system":"http://hl7.org/fhir/claimcareteamrole"}]},"sequence":1}],"contained":[{"id":"coverage","resourceType":"Coverage","type":{"text":"private"}}],"extension":[{"url":"https://bluebutton.cms.gov/assets/ig/StructureDefinition-bluebutton-inpatient-ime-op-clm-val-amt-extension","valueMoney":{"code":"USD","system":"urn:iso:std:iso:4217","value":400}},{"url":"https://bluebutton.cms.gov/assets/ig/StructureDefinition-bluebutton-inpatient-dsh-op-clm-val-amt-extension","valueMoney":{"code":"USD","system":"urn:iso:std:iso:4217","value":0}},{"url":"https://bluebutton.cms.gov/assets/ig/StructureDefinition-bluebutton-inpatient-clm-pass-thru-per-diem-amt-extension","valueMoney":{"code":"USD","system":"urn:iso:std:iso:4217","value":0}},{"url":"https://bluebutton.cms.gov/assets/ig/StructureDefinition-bluebutton-inpatient-nch-profnl-cmpnt-chrg-amt-extension","valueMoney":{"code":"USD","system":"urn:iso:std:iso:4217","value":0}},{"url":"https://bluebutton.cms.gov/assets/ig/StructureDefinition-bluebutton-inpatient-clm-tot-pps-cptl-amt-extension","valueMoney":{"code":"USD","system":"urn:iso:std:iso:4217","value":0}},{"url":"https://bluebutton.cms.gov/assets/ig/StructureDefinition-bluebutton-inpatient-nch-bene-ip-ddctbl-amt-extension","valueMoney":{"code":"USD","system":"urn:iso:std:iso:4217","value":0}},{"url":"https://bluebutton.cms.gov/assets/ig/StructureDefinition-bluebutton-inpatient-nch-bene-pta-coinsrnc-lblty-amt-extension","valueMoney":{"code":"USD","system":"urn:iso:std:iso:4217","value":0}},{"url":"https://bluebutton.cms.gov/assets/ig/StructureDefinition-bluebutton-inpatient-nch-ip-ncvrd-chrg-amt-extension","valueMoney":{"code":"USD","system":"urn:iso:std:iso:4217","value":0}},{"url":"https://bluebutton.cms.gov/assets/ig/StructureDefinition-bluebutton-inpatient-nch-ip-tot-ddctn-amt-extension","valueMoney":{"code":"USD","system":"urn:iso:std:iso:4217","value":0}},{"url":"https://bluebutton.cms.gov/assets/ig/StructureDefinition-bluebutton-inpatient-clm-pps-cptl-dsprprtnt-shr-amt-extension","valueMoney":{"code":"USD","system":"urn:iso:std:iso:4217","value":0}},{"url":"https://bluebutton.cms.gov/assets/ig/StructureDefinition-bluebutton-inpatient-clm-pps-cptl-excptn-amt-extension","valueMoney":{"code":"USD","system":"urn:iso:std:iso:4217","value":0}},{"url":"https://bluebutton.cms.gov/assets/ig/StructureDefinition-bluebutton-inpatient-clm-pps-cptl-fsp-amt-extension","valueMoney":{"code":"USD","system":"urn:iso:std:iso:4217","value":0}},{"url":"https://bluebutton.cms.gov/assets/ig/StructureDefinition-bluebutton-inpatient-clm-pps-cptl-ime-amt-extension","valueMoney":{"code":"USD","system":"urn:iso:std:iso:4217","value":400}},{"url":"https://bluebutton.cms.gov/assets/ig/StructureDefinition-bluebutton-inpatient-clm-pps-cptl-outlier-amt-extension","valueMoney":{"code":"USD","system":"urn:iso:std:iso:4217","value":0}},{"url":"https://bluebutton.cms.gov/assets/ig/StructureDefinition-bluebutton-inpatient-clm-pps-old-cptl-hld-hrmls-amt-extension","valueMoney":{"code":"USD","system":"urn:iso:std:iso:4217","value":0}},{"url":"https://bluebutton.cms.gov/assets/ig/StructureDefinition-bluebutton-inpatient-nch-drg-outlier-aprvd-pmt-amt-extension","valueMoney":{"code":"USD","system":"urn:iso:std:iso:4217","value":0}},{"url":"https://bluebutton.cms.gov/assets/ig/StructureDefinition-bluebutton-inpatient-nch-bene-blood-ddctbl-lblty-am-extension","valueMoney":{"code":"USD","system":"urn:iso:std:iso:4217","value":0}},{"url":"https://bluebutton.cms.gov/assets/ig/StructureDefinition-bluebutton-inpatient-clm-mdcr-non-pmt-rsn-cd-extension","valueCoding":{"code":"N","display":"All other reasons for non-payment","system":"https://bluebutton.cms.gov/assets/ig/CodeSystem-clm-mdcr-non-pmt-rsn-cd"}},{"url":"https://bluebutton.cms.gov/assets/ig/StructureDefinition-bluebutton-inpatient-prpayamt-extension","valueMoney":{"code":"USD","system":"urn:iso:std:iso:4217","value":0}},{"url":"https://bluebutton.cms.gov/assets/ig/StructureDefinition-bluebutton-inpatient-fi-num-extension","valueIdentifier":{"system":"https://bluebutton.cms.gov/assets/ig/CodeSystem-fi-num","value":"002000"}}],"id":"36e1ffde-78af-4443-b55e-1a74508cc9d1","identifier":[{"system":"https://bluebutton.cms.gov/resources/variables/clm_id","value":"eeb65fb8-8619-41e8-9e11-d68419daa589"},{"system":"https://bluebutton.cms.gov/resources/identifier/claim-group","value":"99999999999"}],"insurance":{"coverage":{"reference":"#coverage"}},"item":[{"extension":[{"url":"https://bluebutton.cms.gov/assets/ig/StructureDefinition-bluebutton-inpatient-rev-cntr-ndc-qty-extension","valueQuantity":{"value":0}}],"locationCodeableConcept":{"coding":[{"code":"21","display":"Inpatient Hospital","system":"https://bluebutton.cms.gov/resources/variables/line_place_of_srvc_cd"}]},"sequence":1}],"meta":{"lastUpdated":"2019-04-09T11:38:30.275871+00:00","profile":["https://bluebutton.cms.gov/assets/ig/StructureDefinition-bluebutton-inpatient-claim"],"versionId":"MTU1NDgwOTkxMDI3NTg3MTAwMA"},"organization":{"identifier":{"value":"915f9f66-75d8-46c2-8da4-04b35046240b"}},"patient":{"reference":"Patient/00ba2d77-4512-45d0-b58c-82ee3161b00e"},"payment":{"amount":{"code":"USD","system":"urn:iso:std:iso:4217","value":0}},"provider":{"identifier":{"value":"ebd27f21-bb93-4416-bdf8-84490ae394cc"}},"resourceType":"ExplanationOfBenefit","status":"active","totalCost":{"code":"USD","system":"urn:iso:std:iso:4217","value":125},"type":{"coding":[{"code":"71","display":"Local carrier non-durable medical equipment, prosthetics, orthotics, and supplies (DMEPOS) claim","system":"https://bluebutton.cms.gov/resources/variables/nch_clm_type_cd"},{"code":"CARRIER","display":"EOB Type","system":"https://bluebutton.cms.gov/resources/codesystem/eob-type"},{"code":"professional","display":"Claim Type","system":"http://hl7.org/fhir/ex-claimtype"},{"code":"O","display":"Part B physician/supplier claim record (processed by local carriers; can include DMEPOS services)","system":"https://bluebutton.cms.gov/resources/variables/nch_near_line_rec_ident_cd"}]}}},{"resource":{"billablePeriod":{"end":"2019-09-01T08:39:53-04:00","extension":[{"url":"https://bluebutton.cms.gov/assets/ig/StructureDefinition-bluebutton-inpatient-claim-query-cd-extension","valueCoding":{"code":"3","display":"Final Bill","system":"https://bluebutton.cms.gov/assets/ig/ValueSet-claim-query-cd"}}],"start":"2018-09-01T08:39:53-04:00"},"careTeam":[{"provider":{"identifier":{"system":"http://hl7.org/fhir/sid/us-npi","value":"99999999"}},"role":{"coding":[{"code":"primary","display":"Primary Care Practitioner","system":"http://hl7.org/fhir/claimcareteamrole"}]},"sequence":1}],"contained":[{"id":"coverage","resourceType":"Coverage","type":{"text":"medicare"}}],"extension":[{"url":"https://bluebutton.cms.gov/assets/ig/StructureDefinition-bluebutton-inpatient-ime-op-clm-val-amt-extension","valueMoney":{"code":"USD","system":"urn:iso:std:iso:4217","value":400}},{"url":"https://bluebutton.cms.gov/assets/ig/StructureDefinition-bluebutton-inpatient-dsh-op-clm-val-amt-extension","valueMoney":{"code":"USD","system":"urn:iso:std:iso:4217","value":0}},{"url":"https://bluebutton.cms.gov/assets/ig/StructureDefinition-bluebutton-inpatient-clm-pass-thru-per-diem-amt-extension","valueMoney":{"code":"USD","system":"urn:iso:std:iso:4217","value":0}},{"url":"https://bluebutton.cms.gov/assets/ig/StructureDefinition-bluebutton-inpatient-nch-profnl-cmpnt-chrg-amt-extension","valueMoney":{"code":"USD","system":"urn:iso:std:iso:4217","value":0}},{"url":"https://bluebutton.cms.gov/assets/ig/StructureDefinition-bluebutton-inpatient-clm-tot-pps-cptl-amt-extension","valueMoney":{"code":"USD","system":"urn:iso:std:iso:4217","value":0}},{"url":"https://bluebutton.cms.gov/assets/ig/StructureDefinition-bluebutton-inpatient-nch-bene-ip-ddctbl-amt-extension","valueMoney":{"code":"USD","system":"urn:iso:std:iso:4217","value":0}},{"url":"https://bluebutton.cms.gov/assets/ig/StructureDefinition-bluebutton-inpatient-nch-bene-pta-coinsrnc-lblty-amt-extension","valueMoney":{"code":"USD","system":"urn:iso:std:iso:4217","value":0}},{"url":"https://bluebutton.cms.gov/assets/ig/StructureDefinition-bluebutton-inpatient-nch-ip-ncvrd-chrg-amt-extension","valueMoney":{"code":"USD","system":"urn:iso:std:iso:4217","value":0}},{"url":"https://bluebutton.cms.gov/assets/ig/StructureDefinition-bluebutton-inpatient-nch-ip-tot-ddctn-amt-extension","valueMoney":{"code":"USD","system":"urn:iso:std:iso:4217","value":0}},{"url":"https://bluebutton.cms.gov/assets/ig/StructureDefinition-bluebutton-inpatient-clm-pps-cptl-dsprprtnt-shr-amt-extension","valueMoney":{"code":"USD","system":"urn:iso:std:iso:4217","value":0}},{"url":"https://bluebutton.cms.gov/assets/ig/StructureDefinition-bluebutton-inpatient-clm-pps-cptl-excptn-amt-extension","valueMoney":{"code":"USD","system":"urn:iso:std:iso:4217","value":0}},{"url":"https://bluebutton.cms.gov/assets/ig/StructureDefinition-bluebutton-inpatient-clm-pps-cptl-fsp-amt-extension","valueMoney":{"code":"USD","system":"urn:iso:std:iso:4217","value":0}},{"url":"https://bluebutton.cms.gov/assets/ig/StructureDefinition-bluebutton-inpatient-clm-pps-cptl-ime-amt-extension","valueMoney":{"code":"USD","system":"urn:iso:std:iso:4217","value":400}},{"url":"https://bluebutton.cms.gov/assets/ig/StructureDefinition-bluebutton-inpatient-clm-pps-cptl-outlier-amt-extension","valueMoney":{"code":"USD","system":"urn:iso:std:iso:4217","value":0}},{"url":"https://bluebutton.cms.gov/assets/ig/StructureDefinition-bluebutton-inpatient-clm-pps-old-cptl-hld-hrmls-amt-extension","valueMoney":{"code":"USD","system":"urn:iso:std:iso:4217","value":0}},{"url":"https://bluebutton.cms.gov/assets/ig/StructureDefinition-bluebutton-inpatient-nch-drg-outlier-aprvd-pmt-amt-extension","valueMoney":{"code":"USD","system":"urn:iso:std:iso:4217","value":0}},{"url":"https://bluebutton.cms.gov/assets/ig/StructureDefinition-bluebutton-inpatient-nch-bene-blood-ddctbl-lblty-am-extension","valueMoney":{"code":"USD","system":"urn:iso:std:iso:4217","value":0}},{"url":"https://bluebutton.cms.gov/assets/ig/StructureDefinition-bluebutton-inpatient-clm-mdcr-non-pmt-rsn-cd-extension","valueCoding":{"code":"N","display":"All other reasons for non-payment","system":"https://bluebutton.cms.gov/assets/ig/CodeSystem-clm-mdcr-non-pmt-rsn-cd"}},{"url":"https://bluebutton.cms.gov/assets/ig/StructureDefinition-bluebutton-inpatient-prpayamt-extension","valueMoney":{"code":"USD","system":"urn:iso:std:iso:4217","value":0}},{"url":"https://bluebutton.cms.gov/assets/ig/StructureDefinition-bluebutton-inpatient-fi-num-extension","valueIdentifier":{"system":"https://bluebutton.cms.gov/assets/ig/CodeSystem-fi-num","value":"002000"}}],"id":"3bf48309-1b92-495c-a9e1-226a2a786790","identifier":[{"system":"https://bluebutton.cms.gov/resources/variables/clm_id","value":"df8a52e8-dea9-4df9-8a07-bd6ef3be7479"},{"system":"https://bluebutton.cms.gov/resources/identifier/claim-group","value":"99999999999"}],"insurance":{"coverage":{"reference":"#coverage"}},"item":[{"extension":[{"url":"https://bluebutton.cms.gov/assets/ig/StructureDefinition-bluebutton-inpatient-rev-cntr-ndc-qty-extension","valueQuantity":{"value":0}}],"locationCodeableConcept":{"coding":[{"code":"21","display":"Inpatient Hospital","system":"https://bluebutton.cms.gov/resources/variables/line_place_of_srvc_cd"}]},"sequence":1}],"meta":{"lastUpdated":"2019-04-09T11:38:47.752412+00:00","profile":["https://bluebutton.cms.gov/assets/ig/StructureDefinition-bluebutton-inpatient-claim"],"versionId":"MTU1NDgwOTkyNzc1MjQxMjAwMA"},"organization":{"identifier":{"value":"915f9f66-75d8-46c2-8da4-04b35046240b"}},"patient":{"reference":"Patient/00ba2d77-4512-45d0-b58c-82ee3161b00e"},"payment":{"amount":{"code":"USD","system":"urn:iso:std:iso:4217","value":0}},"provider":{"identifier":{"value":"ebd27f21-bb93-4416-bdf8-84490ae394cc"}},"resourceType":"ExplanationOfBenefit","status":"active","totalCost":{"code":"USD","system":"urn:iso:std:iso:4217","value":125},"type":{"coding":[{"code":"71","display":"Local carrier non-durable medical equipment, prosthetics, orthotics, and supplies (DMEPOS) claim","system":"https://bluebutton.cms.gov/resources/variables/nch_clm_type_cd"},{"code":"CARRIER","display":"EOB Type","system":"https://bluebutton.cms.gov/resources/codesystem/eob-type"},{"code":"professional","display":"Claim Type","system":"http://hl7.org/fhir/ex-claimtype"},{"code":"O","display":"Part B physician/supplier claim record (processed by local carriers; can include DMEPOS services)","system":"https://bluebutton.cms.gov/resources/variables/nch_near_line_rec_ident_cd"}]}}},{"resource":{"billablePeriod":{"end":"1996-09-07T08:39:53-04:00","extension":[{"url":"https://bluebutton.cms.gov/assets/ig/StructureDefinition-bluebutton-inpatient-claim-query-cd-extension","valueCoding":{"code":"3","display":"Final Bill","system":"https://bluebutton.cms.gov/assets/ig/ValueSet-claim-query-cd"}}],"start":"1995-09-07T08:39:53-04:00"},"careTeam":[{"provider":{"identifier":{"system":"http://hl7.org/fhir/sid/us-npi","value":"99999999"}},"role":{"coding":[{"code":"primary","display":"Primary Care Practitioner","system":"http://hl7.org/fhir/claimcareteamrole"}]},"sequence":1}],"contained":[{"id":"coverage","resourceType":"Coverage","type":{"text":"private"}}],"extension":[{"url":"https://bluebutton.cms.gov/assets/ig/StructureDefinition-bluebutton-inpatient-ime-op-clm-val-amt-extension","valueMoney":{"code":"USD","system":"urn:iso:std:iso:4217","value":400}},{"url":"https://bluebutton.cms.gov/assets/ig/StructureDefinition-bluebutton-inpatient-dsh-op-clm-val-amt-extension","valueMoney":{"code":"USD","system":"urn:iso:std:iso:4217","value":0}},{"url":"https://bluebutton.cms.gov/assets/ig/StructureDefinition-bluebutton-inpatient-clm-pass-thru-per-diem-amt-extension","valueMoney":{"code":"USD","system":"urn:iso:std:iso:4217","value":0}},{"url":"https://bluebutton.cms.gov/assets/ig/StructureDefinition-bluebutton-inpatient-nch-profnl-cmpnt-chrg-amt-extension","valueMoney":{"code":"USD","system":"urn:iso:std:iso:4217","value":0}},{"url":"https://bluebutton.cms.gov/assets/ig/StructureDefinition-bluebutton-inpatient-clm-tot-pps-cptl-amt-extension","valueMoney":{"code":"USD","system":"urn:iso:std:iso:4217","value":0}},{"url":"https://bluebutton.cms.gov/assets/ig/StructureDefinition-bluebutton-inpatient-nch-bene-ip-ddctbl-amt-extension","valueMoney":{"code":"USD","system":"urn:iso:std:iso:4217","value":0}},{"url":"https://bluebutton.cms.gov/assets/ig/StructureDefinition-bluebutton-inpatient-nch-bene-pta-coinsrnc-lblty-amt-extension","valueMoney":{"code":"USD","system":"urn:iso:std:iso:4217","value":0}},{"url":"https://bluebutton.cms.gov/assets/ig/StructureDefinition-bluebutton-inpatient-nch-ip-ncvrd-chrg-amt-extension","valueMoney":{"code":"USD","system":"urn:iso:std:iso:4217","value":0}},{"url":"https://bluebutton.cms.gov/assets/ig/StructureDefinition-bluebutton-inpatient-nch-ip-tot-ddctn-amt-extension","valueMoney":{"code":"USD","system":"urn:iso:std:iso:4217","value":0}},{"url":"https://bluebutton.cms.gov/assets/ig/StructureDefinition-bluebutton-inpatient-clm-pps-cptl-dsprprtnt-shr-amt-extension","valueMoney":{"code":"USD","system":"urn:iso:std:iso:4217","value":0}},{"url":"https://bluebutton.cms.gov/assets/ig/StructureDefinition-bluebutton-inpatient-clm-pps-cptl-excptn-amt-extension","valueMoney":{"code":"USD","system":"urn:iso:std:iso:4217","value":0}},{"url":"https://bluebutton.cms.gov/assets/ig/StructureDefinition-bluebutton-inpatient-clm-pps-cptl-fsp-amt-extension","valueMoney":{"code":"USD","system":"urn:iso:std:iso:4217","value":0}},{"url":"https://bluebutton.cms.gov/assets/ig/StructureDefinition-bluebutton-inpatient-clm-pps-cptl-ime-amt-extension","valueMoney":{"code":"USD","system":"urn:iso:std:iso:4217","value":400}},{"url":"https://bluebutton.cms.gov/assets/ig/StructureDefinition-bluebutton-inpatient-clm-pps-cptl-outlier-amt-extension","valueMoney":{"code":"USD","system":"urn:iso:std:iso:4217","value":0}},{"url":"https://bluebutton.cms.gov/assets/ig/StructureDefinition-bluebutton-inpatient-clm-pps-old-cptl-hld-hrmls-amt-extension","valueMoney":{"code":"USD","system":"urn:iso:std:iso:4217","value":0}},{"url":"https://bluebutton.cms.gov/assets/ig/StructureDefinition-bluebutton-inpatient-nch-drg-outlier-aprvd-pmt-amt-extension","valueMoney":{"code":"USD","system":"urn:iso:std:iso:4217","value":0}},{"url":"https://bluebutton.cms.gov/assets/ig/StructureDefinition-bluebutton-inpatient-nch-bene-blood-ddctbl-lblty-am-extension","valueMoney":{"code":"USD","system":"urn:iso:std:iso:4217","value":0}},{"url":"https://bluebutton.cms.gov/assets/ig/StructureDefinition-bluebutton-inpatient-clm-mdcr-non-pmt-rsn-cd-extension","valueCoding":{"code":"N","display":"All other reasons for non-payment","system":"https://bluebutton.cms.gov/assets/ig/CodeSystem-clm-mdcr-non-pmt-rsn-cd"}},{"url":"https://bluebutton.cms.gov/assets/ig/StructureDefinition-bluebutton-inpatient-prpayamt-extension","valueMoney":{"code":"USD","system":"urn:iso:std:iso:4217","value":0}},{"url":"https://bluebutton.cms.gov/assets/ig/StructureDefinition-bluebutton-inpatient-fi-num-extension","valueIdentifier":{"system":"https://bluebutton.cms.gov/assets/ig/CodeSystem-fi-num","value":"002000"}}],"id":"406d0f2b-560c-401e-8f3d-797563b0c7b0","identifier":[{"system":"https://bluebutton.cms.gov/resources/variables/clm_id","value":"c58de7fe-c247-4fab-9e77-c7eddbcef7bd"},{"system":"https://bluebutton.cms.gov/resources/identifier/claim-group","value":"99999999999"}],"insurance":{"coverage":{"reference":"#coverage"}},"item":[{"extension":[{"url":"https://bluebutton.cms.gov/assets/ig/StructureDefinition-bluebutton-inpatient-rev-cntr-ndc-qty-extension","valueQuantity":{"value":0}}],"locationCodeableConcept":{"coding":[{"code":"21","display":"Inpatient Hospital","system":"https://bluebutton.cms.gov/resources/variables/line_place_of_srvc_cd"}]},"sequence":1}],"meta":{"lastUpdated":"2019-04-09T11:38:30.280250+00:00","profile":["https://bluebutton.cms.gov/assets/ig/StructureDefinition-bluebutton-inpatient-claim"],"versionId":"MTU1NDgwOTkxMDI4MDI1MDAwMA"},"organization":{"identifier":{"value":"915f9f66-75d8-46c2-8da4-04b35046240b"}},"patient":{"reference":"Patient/00ba2d77-4512-45d0-b58c-82ee3161b00e"},"payment":{"amount":{"code":"USD","system":"urn:iso:std:iso:4217","value":0}},"provider":{"identifier":{"value":"ebd27f21-bb93-4416-bdf8-84490ae394cc"}},"resourceType":"ExplanationOfBenefit","status":"active","totalCost":{"code":"USD","system":"urn:iso:std:iso:4217","value":125},"type":{"coding":[{"code":"71","display":"Local carrier non-durable medical equipment, prosthetics, orthotics, and supplies (DMEPOS) claim","system":"https://bluebutton.cms.gov/resources/variables/nch_clm_type_cd"},{"code":"CARRIER","display":"EOB Type","system":"https://bluebutton.cms.gov/resources/codesystem/eob-type"},{"code":"professional","display":"Claim Type","system":"http://hl7.org/fhir/ex-claimtype"},{"code":"O","display":"Part B physician/supplier claim record (processed by local carriers; can include DMEPOS services)","system":"https://bluebutton.cms.gov/resources/variables/nch_near_line_rec_ident_cd"}]}}},{"resource":{"billablePeriod":{"end":"2018-12-10T07:54:53-05:00","start":"2017-12-10T07:54:53-05:00"},"careTeam":[{"provider":{"identifier":{"system":"http://hl7.org/fhir/sid/us-npi","value":"99999999"}},"role":{"coding":[{"code":"primary","display":"Primary Care Practitioner","system":"http://hl7.org/fhir/claimcareteamrole"}]},"sequence":1}],"claim":{"reference":"Claim/992fbe9b-edf5-4136-b0fd-07aa00d70418"},"contained":[{"id":"1","intent":"order","recipient":[{"identifier":{"system":"http://hl7.org/fhir/sid/us-npi","value":"99999999"}}],"requester":{"agent":{"identifier":{"system":"http://hl7.org/fhir/sid/us-npi","value":"99999999"}}},"resourceType":"ReferralRequest","status":"completed","subject":{"reference":"Patient/00ba2d77-4512-45d0-b58c-82ee3161b00e"}},{"id":"coverage","resourceType":"Coverage","type":{"text":"medicare"}}],"created":"2017-12-10T07:54:53-05:00","id":"48438fe9-12bd-4b11-a153-dfca23c86378","identifier":[{"system":"https://bluebutton.cms.gov/resources/variables/clm_id","value":"992fbe9b-edf5-4136-b0fd-07aa00d70418"},{"system":"https://bluebutton.cms.gov/resources/identifier/claim-group","value":"99999999999"}],"insurance":{"coverage":{"reference":"#coverage"}},"item":[{"category":{"coding":[{"code":"1","display":"Medical care","system":"https://bluebutton.cms.gov/resources/variables/line_cms_type_srvc_cd"}]},"encounter":[{"reference":"Encounter/e9be45b5-7c71-4054-ad2e-5ff3cd35550d"}],"locationCodeableConcept":{"coding":[{"code":"21","display":"Inpatient Hospital","system":"https://bluebutton.cms.gov/resources/variables/line_place_of_srvc_cd"}]},"sequence":1,"servicedPeriod":{"end":"2017-12-10T07:54:53-05:00","start":"2017-12-10T07:24:53-05:00"}},{"adjudication":[{"amount":{"code":"USD","system":"urn:iso:std:iso:4217","value":28.104000000000003},"category":{"coding":[{"code":"https://bluebutton.cms.gov/resources/variables/line_coinsrnc_amt","display":"Line Beneficiary Coinsurance Amount","system":"https://bluebutton.cms.gov/resources/codesystem/adjudication"}]}},{"amount":{"code":"USD","system":"urn:iso:std:iso:4217","value":112.41600000000001},"category":{"coding":[{"code":"https://bluebutton.cms.gov/resources/variables/line_prvdr_pmt_amt","display":"Line Provider Payment Amount","system":"https://bluebutton.cms.gov/resources/codesystem/adjudication"}]}},{"amount":{"code":"USD","system":"urn:iso:std:iso:4217","value":140.52},"category":{"coding":[{"code":"https://bluebutton.cms.gov/resources/variables/line_sbmtd_chrg_amt","display":"Line Submitted Charge Amount","system":"https://bluebutton.cms.gov/resources/codesystem/adjudication"}]}},{"amount":{"code":"USD","system":"urn:iso:std:iso:4217","value":140.52},"category":{"coding":[{"code":"https://bluebutton.cms.gov/resources/variables/line_alowd_chrg_amt","display":"Line Allowed Charge Amount","system":"https://bluebutton.cms.gov/resources/codesystem/adjudication"}]}},{"amount":{"code":"USD","system":"urn:iso:std:iso:4217","value":0},"category":{"coding":[{"code":"https://bluebutton.cms.gov/resources/variables/line_bene_ptb_ddctbl_amt","display":"Line Beneficiary Part B Deductible Amount","system":"https://bluebutton.cms.gov/resources/codesystem/adjudication"}]}},{"category":{"coding":[{"code":"https://bluebutton.cms.gov/resources/variables/line_prcsg_ind_cd","display":"Line Processing Indicator Code","system":"https://bluebutton.cms.gov/resources/codesystem/adjudication"}]},"reason":{"coding":[{"code":"A","display":"Allowed","system":"https://bluebutton.cms.gov/resources/variables/line_prcsg_ind_cd"}]}}],"category":{"coding":[{"code":"1","display":"Medical care","system":"https://bluebutton.cms.gov/resources/variables/line_cms_type_srvc_cd"}]},"informationLinkId":[1],"locationCodeableConcept":{"coding":[{"code":"21","display":"Inpatient Hospital","system":"https://bluebutton.cms.gov/resources/variables/line_place_of_srvc_cd"}]},"net":{"code":"USD","system":"urn:iso:std:iso:4217","value":140.52},"sequence":2,"servicedPeriod":{"end":"2017-12-10T07:54:53-05:00","start":"2017-12-10T07:24:53-05:00"}},{"adjudication":[{"amount":{"code":"USD","system":"urn:iso:std:iso:4217","value":72.20800000000001},"category":{"coding":[{"code":"https://bluebutton.cms.gov/resources/variables/line_coinsrnc_amt","display":"Line Beneficiary Coinsurance Amount","system":"https://bluebutton.cms.gov/resources/codesystem/adjudication"}]}},{"amount":{"code":"USD","system":"urn:iso:std:iso:4217","value":288.83200000000005},"category":{"coding":[{"code":"https://bluebutton.cms.gov/resources/variables/line_prvdr_pmt_amt","display":"Line Provider Payment Amount","system":"https://bluebutton.cms.gov/resources/codesystem/adjudication"}]}},{"amount":{"code":"USD","system":"urn:iso:std:iso:4217","value":361.04},"category":{"coding":[{"code":"https://bluebutton.cms.gov/resources/variables/line_sbmtd_chrg_amt","display":"Line Submitted Charge Amount","system":"https://bluebutton.cms.gov/resources/codesystem/adjudication"}]}},{"amount":{"code":"USD","system":"urn:iso:std:iso:4217","value":361.04},"category":{"coding":[{"code":"https://bluebutton.cms.gov/resources/variables/line_alowd_chrg_amt","display":"Line Allowed Charge Amount","system":"https://bluebutton.cms.gov/resources/codesystem/adjudication"}]}},{"amount":{"code":"USD","system":"urn:iso:std:iso:4217","value":0},"category":{"coding":[{"code":"https://bluebutton.cms.gov/resources/variables/line_bene_ptb_ddctbl_amt","display":"Line Beneficiary Part B Deductible Amount","system":"https://bluebutton.cms.gov/resources/codesystem/adjudication"}]}},{"category":{"coding":[{"code":"https://bluebutton.cms.gov/resources/variables/line_prcsg_ind_cd","display":"Line Processing Indicator Code","system":"https://bluebutton.cms.gov/resources/codesystem/adjudication"}]},"reason":{"coding":[{"code":"A","display":"Allowed","system":"https://bluebutton.cms.gov/resources/variables/line_prcsg_ind_cd"}]}}],"category":{"coding":[{"code":"1","display":"Medical care","system":"https://bluebutton.cms.gov/resources/variables/line_cms_type_srvc_cd"}]},"locationCodeableConcept":{"coding":[{"code":"21","display":"Inpatient Hospital","system":"https://bluebutton.cms.gov/resources/variables/line_place_of_srvc_cd"}]},"net":{"code":"USD","system":"urn:iso:std:iso:4217","value":361.04},"sequence":3,"service":{"coding":[{"code":"428191000124101","system":"http://snomed.info/sct","version":"v1"}]},"servicedPeriod":{"end":"2017-12-10T07:54:53-05:00","start":"2017-12-10T07:24:53-05:00"}}],"meta":{"lastUpdated":"2019-04-09T11:38:46.689998+00:00","versionId":"MTU1NDgwOTkyNjY4OTk5ODAwMA"},"organization":{"identifier":{"value":"915f9f66-75d8-46c2-8da4-04b35046240b"}},"patient":{"reference":"Patient/00ba2d77-4512-45d0-b58c-82ee3161b00e"},"payment":{"amount":{"code":"USD","system":"urn:iso:std:iso:4217","value":401.24800000000005}},"provider":{"identifier":{"value":"ebd27f21-bb93-4416-bdf8-84490ae394cc"}},"referral":{"reference":"#1"},"resourceType":"ExplanationOfBenefit","status":"active","totalCost":{"code":"USD","system":"urn:iso:std:iso:4217","value":626.56},"type":{"coding":[{"code":"71","display":"Local carrier non-durable medical equipment, prosthetics, orthotics, and supplies (DMEPOS) claim","system":"https://bluebutton.cms.gov/resources/variables/nch_clm_type_cd"},{"code":"CARRIER","display":"EOB Type","system":"https://bluebutton.cms.gov/resources/codesystem/eob-type"},{"code":"professional","display":"Claim Type","system":"http://hl7.org/fhir/ex-claimtype"},{"code":"O","display":"Part B physician/supplier claim record (processed by local carriers; can include DMEPOS services)","system":"https://bluebutton.cms.gov/resources/variables/nch_near_line_rec_ident_cd"}]}}},{"resource":{"billablePeriod":{"end":"1995-09-07T08:39:53-04:00","extension":[{"url":"https://bluebutton.cms.gov/assets/ig/StructureDefinition-bluebutton-inpatient-claim-query-cd-extension","valueCoding":{"code":"3","display":"Final Bill","system":"https://bluebutton.cms.gov/assets/ig/ValueSet-claim-query-cd"}}],"start":"1994-09-07T08:39:53-04:00"},"careTeam":[{"provider":{"identifier":{"system":"http://hl7.org/fhir/sid/us-npi","value":"99999999"}},"role":{"coding":[{"code":"primary","display":"Primary Care Practitioner","system":"http://hl7.org/fhir/claimcareteamrole"}]},"sequence":1}],"contained":[{"id":"coverage","resourceType":"Coverage","type":{"text":"private"}}],"extension":[{"url":"https://bluebutton.cms.gov/assets/ig/StructureDefinition-bluebutton-inpatient-ime-op-clm-val-amt-extension","valueMoney":{"code":"USD","system":"urn:iso:std:iso:4217","value":400}},{"url":"https://bluebutton.cms.gov/assets/ig/StructureDefinition-bluebutton-inpatient-dsh-op-clm-val-amt-extension","valueMoney":{"code":"USD","system":"urn:iso:std:iso:4217","value":0}},{"url":"https://bluebutton.cms.gov/assets/ig/StructureDefinition-bluebutton-inpatient-clm-pass-thru-per-diem-amt-extension","valueMoney":{"code":"USD","system":"urn:iso:std:iso:4217","value":0}},{"url":"https://bluebutton.cms.gov/assets/ig/StructureDefinition-bluebutton-inpatient-nch-profnl-cmpnt-chrg-amt-extension","valueMoney":{"code":"USD","system":"urn:iso:std:iso:4217","value":0}},{"url":"https://bluebutton.cms.gov/assets/ig/StructureDefinition-bluebutton-inpatient-clm-tot-pps-cptl-amt-extension","valueMoney":{"code":"USD","system":"urn:iso:std:iso:4217","value":0}},{"url":"https://bluebutton.cms.gov/assets/ig/StructureDefinition-bluebutton-inpatient-nch-bene-ip-ddctbl-amt-extension","valueMoney":{"code":"USD","system":"urn:iso:std:iso:4217","value":0}},{"url":"https://bluebutton.cms.gov/assets/ig/StructureDefinition-bluebutton-inpatient-nch-bene-pta-coinsrnc-lblty-amt-extension","valueMoney":{"code":"USD","system":"urn:iso:std:iso:4217","value":0}},{"url":"https://bluebutton.cms.gov/assets/ig/StructureDefinition-bluebutton-inpatient-nch-ip-ncvrd-chrg-amt-extension","valueMoney":{"code":"USD","system":"urn:iso:std:iso:4217","value":0}},{"url":"https://bluebutton.cms.gov/assets/ig/StructureDefinition-bluebutton-inpatient-nch-ip-tot-ddctn-amt-extension","valueMoney":{"code":"USD","system":"urn:iso:std:iso:4217","value":0}},{"url":"https://bluebutton.cms.gov/assets/ig/StructureDefinition-bluebutton-inpatient-clm-pps-cptl-dsprprtnt-shr-amt-extension","valueMoney":{"code":"USD","system":"urn:iso:std:iso:4217","value":0}},{"url":"https://bluebutton.cms.gov/assets/ig/StructureDefinition-bluebutton-inpatient-clm-pps-cptl-excptn-amt-extension","valueMoney":{"code":"USD","system":"urn:iso:std:iso:4217","value":0}},{"url":"https://bluebutton.cms.gov/assets/ig/StructureDefinition-bluebutton-inpatient-clm-pps-cptl-fsp-amt-extension","valueMoney":{"code":"USD","system":"urn:iso:std:iso:4217","value":0}},{"url":"https://bluebutton.cms.gov/assets/ig/StructureDefinition-bluebutton-inpatient-clm-pps-cptl-ime-amt-extension","valueMoney":{"code":"USD","system":"urn:iso:std:iso:4217","value":400}},{"url":"https://bluebutton.cms.gov/assets/ig/StructureDefinition-bluebutton-inpatient-clm-pps-cptl-outlier-amt-extension","valueMoney":{"code":"USD","system":"urn:iso:std:iso:4217","value":0}},{"url":"https://bluebutton.cms.gov/assets/ig/StructureDefinition-bluebutton-inpatient-clm-pps-old-cptl-hld-hrmls-amt-extension","valueMoney":{"code":"USD","system":"urn:iso:std:iso:4217","value":0}},{"url":"https://bluebutton.cms.gov/assets/ig/StructureDefinition-bluebutton-inpatient-nch-drg-outlier-aprvd-pmt-amt-extension","valueMoney":{"code":"USD","system":"urn:iso:std:iso:4217","value":0}},{"url":"https://bluebutton.cms.gov/assets/ig/StructureDefinition-bluebutton-inpatient-nch-bene-blood-ddctbl-lblty-am-extension","valueMoney":{"code":"USD","system":"urn:iso:std:iso:4217","value":0}},{"url":"https://bluebutton.cms.gov/assets/ig/StructureDefinition-bluebutton-inpatient-clm-mdcr-non-pmt-rsn-cd-extension","valueCoding":{"code":"N","display":"All other reasons for non-payment","system":"https://bluebutton.cms.gov/assets/ig/CodeSystem-clm-mdcr-non-pmt-rsn-cd"}},{"url":"https://bluebutton.cms.gov/assets/ig/StructureDefinition-bluebutton-inpatient-prpayamt-extension","valueMoney":{"code":"USD","system":"urn:iso:std:iso:4217","value":0}},{"url":"https://bluebutton.cms.gov/assets/ig/StructureDefinition-bluebutton-inpatient-fi-num-extension","valueIdentifier":{"system":"https://bluebutton.cms.gov/assets/ig/CodeSystem-fi-num","value":"002000"}}],"id":"4abfa11c-f286-49f5-9ba0-98debe97e062","identifier":[{"system":"https://bluebutton.cms.gov/resources/variables/clm_id","value":"6c74744d-e519-4b73-9c80-d18e2357d631"},{"system":"https://bluebutton.cms.gov/resources/identifier/claim-group","value":"99999999999"}],"insurance":{"coverage":{"reference":"#coverage"}},"item":[{"extension":[{"url":"https://bluebutton.cms.gov/assets/ig/StructureDefinition-bluebutton-inpatient-rev-cntr-ndc-qty-extension","valueQuantity":{"value":0}}],"locationCodeableConcept":{"coding":[{"code":"21","display":"Inpatient Hospital","system":"https://bluebutton.cms.gov/resources/variables/line_place_of_srvc_cd"}]},"sequence":1}],"meta":{"lastUpdated":"2019-04-09T11:38:30.286464+00:00","profile":["https://bluebutton.cms.gov/assets/ig/StructureDefinition-bluebutton-inpatient-claim"],"versionId":"MTU1NDgwOTkxMDI4NjQ2NDAwMA"},"organization":{"identifier":{"value":"915f9f66-75d8-46c2-8da4-04b35046240b"}},"patient":{"reference":"Patient/00ba2d77-4512-45d0-b58c-82ee3161b00e"},"payment":{"amount":{"code":"USD","system":"urn:iso:std:iso:4217","value":0}},"provider":{"identifier":{"value":"ebd27f21-bb93-4416-bdf8-84490ae394cc"}},"resourceType":"ExplanationOfBenefit","status":"active","totalCost":{"code":"USD","system":"urn:iso:std:iso:4217","value":125},"type":{"coding":[{"code":"71","display":"Local carrier non-durable medical equipment, prosthetics, orthotics, and supplies (DMEPOS) claim","system":"https://bluebutton.cms.gov/resources/variables/nch_clm_type_cd"},{"code":"CARRIER","display":"EOB Type","system":"https://bluebutton.cms.gov/resources/codesystem/eob-type"},{"code":"professional","display":"Claim Type","system":"http://hl7.org/fhir/ex-claimtype"},{"code":"O","display":"Part B physician/supplier claim record (processed by local carriers; can include DMEPOS services)","system":"https://bluebutton.cms.gov/resources/variables/nch_near_line_rec_ident_cd"}]}}},{"resource":{"billablePeriod":{"end":"2009-09-03T08:39:53-04:00","extension":[{"url":"https://bluebutton.cms.gov/assets/ig/StructureDefinition-bluebutton-inpatient-claim-query-cd-extension","valueCoding":{"code":"3","display":"Final Bill","system":"https://bluebutton.cms.gov/assets/ig/ValueSet-claim-query-cd"}}],"start":"2008-09-03T08:39:53-04:00"},"careTeam":[{"provider":{"identifier":{"system":"http://hl7.org/fhir/sid/us-npi","value":"99999999"}},"role":{"coding":[{"code":"primary","display":"Primary Care Practitioner","system":"http://hl7.org/fhir/claimcareteamrole"}]},"sequence":1}],"contained":[{"id":"coverage","resourceType":"Coverage","type":{"text":"medicare"}}],"extension":[{"url":"https://bluebutton.cms.gov/assets/ig/StructureDefinition-bluebutton-inpatient-ime-op-clm-val-amt-extension","valueMoney":{"code":"USD","system":"urn:iso:std:iso:4217","value":400}},{"url":"https://bluebutton.cms.gov/assets/ig/StructureDefinition-bluebutton-inpatient-dsh-op-clm-val-amt-extension","valueMoney":{"code":"USD","system":"urn:iso:std:iso:4217","value":0}},{"url":"https://bluebutton.cms.gov/assets/ig/StructureDefinition-bluebutton-inpatient-clm-pass-thru-per-diem-amt-extension","valueMoney":{"code":"USD","system":"urn:iso:std:iso:4217","value":0}},{"url":"https://bluebutton.cms.gov/assets/ig/StructureDefinition-bluebutton-inpatient-nch-profnl-cmpnt-chrg-amt-extension","valueMoney":{"code":"USD","system":"urn:iso:std:iso:4217","value":0}},{"url":"https://bluebutton.cms.gov/assets/ig/StructureDefinition-bluebutton-inpatient-clm-tot-pps-cptl-amt-extension","valueMoney":{"code":"USD","system":"urn:iso:std:iso:4217","value":0}},{"url":"https://bluebutton.cms.gov/assets/ig/StructureDefinition-bluebutton-inpatient-nch-bene-ip-ddctbl-amt-extension","valueMoney":{"code":"USD","system":"urn:iso:std:iso:4217","value":0}},{"url":"https://bluebutton.cms.gov/assets/ig/StructureDefinition-bluebutton-inpatient-nch-bene-pta-coinsrnc-lblty-amt-extension","valueMoney":{"code":"USD","system":"urn:iso:std:iso:4217","value":0}},{"url":"https://bluebutton.cms.gov/assets/ig/StructureDefinition-bluebutton-inpatient-nch-ip-ncvrd-chrg-amt-extension","valueMoney":{"code":"USD","system":"urn:iso:std:iso:4217","value":0}},{"url":"https://bluebutton.cms.gov/assets/ig/StructureDefinition-bluebutton-inpatient-nch-ip-tot-ddctn-amt-extension","valueMoney":{"code":"USD","system":"urn:iso:std:iso:4217","value":0}},{"url":"https://bluebutton.cms.gov/assets/ig/StructureDefinition-bluebutton-inpatient-clm-pps-cptl-dsprprtnt-shr-amt-extension","valueMoney":{"code":"USD","system":"urn:iso:std:iso:4217","value":0}},{"url":"https://bluebutton.cms.gov/assets/ig/StructureDefinition-bluebutton-inpatient-clm-pps-cptl-excptn-amt-extension","valueMoney":{"code":"USD","system":"urn:iso:std:iso:4217","value":0}},{"url":"https://bluebutton.cms.gov/assets/ig/StructureDefinition-bluebutton-inpatient-clm-pps-cptl-fsp-amt-extension","valueMoney":{"code":"USD","system":"urn:iso:std:iso:4217","value":0}},{"url":"https://bluebutton.cms.gov/assets/ig/StructureDefinition-bluebutton-inpatient-clm-pps-cptl-ime-amt-extension","valueMoney":{"code":"USD","system":"urn:iso:std:iso:4217","value":400}},{"url":"https://bluebutton.cms.gov/assets/ig/StructureDefinition-bluebutton-inpatient-clm-pps-cptl-outlier-amt-extension","valueMoney":{"code":"USD","system":"urn:iso:std:iso:4217","value":0}},{"url":"https://bluebutton.cms.gov/assets/ig/StructureDefinition-bluebutton-inpatient-clm-pps-old-cptl-hld-hrmls-amt-extension","valueMoney":{"code":"USD","system":"urn:iso:std:iso:4217","value":0}},{"url":"https://bluebutton.cms.gov/assets/ig/StructureDefinition-bluebutton-inpatient-nch-drg-outlier-aprvd-pmt-amt-extension","valueMoney":{"code":"USD","system":"urn:iso:std:iso:4217","value":0}},{"url":"https://bluebutton.cms.gov/assets/ig/StructureDefinition-bluebutton-inpatient-nch-bene-blood-ddctbl-lblty-am-extension","valueMoney":{"code":"USD","system":"urn:iso:std:iso:4217","value":0}},{"url":"https://bluebutton.cms.gov/assets/ig/StructureDefinition-bluebutton-inpatient-clm-mdcr-non-pmt-rsn-cd-extension","valueCoding":{"code":"N","display":"All other reasons for non-payment","system":"https://bluebutton.cms.gov/assets/ig/CodeSystem-clm-mdcr-non-pmt-rsn-cd"}},{"url":"https://bluebutton.cms.gov/assets/ig/StructureDefinition-bluebutton-inpatient-prpayamt-extension","valueMoney":{"code":"USD","system":"urn:iso:std:iso:4217","value":0}},{"url":"https://bluebutton.cms.gov/assets/ig/StructureDefinition-bluebutton-inpatient-fi-num-extension","valueIdentifier":{"system":"https://bluebutton.cms.gov/assets/ig/CodeSystem-fi-num","value":"002000"}}],"id":"4b31ed54-1074-4ef3-8df2-5fe4b682f3d2","identifier":[{"system":"https://bluebutton.cms.gov/resources/variables/clm_id","value":"d62f9cd3-60d1-487a-adda-ad1a1ce1920f"},{"system":"https://bluebutton.cms.gov/resources/identifier/claim-group","value":"99999999999"}],"insurance":{"coverage":{"reference":"#coverage"}},"item":[{"extension":[{"url":"https://bluebutton.cms.gov/assets/ig/StructureDefinition-bluebutton-inpatient-rev-cntr-ndc-qty-extension","valueQuantity":{"value":0}}],"locationCodeableConcept":{"coding":[{"code":"21","display":"Inpatient Hospital","system":"https://bluebutton.cms.gov/resources/variables/line_place_of_srvc_cd"}]},"sequence":1}],"meta":{"lastUpdated":"2019-04-09T11:38:33.372693+00:00","profile":["https://bluebutton.cms.gov/assets/ig/StructureDefinition-bluebutton-inpatient-claim"],"versionId":"MTU1NDgwOTkxMzM3MjY5MzAwMA"},"organization":{"identifier":{"value":"915f9f66-75d8-46c2-8da4-04b35046240b"}},"patient":{"reference":"Patient/00ba2d77-4512-45d0-b58c-82ee3161b00e"},"payment":{"amount":{"code":"USD","system":"urn:iso:std:iso:4217","value":0}},"provider":{"identifier":{"value":"ebd27f21-bb93-4416-bdf8-84490ae394cc"}},"resourceType":"ExplanationOfBenefit","status":"active","totalCost":{"code":"USD","system":"urn:iso:std:iso:4217","value":125},"type":{"coding":[{"code":"71","display":"Local carrier non-durable medical equipment, prosthetics, orthotics, and supplies (DMEPOS) claim","system":"https://bluebutton.cms.gov/resources/variables/nch_clm_type_cd"},{"code":"CARRIER","display":"EOB Type","system":"https://bluebutton.cms.gov/resources/codesystem/eob-type"},{"code":"professional","display":"Claim Type","system":"http://hl7.org/fhir/ex-claimtype"},{"code":"O","display":"Part B physician/supplier claim record (processed by local carriers; can include DMEPOS services)","system":"https://bluebutton.cms.gov/resources/variables/nch_near_line_rec_ident_cd"}]}}},{"resource":{"billablePeriod":{"end":"2002-12-16T07:54:53-05:00","extension":[{"url":"https://bluebutton.cms.gov/assets/ig/StructureDefinition-bluebutton-inpatient-claim-query-cd-extension","valueCoding":{"code":"3","display":"Final Bill","system":"https://bluebutton.cms.gov/assets/ig/ValueSet-claim-query-cd"}}],"start":"2001-12-16T07:54:53-05:00"},"careTeam":[{"provider":{"identifier":{"system":"http://hl7.org/fhir/sid/us-npi","value":"99999999"}},"role":{"coding":[{"code":"primary","display":"Primary Care Practitioner","system":"http://hl7.org/fhir/claimcareteamrole"}]},"sequence":1}],"contained":[{"id":"coverage","resourceType":"Coverage","type":{"text":"medicare"}}],"extension":[{"url":"https://bluebutton.cms.gov/assets/ig/StructureDefinition-bluebutton-inpatient-ime-op-clm-val-amt-extension","valueMoney":{"code":"USD","system":"urn:iso:std:iso:4217","value":400}},{"url":"https://bluebutton.cms.gov/assets/ig/StructureDefinition-bluebutton-inpatient-dsh-op-clm-val-amt-extension","valueMoney":{"code":"USD","system":"urn:iso:std:iso:4217","value":0}},{"url":"https://bluebutton.cms.gov/assets/ig/StructureDefinition-bluebutton-inpatient-clm-pass-thru-per-diem-amt-extension","valueMoney":{"code":"USD","system":"urn:iso:std:iso:4217","value":0}},{"url":"https://bluebutton.cms.gov/assets/ig/StructureDefinition-bluebutton-inpatient-nch-profnl-cmpnt-chrg-amt-extension","valueMoney":{"code":"USD","system":"urn:iso:std:iso:4217","value":0}},{"url":"https://bluebutton.cms.gov/assets/ig/StructureDefinition-bluebutton-inpatient-clm-tot-pps-cptl-amt-extension","valueMoney":{"code":"USD","system":"urn:iso:std:iso:4217","value":0}},{"url":"https://bluebutton.cms.gov/assets/ig/StructureDefinition-bluebutton-inpatient-nch-bene-ip-ddctbl-amt-extension","valueMoney":{"code":"USD","system":"urn:iso:std:iso:4217","value":0}},{"url":"https://bluebutton.cms.gov/assets/ig/StructureDefinition-bluebutton-inpatient-nch-bene-pta-coinsrnc-lblty-amt-extension","valueMoney":{"code":"USD","system":"urn:iso:std:iso:4217","value":0}},{"url":"https://bluebutton.cms.gov/assets/ig/StructureDefinition-bluebutton-inpatient-nch-ip-ncvrd-chrg-amt-extension","valueMoney":{"code":"USD","system":"urn:iso:std:iso:4217","value":0}},{"url":"https://bluebutton.cms.gov/assets/ig/StructureDefinition-bluebutton-inpatient-nch-ip-tot-ddctn-amt-extension","valueMoney":{"code":"USD","system":"urn:iso:std:iso:4217","value":0}},{"url":"https://bluebutton.cms.gov/assets/ig/StructureDefinition-bluebutton-inpatient-clm-pps-cptl-dsprprtnt-shr-amt-extension","valueMoney":{"code":"USD","system":"urn:iso:std:iso:4217","value":0}},{"url":"https://bluebutton.cms.gov/assets/ig/StructureDefinition-bluebutton-inpatient-clm-pps-cptl-excptn-amt-extension","valueMoney":{"code":"USD","system":"urn:iso:std:iso:4217","value":0}},{"url":"https://bluebutton.cms.gov/assets/ig/StructureDefinition-bluebutton-inpatient-clm-pps-cptl-fsp-amt-extension","valueMoney":{"code":"USD","system":"urn:iso:std:iso:4217","value":0}},{"url":"https://bluebutton.cms.gov/assets/ig/StructureDefinition-bluebutton-inpatient-clm-pps-cptl-ime-amt-extension","valueMoney":{"code":"USD","system":"urn:iso:std:iso:4217","value":400}},{"url":"https://bluebutton.cms.gov/assets/ig/StructureDefinition-bluebutton-inpatient-clm-pps-cptl-outlier-amt-extension","valueMoney":{"code":"USD","system":"urn:iso:std:iso:4217","value":0}},{"url":"https://bluebutton.cms.gov/assets/ig/StructureDefinition-bluebutton-inpatient-clm-pps-old-cptl-hld-hrmls-amt-extension","valueMoney":{"code":"USD","system":"urn:iso:std:iso:4217","value":0}},{"url":"https://bluebutton.cms.gov/assets/ig/StructureDefinition-bluebutton-inpatient-nch-drg-outlier-aprvd-pmt-amt-extension","valueMoney":{"code":"USD","system":"urn:iso:std:iso:4217","value":0}},{"url":"https://bluebutton.cms.gov/assets/ig/StructureDefinition-bluebutton-inpatient-nch-bene-blood-ddctbl-lblty-am-extension","valueMoney":{"code":"USD","system":"urn:iso:std:iso:4217","value":0}},{"url":"https://bluebutton.cms.gov/assets/ig/StructureDefinition-bluebutton-inpatient-clm-mdcr-non-pmt-rsn-cd-extension","valueCoding":{"code":"N","display":"All other reasons for non-payment","system":"https://bluebutton.cms.gov/assets/ig/CodeSystem-clm-mdcr-non-pmt-rsn-cd"}},{"url":"https://bluebutton.cms.gov/assets/ig/StructureDefinition-bluebutton-inpatient-prpayamt-extension","valueMoney":{"code":"USD","system":"urn:iso:std:iso:4217","value":0}},{"url":"https://bluebutton.cms.gov/assets/ig/StructureDefinition-bluebutton-inpatient-fi-num-extension","valueIdentifier":{"system":"https://bluebutton.cms.gov/assets/ig/CodeSystem-fi-num","value":"002000"}}],"id":"518520d8-3c7f-42ce-b4b8-0c430f2a308e","identifier":[{"system":"https://bluebutton.cms.gov/resources/variables/clm_id","value":"24a5e26b-6343-400b-a753-d4dfb3e32e64"},{"system":"https://bluebutton.cms.gov/resources/identifier/claim-group","value":"99999999999"}],"insurance":{"coverage":{"reference":"#coverage"}},"item":[{"extension":[{"url":"https://bluebutton.cms.gov/assets/ig/StructureDefinition-bluebutton-inpatient-rev-cntr-ndc-qty-extension","valueQuantity":{"value":0}}],"locationCodeableConcept":{"coding":[{"code":"21","display":"Inpatient Hospital","system":"https://bluebutton.cms.gov/resources/variables/line_place_of_srvc_cd"}]},"sequence":1}],"meta":{"lastUpdated":"2019-04-09T11:38:31.319800+00:00","profile":["https://bluebutton.cms.gov/assets/ig/StructureDefinition-bluebutton-inpatient-claim"],"versionId":"MTU1NDgwOTkxMTMxOTgwMDAwMA"},"organization":{"identifier":{"value":"915f9f66-75d8-46c2-8da4-04b35046240b"}},"patient":{"reference":"Patient/00ba2d77-4512-45d0-b58c-82ee3161b00e"},"payment":{"amount":{"code":"USD","system":"urn:iso:std:iso:4217","value":0}},"provider":{"identifier":{"value":"ebd27f21-bb93-4416-bdf8-84490ae394cc"}},"resourceType":"ExplanationOfBenefit","status":"active","totalCost":{"code":"USD","system":"urn:iso:std:iso:4217","value":125},"type":{"coding":[{"code":"71","display":"Local carrier non-durable medical equipment, prosthetics, orthotics, and supplies (DMEPOS) claim","system":"https://bluebutton.cms.gov/resources/variables/nch_clm_type_cd"},{"code":"CARRIER","display":"EOB Type","system":"https://bluebutton.cms.gov/resources/codesystem/eob-type"},{"code":"professional","display":"Claim Type","system":"http://hl7.org/fhir/ex-claimtype"},{"code":"O","display":"Part B physician/supplier claim record (processed by local carriers; can include DMEPOS services)","system":"https://bluebutton.cms.gov/resources/variables/nch_near_line_rec_ident_cd"}]}}},{"resource":{"billablePeriod":{"end":"2015-11-16T07:54:53-05:00","start":"2014-11-16T07:54:53-05:00"},"careTeam":[{"provider":{"identifier":{"system":"http://hl7.org/fhir/sid/us-npi","value":"99999999"}},"role":{"coding":[{"code":"primary","display":"Primary Care Practitioner","system":"http://hl7.org/fhir/claimcareteamrole"}]},"sequence":1}],"claim":{"reference":"Claim/bc7123ef-e3b0-4258-9c87-1933c5c3c799"},"contained":[{"id":"1","intent":"order","recipient":[{"identifier":{"system":"http://hl7.org/fhir/sid/us-npi","value":"99999999"}}],"requester":{"agent":{"identifier":{"system":"http://hl7.org/fhir/sid/us-npi","value":"99999999"}}},"resourceType":"ReferralRequest","status":"completed","subject":{"reference":"Patient/00ba2d77-4512-45d0-b58c-82ee3161b00e"}},{"id":"coverage","resourceType":"Coverage","type":{"text":"medicare"}}],"created":"2014-11-16T07:54:53-05:00","id":"5211695b-5bca-4c77-a1f4-47d144087ec8","identifier":[{"system":"https://bluebutton.cms.gov/resources/variables/clm_id","value":"bc7123ef-e3b0-4258-9c87-1933c5c3c799"},{"system":"https://bluebutton.cms.gov/resources/identifier/claim-group","value":"99999999999"}],"insurance":{"coverage":{"reference":"#coverage"}},"item":[{"category":{"coding":[{"code":"1","display":"Medical care","system":"https://bluebutton.cms.gov/resources/variables/line_cms_type_srvc_cd"}]},"encounter":[{"reference":"Encounter/62615645-67d2-4d99-aa3c-9c8af4e1f21d"}],"locationCodeableConcept":{"coding":[{"code":"21","display":"Inpatient Hospital","system":"https://bluebutton.cms.gov/resources/variables/line_place_of_srvc_cd"}]},"sequence":1,"servicedPeriod":{"end":"2014-11-16T07:54:53-05:00","start":"2014-11-16T07:24:53-05:00"}},{"adjudication":[{"amount":{"code":"USD","system":"urn:iso:std:iso:4217","value":28.104000000000003},"category":{"coding":[{"code":"https://bluebutton.cms.gov/resources/variables/line_coinsrnc_amt","display":"Line Beneficiary Coinsurance Amount","system":"https://bluebutton.cms.gov/resources/codesystem/adjudication"}]}},{"amount":{"code":"USD","system":"urn:iso:std:iso:4217","value":112.41600000000001},"category":{"coding":[{"code":"https://bluebutton.cms.gov/resources/variables/line_prvdr_pmt_amt","display":"Line Provider Payment Amount","system":"https://bluebutton.cms.gov/resources/codesystem/adjudication"}]}},{"amount":{"code":"USD","system":"urn:iso:std:iso:4217","value":140.52},"category":{"coding":[{"code":"https://bluebutton.cms.gov/resources/variables/line_sbmtd_chrg_amt","display":"Line Submitted Charge Amount","system":"https://bluebutton.cms.gov/resources/codesystem/adjudication"}]}},{"amount":{"code":"USD","system":"urn:iso:std:iso:4217","value":140.52},"category":{"coding":[{"code":"https://bluebutton.cms.gov/resources/variables/line_alowd_chrg_amt","display":"Line Allowed Charge Amount","system":"https://bluebutton.cms.gov/resources/codesystem/adjudication"}]}},{"amount":{"code":"USD","system":"urn:iso:std:iso:4217","value":0},"category":{"coding":[{"code":"https://bluebutton.cms.gov/resources/variables/line_bene_ptb_ddctbl_amt","display":"Line Beneficiary Part B Deductible Amount","system":"https://bluebutton.cms.gov/resources/codesystem/adjudication"}]}},{"category":{"coding":[{"code":"https://bluebutton.cms.gov/resources/variables/line_prcsg_ind_cd","display":"Line Processing Indicator Code","system":"https://bluebutton.cms.gov/resources/codesystem/adjudication"}]},"reason":{"coding":[{"code":"A","display":"Allowed","system":"https://bluebutton.cms.gov/resources/variables/line_prcsg_ind_cd"}]}}],"category":{"coding":[{"code":"1","display":"Medical care","system":"https://bluebutton.cms.gov/resources/variables/line_cms_type_srvc_cd"}]},"informationLinkId":[1],"locationCodeableConcept":{"coding":[{"code":"21","display":"Inpatient Hospital","system":"https://bluebutton.cms.gov/resources/variables/line_place_of_srvc_cd"}]},"net":{"code":"USD","system":"urn:iso:std:iso:4217","value":140.52},"sequence":2,"servicedPeriod":{"end":"2014-11-16T07:54:53-05:00","start":"2014-11-16T07:24:53-05:00"}},{"adjudication":[{"amount":{"code":"USD","system":"urn:iso:std:iso:4217","value":98.774},"category":{"coding":[{"code":"https://bluebutton.cms.gov/resources/variables/line_coinsrnc_amt","display":"Line Beneficiary Coinsurance Amount","system":"https://bluebutton.cms.gov/resources/codesystem/adjudication"}]}},{"amount":{"code":"USD","system":"urn:iso:std:iso:4217","value":395.096},"category":{"coding":[{"code":"https://bluebutton.cms.gov/resources/variables/line_prvdr_pmt_amt","display":"Line Provider Payment Amount","system":"https://bluebutton.cms.gov/resources/codesystem/adjudication"}]}},{"amount":{"code":"USD","system":"urn:iso:std:iso:4217","value":493.87},"category":{"coding":[{"code":"https://bluebutton.cms.gov/resources/variables/line_sbmtd_chrg_amt","display":"Line Submitted Charge Amount","system":"https://bluebutton.cms.gov/resources/codesystem/adjudication"}]}},{"amount":{"code":"USD","system":"urn:iso:std:iso:4217","value":493.87},"category":{"coding":[{"code":"https://bluebutton.cms.gov/resources/variables/line_alowd_chrg_amt","display":"Line Allowed Charge Amount","system":"https://bluebutton.cms.gov/resources/codesystem/adjudication"}]}},{"amount":{"code":"USD","system":"urn:iso:std:iso:4217","value":0},"category":{"coding":[{"code":"https://bluebutton.cms.gov/resources/variables/line_bene_ptb_ddctbl_amt","display":"Line Beneficiary Part B Deductible Amount","system":"https://bluebutton.cms.gov/resources/codesystem/adjudication"}]}},{"category":{"coding":[{"code":"https://bluebutton.cms.gov/resources/variables/line_prcsg_ind_cd","display":"Line Processing Indicator Code","system":"https://bluebutton.cms.gov/resources/codesystem/adjudication"}]},"reason":{"coding":[{"code":"A","display":"Allowed","system":"https://bluebutton.cms.gov/resources/variables/line_prcsg_ind_cd"}]}}],"category":{"coding":[{"code":"1","display":"Medical care","system":"https://bluebutton.cms.gov/resources/variables/line_cms_type_srvc_cd"}]},"locationCodeableConcept":{"coding":[{"code":"21","display":"Inpatient Hospital","system":"https://bluebutton.cms.gov/resources/variables/line_place_of_srvc_cd"}]},"net":{"code":"USD","system":"urn:iso:std:iso:4217","value":493.87},"sequence":3,"service":{"coding":[{"code":"428191000124101","system":"http://snomed.info/sct","version":"v1"}]},"servicedPeriod":{"end":"2014-11-16T07:54:53-05:00","start":"2014-11-16T07:24:53-05:00"}}],"meta":{"lastUpdated":"2019-04-09T11:38:41.611180+00:00","versionId":"MTU1NDgwOTkyMTYxMTE4MDAwMA"},"organization":{"identifier":{"value":"915f9f66-75d8-46c2-8da4-04b35046240b"}},"patient":{"reference":"Patient/00ba2d77-4512-45d0-b58c-82ee3161b00e"},"payment":{"amount":{"code":"USD","system":"urn:iso:std:iso:4217","value":507.512}},"provider":{"identifier":{"value":"ebd27f21-bb93-4416-bdf8-84490ae394cc"}},"referral":{"reference":"#1"},"resourceType":"ExplanationOfBenefit","status":"active","totalCost":{"code":"USD","system":"urn:iso:std:iso:4217","value":759.39},"type":{"coding":[{"code":"71","display":"Local carrier non-durable medical equipment, prosthetics, orthotics, and supplies (DMEPOS) claim","system":"https://bluebutton.cms.gov/resources/variables/nch_clm_type_cd"},{"code":"CARRIER","display":"EOB Type","system":"https://bluebutton.cms.gov/resources/codesystem/eob-type"},{"code":"professional","display":"Claim Type","system":"http://hl7.org/fhir/ex-claimtype"},{"code":"O","display":"Part B physician/supplier claim record (processed by local carriers; can include DMEPOS services)","system":"https://bluebutton.cms.gov/resources/variables/nch_near_line_rec_ident_cd"}]}}},{"resource":{"billablePeriod":{"end":"2013-09-02T08:39:53-04:00","extension":[{"url":"https://bluebutton.cms.gov/assets/ig/StructureDefinition-bluebutton-inpatient-claim-query-cd-extension","valueCoding":{"code":"3","display":"Final Bill","system":"https://bluebutton.cms.gov/assets/ig/ValueSet-claim-query-cd"}}],"start":"2012-09-02T08:39:53-04:00"},"careTeam":[{"provider":{"identifier":{"system":"http://hl7.org/fhir/sid/us-npi","value":"99999999"}},"role":{"coding":[{"code":"primary","display":"Primary Care Practitioner","system":"http://hl7.org/fhir/claimcareteamrole"}]},"sequence":1}],"contained":[{"id":"coverage","resourceType":"Coverage","type":{"text":"medicare"}}],"extension":[{"url":"https://bluebutton.cms.gov/assets/ig/StructureDefinition-bluebutton-inpatient-ime-op-clm-val-amt-extension","valueMoney":{"code":"USD","system":"urn:iso:std:iso:4217","value":400}},{"url":"https://bluebutton.cms.gov/assets/ig/StructureDefinition-bluebutton-inpatient-dsh-op-clm-val-amt-extension","valueMoney":{"code":"USD","system":"urn:iso:std:iso:4217","value":0}},{"url":"https://bluebutton.cms.gov/assets/ig/StructureDefinition-bluebutton-inpatient-clm-pass-thru-per-diem-amt-extension","valueMoney":{"code":"USD","system":"urn:iso:std:iso:4217","value":0}},{"url":"https://bluebutton.cms.gov/assets/ig/StructureDefinition-bluebutton-inpatient-nch-profnl-cmpnt-chrg-amt-extension","valueMoney":{"code":"USD","system":"urn:iso:std:iso:4217","value":0}},{"url":"https://bluebutton.cms.gov/assets/ig/StructureDefinition-bluebutton-inpatient-clm-tot-pps-cptl-amt-extension","valueMoney":{"code":"USD","system":"urn:iso:std:iso:4217","value":0}},{"url":"https://bluebutton.cms.gov/assets/ig/StructureDefinition-bluebutton-inpatient-nch-bene-ip-ddctbl-amt-extension","valueMoney":{"code":"USD","system":"urn:iso:std:iso:4217","value":0}},{"url":"https://bluebutton.cms.gov/assets/ig/StructureDefinition-bluebutton-inpatient-nch-bene-pta-coinsrnc-lblty-amt-extension","valueMoney":{"code":"USD","system":"urn:iso:std:iso:4217","value":0}},{"url":"https://bluebutton.cms.gov/assets/ig/StructureDefinition-bluebutton-inpatient-nch-ip-ncvrd-chrg-amt-extension","valueMoney":{"code":"USD","system":"urn:iso:std:iso:4217","value":0}},{"url":"https://bluebutton.cms.gov/assets/ig/StructureDefinition-bluebutton-inpatient-nch-ip-tot-ddctn-amt-extension","valueMoney":{"code":"USD","system":"urn:iso:std:iso:4217","value":0}},{"url":"https://bluebutton.cms.gov/assets/ig/StructureDefinition-bluebutton-inpatient-clm-pps-cptl-dsprprtnt-shr-amt-extension","valueMoney":{"code":"USD","system":"urn:iso:std:iso:4217","value":0}},{"url":"https://bluebutton.cms.gov/assets/ig/StructureDefinition-bluebutton-inpatient-clm-pps-cptl-excptn-amt-extension","valueMoney":{"code":"USD","system":"urn:iso:std:iso:4217","value":0}},{"url":"https://bluebutton.cms.gov/assets/ig/StructureDefinition-bluebutton-inpatient-clm-pps-cptl-fsp-amt-extension","valueMoney":{"code":"USD","system":"urn:iso:std:iso:4217","value":0}},{"url":"https://bluebutton.cms.gov/assets/ig/StructureDefinition-bluebutton-inpatient-clm-pps-cptl-ime-amt-extension","valueMoney":{"code":"USD","system":"urn:iso:std:iso:4217","value":400}},{"url":"https://bluebutton.cms.gov/assets/ig/StructureDefinition-bluebutton-inpatient-clm-pps-cptl-outlier-amt-extension","valueMoney":{"code":"USD","system":"urn:iso:std:iso:4217","value":0}},{"url":"https://bluebutton.cms.gov/assets/ig/StructureDefinition-bluebutton-inpatient-clm-pps-old-cptl-hld-hrmls-amt-extension","valueMoney":{"code":"USD","system":"urn:iso:std:iso:4217","value":0}},{"url":"https://bluebutton.cms.gov/assets/ig/StructureDefinition-bluebutton-inpatient-nch-drg-outlier-aprvd-pmt-amt-extension","valueMoney":{"code":"USD","system":"urn:iso:std:iso:4217","value":0}},{"url":"https://bluebutton.cms.gov/assets/ig/StructureDefinition-bluebutton-inpatient-nch-bene-blood-ddctbl-lblty-am-extension","valueMoney":{"code":"USD","system":"urn:iso:std:iso:4217","value":0}},{"url":"https://bluebutton.cms.gov/assets/ig/StructureDefinition-bluebutton-inpatient-clm-mdcr-non-pmt-rsn-cd-extension","valueCoding":{"code":"N","display":"All other reasons for non-payment","system":"https://bluebutton.cms.gov/assets/ig/CodeSystem-clm-mdcr-non-pmt-rsn-cd"}},{"url":"https://bluebutton.cms.gov/assets/ig/StructureDefinition-bluebutton-inpatient-prpayamt-extension","valueMoney":{"code":"USD","system":"urn:iso:std:iso:4217","value":0}},{"url":"https://bluebutton.cms.gov/assets/ig/StructureDefinition-bluebutton-inpatient-fi-num-extension","valueIdentifier":{"system":"https://bluebutton.cms.gov/assets/ig/CodeSystem-fi-num","value":"002000"}}],"id":"58804d54-13f1-435c-bfc0-c48401f91b25","identifier":[{"system":"https://bluebutton.cms.gov/resources/variables/clm_id","value":"3b90db33-3b48-4f77-b9d6-2abe5780f93d"},{"system":"https://bluebutton.cms.gov/resources/identifier/claim-group","value":"99999999999"}],"insurance":{"coverage":{"reference":"#coverage"}},"item":[{"extension":[{"url":"https://bluebutton.cms.gov/assets/ig/StructureDefinition-bluebutton-inpatient-rev-cntr-ndc-qty-extension","valueQuantity":{"value":0}}],"locationCodeableConcept":{"coding":[{"code":"21","display":"Inpatient Hospital","system":"https://bluebutton.cms.gov/resources/variables/line_place_of_srvc_cd"}]},"sequence":1}],"meta":{"lastUpdated":"2019-04-09T11:38:37.444321+00:00","profile":["https://bluebutton.cms.gov/assets/ig/StructureDefinition-bluebutton-inpatient-claim"],"versionId":"MTU1NDgwOTkxNzQ0NDMyMTAwMA"},"organization":{"identifier":{"value":"915f9f66-75d8-46c2-8da4-04b35046240b"}},"patient":{"reference":"Patient/00ba2d77-4512-45d0-b58c-82ee3161b00e"},"payment":{"amount":{"code":"USD","system":"urn:iso:std:iso:4217","value":0}},"provider":{"identifier":{"value":"ebd27f21-bb93-4416-bdf8-84490ae394cc"}},"resourceType":"ExplanationOfBenefit","status":"active","totalCost":{"code":"USD","system":"urn:iso:std:iso:4217","value":125},"type":{"coding":[{"code":"71","display":"Local carrier non-durable medical equipment, prosthetics, orthotics, and supplies (DMEPOS) claim","system":"https://bluebutton.cms.gov/resources/variables/nch_clm_type_cd"},{"code":"CARRIER","display":"EOB Type","system":"https://bluebutton.cms.gov/resources/codesystem/eob-type"},{"code":"professional","display":"Claim Type","system":"http://hl7.org/fhir/ex-claimtype"},{"code":"O","display":"Part B physician/supplier claim record (processed by local carriers; can include DMEPOS services)","system":"https://bluebutton.cms.gov/resources/variables/nch_near_line_rec_ident_cd"}]}}},{"resource":{"billablePeriod":{"end":"2001-09-05T08:39:53-04:00","extension":[{"url":"https://bluebutton.cms.gov/assets/ig/StructureDefinition-bluebutton-inpatient-claim-query-cd-extension","valueCoding":{"code":"3","display":"Final Bill","system":"https://bluebutton.cms.gov/assets/ig/ValueSet-claim-query-cd"}}],"start":"2000-09-05T08:39:53-04:00"},"careTeam":[{"provider":{"identifier":{"system":"http://hl7.org/fhir/sid/us-npi","value":"99999999"}},"role":{"coding":[{"code":"primary","display":"Primary Care Practitioner","system":"http://hl7.org/fhir/claimcareteamrole"}]},"sequence":1}],"contained":[{"id":"coverage","resourceType":"Coverage","type":{"text":"medicare"}}],"extension":[{"url":"https://bluebutton.cms.gov/assets/ig/StructureDefinition-bluebutton-inpatient-ime-op-clm-val-amt-extension","valueMoney":{"code":"USD","system":"urn:iso:std:iso:4217","value":400}},{"url":"https://bluebutton.cms.gov/assets/ig/StructureDefinition-bluebutton-inpatient-dsh-op-clm-val-amt-extension","valueMoney":{"code":"USD","system":"urn:iso:std:iso:4217","value":0}},{"url":"https://bluebutton.cms.gov/assets/ig/StructureDefinition-bluebutton-inpatient-clm-pass-thru-per-diem-amt-extension","valueMoney":{"code":"USD","system":"urn:iso:std:iso:4217","value":0}},{"url":"https://bluebutton.cms.gov/assets/ig/StructureDefinition-bluebutton-inpatient-nch-profnl-cmpnt-chrg-amt-extension","valueMoney":{"code":"USD","system":"urn:iso:std:iso:4217","value":0}},{"url":"https://bluebutton.cms.gov/assets/ig/StructureDefinition-bluebutton-inpatient-clm-tot-pps-cptl-amt-extension","valueMoney":{"code":"USD","system":"urn:iso:std:iso:4217","value":0}},{"url":"https://bluebutton.cms.gov/assets/ig/StructureDefinition-bluebutton-inpatient-nch-bene-ip-ddctbl-amt-extension","valueMoney":{"code":"USD","system":"urn:iso:std:iso:4217","value":0}},{"url":"https://bluebutton.cms.gov/assets/ig/StructureDefinition-bluebutton-inpatient-nch-bene-pta-coinsrnc-lblty-amt-extension","valueMoney":{"code":"USD","system":"urn:iso:std:iso:4217","value":0}},{"url":"https://bluebutton.cms.gov/assets/ig/StructureDefinition-bluebutton-inpatient-nch-ip-ncvrd-chrg-amt-extension","valueMoney":{"code":"USD","system":"urn:iso:std:iso:4217","value":0}},{"url":"https://bluebutton.cms.gov/assets/ig/StructureDefinition-bluebutton-inpatient-nch-ip-tot-ddctn-amt-extension","valueMoney":{"code":"USD","system":"urn:iso:std:iso:4217","value":0}},{"url":"https://bluebutton.cms.gov/assets/ig/StructureDefinition-bluebutton-inpatient-clm-pps-cptl-dsprprtnt-shr-amt-extension","valueMoney":{"code":"USD","system":"urn:iso:std:iso:4217","value":0}},{"url":"https://bluebutton.cms.gov/assets/ig/StructureDefinition-bluebutton-inpatient-clm-pps-cptl-excptn-amt-extension","valueMoney":{"code":"USD","system":"urn:iso:std:iso:4217","value":0}},{"url":"https://bluebutton.cms.gov/assets/ig/StructureDefinition-bluebutton-inpatient-clm-pps-cptl-fsp-amt-extension","valueMoney":{"code":"USD","system":"urn:iso:std:iso:4217","value":0}},{"url":"https://bluebutton.cms.gov/assets/ig/StructureDefinition-bluebutton-inpatient-clm-pps-cptl-ime-amt-extension","valueMoney":{"code":"USD","system":"urn:iso:std:iso:4217","value":400}},{"url":"https://bluebutton.cms.gov/assets/ig/StructureDefinition-bluebutton-inpatient-clm-pps-cptl-outlier-amt-extension","valueMoney":{"code":"USD","system":"urn:iso:std:iso:4217","value":0}},{"url":"https://bluebutton.cms.gov/assets/ig/StructureDefinition-bluebutton-inpatient-clm-pps-old-cptl-hld-hrmls-amt-extension","valueMoney":{"code":"USD","system":"urn:iso:std:iso:4217","value":0}},{"url":"https://bluebutton.cms.gov/assets/ig/StructureDefinition-bluebutton-inpatient-nch-drg-outlier-aprvd-pmt-amt-extension","valueMoney":{"code":"USD","system":"urn:iso:std:iso:4217","value":0}},{"url":"https://bluebutton.cms.gov/assets/ig/StructureDefinition-bluebutton-inpatient-nch-bene-blood-ddctbl-lblty-am-extension","valueMoney":{"code":"USD","system":"urn:iso:std:iso:4217","value":0}},{"url":"https://bluebutton.cms.gov/assets/ig/StructureDefinition-bluebutton-inpatient-clm-mdcr-non-pmt-rsn-cd-extension","valueCoding":{"code":"N","display":"All other reasons for non-payment","system":"https://bluebutton.cms.gov/assets/ig/CodeSystem-clm-mdcr-non-pmt-rsn-cd"}},{"url":"https://bluebutton.cms.gov/assets/ig/StructureDefinition-bluebutton-inpatient-prpayamt-extension","valueMoney":{"code":"USD","system":"urn:iso:std:iso:4217","value":0}},{"url":"https://bluebutton.cms.gov/assets/ig/StructureDefinition-bluebutton-inpatient-fi-num-extension","valueIdentifier":{"system":"https://bluebutton.cms.gov/assets/ig/CodeSystem-fi-num","value":"002000"}}],"id":"5d72ad63-21f0-432f-ab10-4182aaf3d8d8","identifier":[{"system":"https://bluebutton.cms.gov/resources/variables/clm_id","value":"722b5ae3-fabd-42b8-a921-5fc440a83c6d"},{"system":"https://bluebutton.cms.gov/resources/identifier/claim-group","value":"99999999999"}],"insurance":{"coverage":{"reference":"#coverage"}},"item":[{"extension":[{"url":"https://bluebutton.cms.gov/assets/ig/StructureDefinition-bluebutton-inpatient-rev-cntr-ndc-qty-extension","valueQuantity":{"value":0}}],"locationCodeableConcept":{"coding":[{"code":"21","display":"Inpatient Hospital","system":"https://bluebutton.cms.gov/resources/variables/line_place_of_srvc_cd"}]},"sequence":1}],"meta":{"lastUpdated":"2019-04-09T11:38:31.313421+00:00","profile":["https://bluebutton.cms.gov/assets/ig/StructureDefinition-bluebutton-inpatient-claim"],"versionId":"MTU1NDgwOTkxMTMxMzQyMTAwMA"},"organization":{"identifier":{"value":"915f9f66-75d8-46c2-8da4-04b35046240b"}},"patient":{"reference":"Patient/00ba2d77-4512-45d0-b58c-82ee3161b00e"},"payment":{"amount":{"code":"USD","system":"urn:iso:std:iso:4217","value":0}},"provider":{"identifier":{"value":"ebd27f21-bb93-4416-bdf8-84490ae394cc"}},"resourceType":"ExplanationOfBenefit","status":"active","totalCost":{"code":"USD","system":"urn:iso:std:iso:4217","value":125},"type":{"coding":[{"code":"71","display":"Local carrier non-durable medical equipment, prosthetics, orthotics, and supplies (DMEPOS) claim","system":"https://bluebutton.cms.gov/resources/variables/nch_clm_type_cd"},{"code":"CARRIER","display":"EOB Type","system":"https://bluebutton.cms.gov/resources/codesystem/eob-type"},{"code":"professional","display":"Claim Type","system":"http://hl7.org/fhir/ex-claimtype"},{"code":"O","display":"Part B physician/supplier claim record (processed by local carriers; can include DMEPOS services)","system":"https://bluebutton.cms.gov/resources/variables/nch_near_line_rec_ident_cd"}]}}},{"resource":{"billablePeriod":{"end":"2003-09-05T08:39:53-04:00","extension":[{"url":"https://bluebutton.cms.gov/assets/ig/StructureDefinition-bluebutton-inpatient-claim-query-cd-extension","valueCoding":{"code":"3","display":"Final Bill","system":"https://bluebutton.cms.gov/assets/ig/ValueSet-claim-query-cd"}}],"start":"2002-09-05T08:39:53-04:00"},"careTeam":[{"provider":{"identifier":{"system":"http://hl7.org/fhir/sid/us-npi","value":"99999999"}},"role":{"coding":[{"code":"primary","display":"Primary Care Practitioner","system":"http://hl7.org/fhir/claimcareteamrole"}]},"sequence":1}],"contained":[{"id":"coverage","resourceType":"Coverage","type":{"text":"medicare"}}],"extension":[{"url":"https://bluebutton.cms.gov/assets/ig/StructureDefinition-bluebutton-inpatient-ime-op-clm-val-amt-extension","valueMoney":{"code":"USD","system":"urn:iso:std:iso:4217","value":400}},{"url":"https://bluebutton.cms.gov/assets/ig/StructureDefinition-bluebutton-inpatient-dsh-op-clm-val-amt-extension","valueMoney":{"code":"USD","system":"urn:iso:std:iso:4217","value":0}},{"url":"https://bluebutton.cms.gov/assets/ig/StructureDefinition-bluebutton-inpatient-clm-pass-thru-per-diem-amt-extension","valueMoney":{"code":"USD","system":"urn:iso:std:iso:4217","value":0}},{"url":"https://bluebutton.cms.gov/assets/ig/StructureDefinition-bluebutton-inpatient-nch-profnl-cmpnt-chrg-amt-extension","valueMoney":{"code":"USD","system":"urn:iso:std:iso:4217","value":0}},{"url":"https://bluebutton.cms.gov/assets/ig/StructureDefinition-bluebutton-inpatient-clm-tot-pps-cptl-amt-extension","valueMoney":{"code":"USD","system":"urn:iso:std:iso:4217","value":0}},{"url":"https://bluebutton.cms.gov/assets/ig/StructureDefinition-bluebutton-inpatient-nch-bene-ip-ddctbl-amt-extension","valueMoney":{"code":"USD","system":"urn:iso:std:iso:4217","value":0}},{"url":"https://bluebutton.cms.gov/assets/ig/StructureDefinition-bluebutton-inpatient-nch-bene-pta-coinsrnc-lblty-amt-extension","valueMoney":{"code":"USD","system":"urn:iso:std:iso:4217","value":0}},{"url":"https://bluebutton.cms.gov/assets/ig/StructureDefinition-bluebutton-inpatient-nch-ip-ncvrd-chrg-amt-extension","valueMoney":{"code":"USD","system":"urn:iso:std:iso:4217","value":0}},{"url":"https://bluebutton.cms.gov/assets/ig/StructureDefinition-bluebutton-inpatient-nch-ip-tot-ddctn-amt-extension","valueMoney":{"code":"USD","system":"urn:iso:std:iso:4217","value":0}},{"url":"https://bluebutton.cms.gov/assets/ig/StructureDefinition-bluebutton-inpatient-clm-pps-cptl-dsprprtnt-shr-amt-extension","valueMoney":{"code":"USD","system":"urn:iso:std:iso:4217","value":0}},{"url":"https://bluebutton.cms.gov/assets/ig/StructureDefinition-bluebutton-inpatient-clm-pps-cptl-excptn-amt-extension","valueMoney":{"code":"USD","system":"urn:iso:std:iso:4217","value":0}},{"url":"https://bluebutton.cms.gov/assets/ig/StructureDefinition-bluebutton-inpatient-clm-pps-cptl-fsp-amt-extension","valueMoney":{"code":"USD","system":"urn:iso:std:iso:4217","value":0}},{"url":"https://bluebutton.cms.gov/assets/ig/StructureDefinition-bluebutton-inpatient-clm-pps-cptl-ime-amt-extension","valueMoney":{"code":"USD","system":"urn:iso:std:iso:4217","value":400}},{"url":"https://bluebutton.cms.gov/assets/ig/StructureDefinition-bluebutton-inpatient-clm-pps-cptl-outlier-amt-extension","valueMoney":{"code":"USD","system":"urn:iso:std:iso:4217","value":0}},{"url":"https://bluebutton.cms.gov/assets/ig/StructureDefinition-bluebutton-inpatient-clm-pps-old-cptl-hld-hrmls-amt-extension","valueMoney":{"code":"USD","system":"urn:iso:std:iso:4217","value":0}},{"url":"https://bluebutton.cms.gov/assets/ig/StructureDefinition-bluebutton-inpatient-nch-drg-outlier-aprvd-pmt-amt-extension","valueMoney":{"code":"USD","system":"urn:iso:std:iso:4217","value":0}},{"url":"https://bluebutton.cms.gov/assets/ig/StructureDefinition-bluebutton-inpatient-nch-bene-blood-ddctbl-lblty-am-extension","valueMoney":{"code":"USD","system":"urn:iso:std:iso:4217","value":0}},{"url":"https://bluebutton.cms.gov/assets/ig/StructureDefinition-bluebutton-inpatient-clm-mdcr-non-pmt-rsn-cd-extension","valueCoding":{"code":"N","display":"All other reasons for non-payment","system":"https://bluebutton.cms.gov/assets/ig/CodeSystem-clm-mdcr-non-pmt-rsn-cd"}},{"url":"https://bluebutton.cms.gov/assets/ig/StructureDefinition-bluebutton-inpatient-prpayamt-extension","valueMoney":{"code":"USD","system":"urn:iso:std:iso:4217","value":0}},{"url":"https://bluebutton.cms.gov/assets/ig/StructureDefinition-bluebutton-inpatient-fi-num-extension","valueIdentifier":{"system":"https://bluebutton.cms.gov/assets/ig/CodeSystem-fi-num","value":"002000"}}],"id":"5e27ca78-9fdd-4f92-b40a-d900e3ad03a0","identifier":[{"system":"https://bluebutton.cms.gov/resources/variables/clm_id","value":"d27c8da7-90cd-42a2-bfa0-30a345d76517"},{"system":"https://bluebutton.cms.gov/resources/identifier/claim-group","value":"99999999999"}],"insurance":{"coverage":{"reference":"#coverage"}},"item":[{"extension":[{"url":"https://bluebutton.cms.gov/assets/ig/StructureDefinition-bluebutton-inpatient-rev-cntr-ndc-qty-extension","valueQuantity":{"value":0}}],"locationCodeableConcept":{"coding":[{"code":"21","display":"Inpatient Hospital","system":"https://bluebutton.cms.gov/resources/variables/line_place_of_srvc_cd"}]},"sequence":1}],"meta":{"lastUpdated":"2019-04-09T11:38:31.307147+00:00","profile":["https://bluebutton.cms.gov/assets/ig/StructureDefinition-bluebutton-inpatient-claim"],"versionId":"MTU1NDgwOTkxMTMwNzE0NzAwMA"},"organization":{"identifier":{"value":"915f9f66-75d8-46c2-8da4-04b35046240b"}},"patient":{"reference":"Patient/00ba2d77-4512-45d0-b58c-82ee3161b00e"},"payment":{"amount":{"code":"USD","system":"urn:iso:std:iso:4217","value":0}},"provider":{"identifier":{"value":"ebd27f21-bb93-4416-bdf8-84490ae394cc"}},"resourceType":"ExplanationOfBenefit","status":"active","totalCost":{"code":"USD","system":"urn:iso:std:iso:4217","value":125},"type":{"coding":[{"code":"71","display":"Local carrier non-durable medical equipment, prosthetics, orthotics, and supplies (DMEPOS) claim","system":"https://bluebutton.cms.gov/resources/variables/nch_clm_type_cd"},{"code":"CARRIER","display":"EOB Type","system":"https://bluebutton.cms.gov/resources/codesystem/eob-type"},{"code":"professional","display":"Claim Type","system":"http://hl7.org/fhir/ex-claimtype"},{"code":"O","display":"Part B physician/supplier claim record (processed by local carriers; can include DMEPOS services)","system":"https://bluebutton.cms.gov/resources/variables/nch_near_line_rec_ident_cd"}]}}},{"resource":{"billablePeriod":{"end":"2014-09-02T08:39:53-04:00","extension":[{"url":"https://bluebutton.cms.gov/assets/ig/StructureDefinition-bluebutton-inpatient-claim-query-cd-extension","valueCoding":{"code":"3","display":"Final Bill","system":"https://bluebutton.cms.gov/assets/ig/ValueSet-claim-query-cd"}}],"start":"2013-09-02T08:39:53-04:00"},"careTeam":[{"provider":{"identifier":{"system":"http://hl7.org/fhir/sid/us-npi","value":"99999999"}},"role":{"coding":[{"code":"primary","display":"Primary Care Practitioner","system":"http://hl7.org/fhir/claimcareteamrole"}]},"sequence":1}],"contained":[{"id":"coverage","resourceType":"Coverage","type":{"text":"medicare"}}],"extension":[{"url":"https://bluebutton.cms.gov/assets/ig/StructureDefinition-bluebutton-inpatient-ime-op-clm-val-amt-extension","valueMoney":{"code":"USD","system":"urn:iso:std:iso:4217","value":400}},{"url":"https://bluebutton.cms.gov/assets/ig/StructureDefinition-bluebutton-inpatient-dsh-op-clm-val-amt-extension","valueMoney":{"code":"USD","system":"urn:iso:std:iso:4217","value":0}},{"url":"https://bluebutton.cms.gov/assets/ig/StructureDefinition-bluebutton-inpatient-clm-pass-thru-per-diem-amt-extension","valueMoney":{"code":"USD","system":"urn:iso:std:iso:4217","value":0}},{"url":"https://bluebutton.cms.gov/assets/ig/StructureDefinition-bluebutton-inpatient-nch-profnl-cmpnt-chrg-amt-extension","valueMoney":{"code":"USD","system":"urn:iso:std:iso:4217","value":0}},{"url":"https://bluebutton.cms.gov/assets/ig/StructureDefinition-bluebutton-inpatient-clm-tot-pps-cptl-amt-extension","valueMoney":{"code":"USD","system":"urn:iso:std:iso:4217","value":0}},{"url":"https://bluebutton.cms.gov/assets/ig/StructureDefinition-bluebutton-inpatient-nch-bene-ip-ddctbl-amt-extension","valueMoney":{"code":"USD","system":"urn:iso:std:iso:4217","value":0}},{"url":"https://bluebutton.cms.gov/assets/ig/StructureDefinition-bluebutton-inpatient-nch-bene-pta-coinsrnc-lblty-amt-extension","valueMoney":{"code":"USD","system":"urn:iso:std:iso:4217","value":0}},{"url":"https://bluebutton.cms.gov/assets/ig/StructureDefinition-bluebutton-inpatient-nch-ip-ncvrd-chrg-amt-extension","valueMoney":{"code":"USD","system":"urn:iso:std:iso:4217","value":0}},{"url":"https://bluebutton.cms.gov/assets/ig/StructureDefinition-bluebutton-inpatient-nch-ip-tot-ddctn-amt-extension","valueMoney":{"code":"USD","system":"urn:iso:std:iso:4217","value":0}},{"url":"https://bluebutton.cms.gov/assets/ig/StructureDefinition-bluebutton-inpatient-clm-pps-cptl-dsprprtnt-shr-amt-extension","valueMoney":{"code":"USD","system":"urn:iso:std:iso:4217","value":0}},{"url":"https://bluebutton.cms.gov/assets/ig/StructureDefinition-bluebutton-inpatient-clm-pps-cptl-excptn-amt-extension","valueMoney":{"code":"USD","system":"urn:iso:std:iso:4217","value":0}},{"url":"https://bluebutton.cms.gov/assets/ig/StructureDefinition-bluebutton-inpatient-clm-pps-cptl-fsp-amt-extension","valueMoney":{"code":"USD","system":"urn:iso:std:iso:4217","value":0}},{"url":"https://bluebutton.cms.gov/assets/ig/StructureDefinition-bluebutton-inpatient-clm-pps-cptl-ime-amt-extension","valueMoney":{"code":"USD","system":"urn:iso:std:iso:4217","value":400}},{"url":"https://bluebutton.cms.gov/assets/ig/StructureDefinition-bluebutton-inpatient-clm-pps-cptl-outlier-amt-extension","valueMoney":{"code":"USD","system":"urn:iso:std:iso:4217","value":0}},{"url":"https://bluebutton.cms.gov/assets/ig/StructureDefinition-bluebutton-inpatient-clm-pps-old-cptl-hld-hrmls-amt-extension","valueMoney":{"code":"USD","system":"urn:iso:std:iso:4217","value":0}},{"url":"https://bluebutton.cms.gov/assets/ig/StructureDefinition-bluebutton-inpatient-nch-drg-outlier-aprvd-pmt-amt-extension","valueMoney":{"code":"USD","system":"urn:iso:std:iso:4217","value":0}},{"url":"https://bluebutton.cms.gov/assets/ig/StructureDefinition-bluebutton-inpatient-nch-bene-blood-ddctbl-lblty-am-extension","valueMoney":{"code":"USD","system":"urn:iso:std:iso:4217","value":0}},{"url":"https://bluebutton.cms.gov/assets/ig/StructureDefinition-bluebutton-inpatient-clm-mdcr-non-pmt-rsn-cd-extension","valueCoding":{"code":"N","display":"All other reasons for non-payment","system":"https://bluebutton.cms.gov/assets/ig/CodeSystem-clm-mdcr-non-pmt-rsn-cd"}},{"url":"https://bluebutton.cms.gov/assets/ig/StructureDefinition-bluebutton-inpatient-prpayamt-extension","valueMoney":{"code":"USD","system":"urn:iso:std:iso:4217","value":0}},{"url":"https://bluebutton.cms.gov/assets/ig/StructureDefinition-bluebutton-inpatient-fi-num-extension","valueIdentifier":{"system":"https://bluebutton.cms.gov/assets/ig/CodeSystem-fi-num","value":"002000"}}],"id":"686454f3-b505-4e7d-9b81-ea3ddfdc63a8","identifier":[{"system":"https://bluebutton.cms.gov/resources/variables/clm_id","value":"9864d3a1-fa36-4a6a-9cf2-abec4014c3ed"},{"system":"https://bluebutton.cms.gov/resources/identifier/claim-group","value":"99999999999"}],"insurance":{"coverage":{"reference":"#coverage"}},"item":[{"extension":[{"url":"https://bluebutton.cms.gov/assets/ig/StructureDefinition-bluebutton-inpatient-rev-cntr-ndc-qty-extension","valueQuantity":{"value":0}}],"locationCodeableConcept":{"coding":[{"code":"21","display":"Inpatient Hospital","system":"https://bluebutton.cms.gov/resources/variables/line_place_of_srvc_cd"}]},"sequence":1}],"meta":{"lastUpdated":"2019-04-09T11:38:39.483965+00:00","profile":["https://bluebutton.cms.gov/assets/ig/StructureDefinition-bluebutton-inpatient-claim"],"versionId":"MTU1NDgwOTkxOTQ4Mzk2NTAwMA"},"organization":{"identifier":{"value":"915f9f66-75d8-46c2-8da4-04b35046240b"}},"patient":{"reference":"Patient/00ba2d77-4512-45d0-b58c-82ee3161b00e"},"payment":{"amount":{"code":"USD","system":"urn:iso:std:iso:4217","value":0}},"provider":{"identifier":{"value":"ebd27f21-bb93-4416-bdf8-84490ae394cc"}},"resourceType":"ExplanationOfBenefit","status":"active","totalCost":{"code":"USD","system":"urn:iso:std:iso:4217","value":125},"type":{"coding":[{"code":"71","display":"Local carrier non-durable medical equipment, prosthetics, orthotics, and supplies (DMEPOS) claim","system":"https://bluebutton.cms.gov/resources/variables/nch_clm_type_cd"},{"code":"CARRIER","display":"EOB Type","system":"https://bluebutton.cms.gov/resources/codesystem/eob-type"},{"code":"professional","display":"Claim Type","system":"http://hl7.org/fhir/ex-claimtype"},{"code":"O","display":"Part B physician/supplier claim record (processed by local carriers; can include DMEPOS services)","system":"https://bluebutton.cms.gov/resources/variables/nch_near_line_rec_ident_cd"}]}}},{"resource":{"billablePeriod":{"end":"2014-08-02T11:09:53-04:00","start":"2013-08-02T11:09:53-04:00"},"careTeam":[{"provider":{"identifier":{"system":"http://hl7.org/fhir/sid/us-npi","value":"99999999"}},"role":{"coding":[{"code":"primary","display":"Primary Care Practitioner","system":"http://hl7.org/fhir/claimcareteamrole"}]},"sequence":1}],"claim":{"reference":"Claim/ae217b7a-afc4-4e5b-8b23-b65f5d7b950d"},"contained":[{"id":"1","intent":"order","recipient":[{"identifier":{"system":"http://hl7.org/fhir/sid/us-npi","value":"99999999"}}],"requester":{"agent":{"identifier":{"system":"http://hl7.org/fhir/sid/us-npi","value":"99999999"}}},"resourceType":"ReferralRequest","status":"completed","subject":{"reference":"Patient/00ba2d77-4512-45d0-b58c-82ee3161b00e"}},{"id":"coverage","resourceType":"Coverage","type":{"text":"medicare"}}],"created":"2013-08-02T11:09:53-04:00","diagnosis":[{"diagnosisReference":{"reference":"Condition/f1280671-6d21-44a0-a397-d49bcfe1b908"},"extension":[{"url":"https://bluebutton.cms.gov/assets/ig/StructureDefinition-bluebutton-inpatient-clm-poa-ind-sw1-extension","valueCoding":{"code":"Y","display":"Diagnosis present at time of admission","system":"https://bluebutton.cms.gov/assets/ig/CodeSystem-clm-poa-ind-sw1"}}],"sequence":1,"type":[{"coding":[{"code":"principal","system":"https://bluebutton.cms.gov/resources/codesystem/diagnosis-type"}]}]}],"id":"723a4d31-c109-43ce-a209-90bc14f79a82","identifier":[{"system":"https://bluebutton.cms.gov/resources/variables/clm_id","value":"ae217b7a-afc4-4e5b-8b23-b65f5d7b950d"},{"system":"https://bluebutton.cms.gov/resources/identifier/claim-group","value":"99999999999"}],"insurance":{"coverage":{"reference":"#coverage"}},"item":[{"category":{"coding":[{"code":"1","display":"Medical care","system":"https://bluebutton.cms.gov/resources/variables/line_cms_type_srvc_cd"}]},"encounter":[{"reference":"Encounter/49733f21-b3ab-4560-abc5-ec3ae9e2c39c"}],"locationCodeableConcept":{"coding":[{"code":"23","display":"Emergency Room","system":"https://bluebutton.cms.gov/resources/variables/line_place_of_srvc_cd"}]},"sequence":1,"servicedPeriod":{"end":"2013-08-02T11:09:53-04:00","start":"2013-08-02T08:24:53-04:00"}},{"category":{"coding":[{"code":"1","display":"Medical care","system":"https://bluebutton.cms.gov/resources/variables/line_cms_type_srvc_cd"}]},"diagnosisLinkId":[1],"locationCodeableConcept":{"coding":[{"code":"23","display":"Emergency Room","system":"https://bluebutton.cms.gov/resources/variables/line_place_of_srvc_cd"}]},"sequence":2,"servicedPeriod":{"end":"2013-08-02T11:09:53-04:00","start":"2013-08-02T08:24:53-04:00"}},{"adjudication":[{"amount":{"code":"USD","system":"urn:iso:std:iso:4217","value":103.33},"category":{"coding":[{"code":"https://bluebutton.cms.gov/resources/variables/line_coinsrnc_amt","display":"Line Beneficiary Coinsurance Amount","system":"https://bluebutton.cms.gov/resources/codesystem/adjudication"}]}},{"amount":{"code":"USD","system":"urn:iso:std:iso:4217","value":413.32},"category":{"coding":[{"code":"https://bluebutton.cms.gov/resources/variables/line_prvdr_pmt_amt","display":"Line Provider Payment Amount","system":"https://bluebutton.cms.gov/resources/codesystem/adjudication"}]}},{"amount":{"code":"USD","system":"urn:iso:std:iso:4217","value":516.65},"category":{"coding":[{"code":"https://bluebutton.cms.gov/resources/variables/line_sbmtd_chrg_amt","display":"Line Submitted Charge Amount","system":"https://bluebutton.cms.gov/resources/codesystem/adjudication"}]}},{"amount":{"code":"USD","system":"urn:iso:std:iso:4217","value":516.65},"category":{"coding":[{"code":"https://bluebutton.cms.gov/resources/variables/line_alowd_chrg_amt","display":"Line Allowed Charge Amount","system":"https://bluebutton.cms.gov/resources/codesystem/adjudication"}]}},{"amount":{"code":"USD","system":"urn:iso:std:iso:4217","value":0},"category":{"coding":[{"code":"https://bluebutton.cms.gov/resources/variables/line_bene_ptb_ddctbl_amt","display":"Line Beneficiary Part B Deductible Amount","system":"https://bluebutton.cms.gov/resources/codesystem/adjudication"}]}},{"category":{"coding":[{"code":"https://bluebutton.cms.gov/resources/variables/line_prcsg_ind_cd","display":"Line Processing Indicator Code","system":"https://bluebutton.cms.gov/resources/codesystem/adjudication"}]},"reason":{"coding":[{"code":"A","display":"Allowed","system":"https://bluebutton.cms.gov/resources/variables/line_prcsg_ind_cd"}]}}],"category":{"coding":[{"code":"1","display":"Medical care","system":"https://bluebutton.cms.gov/resources/variables/line_cms_type_srvc_cd"}]},"locationCodeableConcept":{"coding":[{"code":"23","display":"Emergency Room","system":"https://bluebutton.cms.gov/resources/variables/line_place_of_srvc_cd"}]},"net":{"code":"USD","system":"urn:iso:std:iso:4217","value":516.65},"sequence":3,"service":{"coding":[{"code":"168594001","system":"http://snomed.info/sct","version":"v1"}]},"servicedPeriod":{"end":"2013-08-02T11:09:53-04:00","start":"2013-08-02T08:24:53-04:00"}},{"adjudication":[{"amount":{"code":"USD","system":"urn:iso:std:iso:4217","value":103.33},"category":{"coding":[{"code":"https://bluebutton.cms.gov/resources/variables/line_coinsrnc_amt","display":"Line Beneficiary Coinsurance Amount","system":"https://bluebutton.cms.gov/resources/codesystem/adjudication"}]}},{"amount":{"code":"USD","system":"urn:iso:std:iso:4217","value":413.32},"category":{"coding":[{"code":"https://bluebutton.cms.gov/resources/variables/line_prvdr_pmt_amt","display":"Line Provider Payment Amount","system":"https://bluebutton.cms.gov/resources/codesystem/adjudication"}]}},{"amount":{"code":"USD","system":"urn:iso:std:iso:4217","value":516.65},"category":{"coding":[{"code":"https://bluebutton.cms.gov/resources/variables/line_sbmtd_chrg_amt","display":"Line Submitted Charge Amount","system":"https://bluebutton.cms.gov/resources/codesystem/adjudication"}]}},{"amount":{"code":"USD","system":"urn:iso:std:iso:4217","value":516.65},"category":{"coding":[{"code":"https://bluebutton.cms.gov/resources/variables/line_alowd_chrg_amt","display":"Line Allowed Charge Amount","system":"https://bluebutton.cms.gov/resources/codesystem/adjudication"}]}},{"amount":{"code":"USD","system":"urn:iso:std:iso:4217","value":0},"category":{"coding":[{"code":"https://bluebutton.cms.gov/resources/variables/line_bene_ptb_ddctbl_amt","display":"Line Beneficiary Part B Deductible Amount","system":"https://bluebutton.cms.gov/resources/codesystem/adjudication"}]}},{"category":{"coding":[{"code":"https://bluebutton.cms.gov/resources/variables/line_prcsg_ind_cd","display":"Line Processing Indicator Code","system":"https://bluebutton.cms.gov/resources/codesystem/adjudication"}]},"reason":{"coding":[{"code":"A","display":"Allowed","system":"https://bluebutton.cms.gov/resources/variables/line_prcsg_ind_cd"}]}}],"category":{"coding":[{"code":"1","display":"Medical care","system":"https://bluebutton.cms.gov/resources/variables/line_cms_type_srvc_cd"}]},"locationCodeableConcept":{"coding":[{"code":"23","display":"Emergency Room","system":"https://bluebutton.cms.gov/resources/variables/line_place_of_srvc_cd"}]},"net":{"code":"USD","system":"urn:iso:std:iso:4217","value":516.65},"sequence":4,"service":{"coding":[{"code":"305428000","system":"http://snomed.info/sct","version":"v1"}]},"servicedPeriod":{"end":"2013-08-02T11:09:53-04:00","start":"2013-08-02T08:24:53-04:00"}},{"adjudication":[{"amount":{"code":"USD","system":"urn:iso:std:iso:4217","value":3702.51},"category":{"coding":[{"code":"https://bluebutton.cms.gov/resources/variables/line_coinsrnc_amt","display":"Line Beneficiary Coinsurance Amount","system":"https://bluebutton.cms.gov/resources/codesystem/adjudication"}]}},{"amount":{"code":"USD","system":"urn:iso:std:iso:4217","value":14810.04},"category":{"coding":[{"code":"https://bluebutton.cms.gov/resources/variables/line_prvdr_pmt_amt","display":"Line Provider Payment Amount","system":"https://bluebutton.cms.gov/resources/codesystem/adjudication"}]}},{"amount":{"code":"USD","system":"urn:iso:std:iso:4217","value":18512.55},"category":{"coding":[{"code":"https://bluebutton.cms.gov/resources/variables/line_sbmtd_chrg_amt","display":"Line Submitted Charge Amount","system":"https://bluebutton.cms.gov/resources/codesystem/adjudication"}]}},{"amount":{"code":"USD","system":"urn:iso:std:iso:4217","value":18512.55},"category":{"coding":[{"code":"https://bluebutton.cms.gov/resources/variables/line_alowd_chrg_amt","display":"Line Allowed Charge Amount","system":"https://bluebutton.cms.gov/resources/codesystem/adjudication"}]}},{"amount":{"code":"USD","system":"urn:iso:std:iso:4217","value":0},"category":{"coding":[{"code":"https://bluebutton.cms.gov/resources/variables/line_bene_ptb_ddctbl_amt","display":"Line Beneficiary Part B Deductible Amount","system":"https://bluebutton.cms.gov/resources/codesystem/adjudication"}]}},{"category":{"coding":[{"code":"https://bluebutton.cms.gov/resources/variables/line_prcsg_ind_cd","display":"Line Processing Indicator Code","system":"https://bluebutton.cms.gov/resources/codesystem/adjudication"}]},"reason":{"coding":[{"code":"A","display":"Allowed","system":"https://bluebutton.cms.gov/resources/variables/line_prcsg_ind_cd"}]}}],"category":{"coding":[{"code":"1","display":"Medical care","system":"https://bluebutton.cms.gov/resources/variables/line_cms_type_srvc_cd"}]},"locationCodeableConcept":{"coding":[{"code":"23","display":"Emergency Room","system":"https://bluebutton.cms.gov/resources/variables/line_place_of_srvc_cd"}]},"net":{"code":"USD","system":"urn:iso:std:iso:4217","value":18512.55},"sequence":5,"service":{"coding":[{"code":"312681000","system":"http://snomed.info/sct","version":"v1"}]},"servicedPeriod":{"end":"2013-08-02T11:09:53-04:00","start":"2013-08-02T08:24:53-04:00"}}],"meta":{"lastUpdated":"2019-04-09T11:38:38.474845+00:00","versionId":"MTU1NDgwOTkxODQ3NDg0NTAwMA"},"organization":{"identifier":{"value":"915f9f66-75d8-46c2-8da4-04b35046240b"}},"patient":{"reference":"Patient/00ba2d77-4512-45d0-b58c-82ee3161b00e"},"payment":{"amount":{"code":"USD","system":"urn:iso:std:iso:4217","value":15636.68}},"provider":{"identifier":{"value":"ebd27f21-bb93-4416-bdf8-84490ae394cc"}},"referral":{"reference":"#1"},"resourceType":"ExplanationOfBenefit","status":"active","totalCost":{"code":"USD","system":"urn:iso:std:iso:4217","value":19670.85},"type":{"coding":[{"code":"71","display":"Local carrier non-durable medical equipment, prosthetics, orthotics, and supplies (DMEPOS) claim","system":"https://bluebutton.cms.gov/resources/variables/nch_clm_type_cd"},{"code":"CARRIER","display":"EOB Type","system":"https://bluebutton.cms.gov/resources/codesystem/eob-type"},{"code":"professional","display":"Claim Type","system":"http://hl7.org/fhir/ex-claimtype"},{"code":"O","display":"Part B physician/supplier claim record (processed by local carriers; can include DMEPOS services)","system":"https://bluebutton.cms.gov/resources/variables/nch_near_line_rec_ident_cd"}]}}},{"resource":{"billablePeriod":{"end":"2001-08-28T09:34:53-04:00","extension":[{"url":"https://bluebutton.cms.gov/assets/ig/StructureDefinition-bluebutton-inpatient-claim-query-cd-extension","valueCoding":{"code":"3","display":"Final Bill","system":"https://bluebutton.cms.gov/assets/ig/ValueSet-claim-query-cd"}}],"start":"2000-08-28T09:34:53-04:00"},"careTeam":[{"provider":{"identifier":{"system":"http://hl7.org/fhir/sid/us-npi","value":"99999999"}},"role":{"coding":[{"code":"primary","display":"Primary Care Practitioner","system":"http://hl7.org/fhir/claimcareteamrole"}]},"sequence":1}],"contained":[{"id":"coverage","resourceType":"Coverage","type":{"text":"private"}}],"diagnosis":[{"diagnosisReference":{"reference":"Condition/d9998ef8-4fac-4449-a6aa-da37480591f2"},"extension":[{"url":"https://bluebutton.cms.gov/assets/ig/StructureDefinition-bluebutton-inpatient-clm-poa-ind-sw1-extension","valueCoding":{"code":"Y","display":"Diagnosis present at time of admission","system":"https://bluebutton.cms.gov/assets/ig/CodeSystem-clm-poa-ind-sw1"}}],"sequence":1,"type":[{"coding":[{"code":"principal","system":"https://bluebutton.cms.gov/resources/codesystem/diagnosis-type"}]}]}],"extension":[{"url":"https://bluebutton.cms.gov/assets/ig/StructureDefinition-bluebutton-inpatient-ime-op-clm-val-amt-extension","valueMoney":{"code":"USD","system":"urn:iso:std:iso:4217","value":400}},{"url":"https://bluebutton.cms.gov/assets/ig/StructureDefinition-bluebutton-inpatient-dsh-op-clm-val-amt-extension","valueMoney":{"code":"USD","system":"urn:iso:std:iso:4217","value":0}},{"url":"https://bluebutton.cms.gov/assets/ig/StructureDefinition-bluebutton-inpatient-clm-pass-thru-per-diem-amt-extension","valueMoney":{"code":"USD","system":"urn:iso:std:iso:4217","value":0}},{"url":"https://bluebutton.cms.gov/assets/ig/StructureDefinition-bluebutton-inpatient-nch-profnl-cmpnt-chrg-amt-extension","valueMoney":{"code":"USD","system":"urn:iso:std:iso:4217","value":0}},{"url":"https://bluebutton.cms.gov/assets/ig/StructureDefinition-bluebutton-inpatient-clm-tot-pps-cptl-amt-extension","valueMoney":{"code":"USD","system":"urn:iso:std:iso:4217","value":0}},{"url":"https://bluebutton.cms.gov/assets/ig/StructureDefinition-bluebutton-inpatient-nch-bene-ip-ddctbl-amt-extension","valueMoney":{"code":"USD","system":"urn:iso:std:iso:4217","value":0}},{"url":"https://bluebutton.cms.gov/assets/ig/StructureDefinition-bluebutton-inpatient-nch-bene-pta-coinsrnc-lblty-amt-extension","valueMoney":{"code":"USD","system":"urn:iso:std:iso:4217","value":0}},{"url":"https://bluebutton.cms.gov/assets/ig/StructureDefinition-bluebutton-inpatient-nch-ip-ncvrd-chrg-amt-extension","valueMoney":{"code":"USD","system":"urn:iso:std:iso:4217","value":0}},{"url":"https://bluebutton.cms.gov/assets/ig/StructureDefinition-bluebutton-inpatient-nch-ip-tot-ddctn-amt-extension","valueMoney":{"code":"USD","system":"urn:iso:std:iso:4217","value":0}},{"url":"https://bluebutton.cms.gov/assets/ig/StructureDefinition-bluebutton-inpatient-clm-pps-cptl-dsprprtnt-shr-amt-extension","valueMoney":{"code":"USD","system":"urn:iso:std:iso:4217","value":0}},{"url":"https://bluebutton.cms.gov/assets/ig/StructureDefinition-bluebutton-inpatient-clm-pps-cptl-excptn-amt-extension","valueMoney":{"code":"USD","system":"urn:iso:std:iso:4217","value":0}},{"url":"https://bluebutton.cms.gov/assets/ig/StructureDefinition-bluebutton-inpatient-clm-pps-cptl-fsp-amt-extension","valueMoney":{"code":"USD","system":"urn:iso:std:iso:4217","value":0}},{"url":"https://bluebutton.cms.gov/assets/ig/StructureDefinition-bluebutton-inpatient-clm-pps-cptl-ime-amt-extension","valueMoney":{"code":"USD","system":"urn:iso:std:iso:4217","value":400}},{"url":"https://bluebutton.cms.gov/assets/ig/StructureDefinition-bluebutton-inpatient-clm-pps-cptl-outlier-amt-extension","valueMoney":{"code":"USD","system":"urn:iso:std:iso:4217","value":0}},{"url":"https://bluebutton.cms.gov/assets/ig/StructureDefinition-bluebutton-inpatient-clm-pps-old-cptl-hld-hrmls-amt-extension","valueMoney":{"code":"USD","system":"urn:iso:std:iso:4217","value":0}},{"url":"https://bluebutton.cms.gov/assets/ig/StructureDefinition-bluebutton-inpatient-nch-drg-outlier-aprvd-pmt-amt-extension","valueMoney":{"code":"USD","system":"urn:iso:std:iso:4217","value":0}},{"url":"https://bluebutton.cms.gov/assets/ig/StructureDefinition-bluebutton-inpatient-nch-bene-blood-ddctbl-lblty-am-extension","valueMoney":{"code":"USD","system":"urn:iso:std:iso:4217","value":0}},{"url":"https://bluebutton.cms.gov/assets/ig/StructureDefinition-bluebutton-inpatient-clm-mdcr-non-pmt-rsn-cd-extension","valueCoding":{"code":"N","display":"All other reasons for non-payment","system":"https://bluebutton.cms.gov/assets/ig/CodeSystem-clm-mdcr-non-pmt-rsn-cd"}},{"url":"https://bluebutton.cms.gov/assets/ig/StructureDefinition-bluebutton-inpatient-prpayamt-extension","valueMoney":{"code":"USD","system":"urn:iso:std:iso:4217","value":0}},{"url":"https://bluebutton.cms.gov/assets/ig/StructureDefinition-bluebutton-inpatient-fi-num-extension","valueIdentifier":{"system":"https://bluebutton.cms.gov/assets/ig/CodeSystem-fi-num","value":"002000"}}],"id":"75c7db0e-78ce-414c-9eb0-598db4e89ac8","identifier":[{"system":"https://bluebutton.cms.gov/resources/variables/clm_id","value":"feb0fd29-ebcd-4aac-82aa-118e4dd90736"},{"system":"https://bluebutton.cms.gov/resources/identifier/claim-group","value":"99999999999"}],"insurance":{"coverage":{"reference":"#coverage"}},"item":[{"extension":[{"url":"https://bluebutton.cms.gov/assets/ig/StructureDefinition-bluebutton-inpatient-rev-cntr-ndc-qty-extension","valueQuantity":{"value":0}}],"locationCodeableConcept":{"coding":[{"code":"21","display":"Inpatient Hospital","system":"https://bluebutton.cms.gov/resources/variables/line_place_of_srvc_cd"}]},"sequence":1},{"extension":[{"url":"https://bluebutton.cms.gov/assets/ig/StructureDefinition-bluebutton-inpatient-rev-cntr-ndc-qty-extension","valueQuantity":{"value":0}}],"locationCodeableConcept":{"coding":[{"code":"21","display":"Inpatient Hospital","system":"https://bluebutton.cms.gov/resources/variables/line_place_of_srvc_cd"}]},"sequence":2}],"meta":{"lastUpdated":"2019-04-09T11:38:30.282783+00:00","profile":["https://bluebutton.cms.gov/assets/ig/StructureDefinition-bluebutton-inpatient-claim"],"versionId":"MTU1NDgwOTkxMDI4Mjc4MzAwMA"},"organization":{"identifier":{"value":"915f9f66-75d8-46c2-8da4-04b35046240b"}},"patient":{"reference":"Patient/00ba2d77-4512-45d0-b58c-82ee3161b00e"},"payment":{"amount":{"code":"USD","system":"urn:iso:std:iso:4217","value":0}},"provider":{"identifier":{"value":"ebd27f21-bb93-4416-bdf8-84490ae394cc"}},"resourceType":"ExplanationOfBenefit","status":"active","totalCost":{"code":"USD","system":"urn:iso:std:iso:4217","value":125},"type":{"coding":[{"code":"71","display":"Local carrier non-durable medical equipment, prosthetics, orthotics, and supplies (DMEPOS) claim","system":"https://bluebutton.cms.gov/resources/variables/nch_clm_type_cd"},{"code":"CARRIER","display":"EOB Type","system":"https://bluebutton.cms.gov/resources/codesystem/eob-type"},{"code":"professional","display":"Claim Type","system":"http://hl7.org/fhir/ex-claimtype"},{"code":"O","display":"Part B physician/supplier claim record (processed by local carriers; can include DMEPOS services)","system":"https://bluebutton.cms.gov/resources/variables/nch_near_line_rec_ident_cd"}]}}},{"resource":{"billablePeriod":{"end":"2011-10-24T08:39:53-04:00","start":"2010-10-24T08:39:53-04:00"},"careTeam":[{"provider":{"identifier":{"system":"http://hl7.org/fhir/sid/us-npi","value":"99999999"}},"role":{"coding":[{"code":"primary","display":"Primary Care Practitioner","system":"http://hl7.org/fhir/claimcareteamrole"}]},"sequence":1}],"claim":{"reference":"Claim/cf30c597-ab58-41b2-9cd2-543df275553c"},"contained":[{"id":"1","intent":"order","recipient":[{"identifier":{"system":"http://hl7.org/fhir/sid/us-npi","value":"99999999"}}],"requester":{"agent":{"identifier":{"system":"http://hl7.org/fhir/sid/us-npi","value":"99999999"}}},"resourceType":"ReferralRequest","status":"completed","subject":{"reference":"Patient/00ba2d77-4512-45d0-b58c-82ee3161b00e"}},{"id":"coverage","resourceType":"Coverage","type":{"text":"medicare"}}],"created":"2010-10-24T08:39:53-04:00","id":"76b2b5e0-c33a-49ec-9028-6f16287c90f1","identifier":[{"system":"https://bluebutton.cms.gov/resources/variables/clm_id","value":"cf30c597-ab58-41b2-9cd2-543df275553c"},{"system":"https://bluebutton.cms.gov/resources/identifier/claim-group","value":"99999999999"}],"insurance":{"coverage":{"reference":"#coverage"}},"item":[{"category":{"coding":[{"code":"1","display":"Medical care","system":"https://bluebutton.cms.gov/resources/variables/line_cms_type_srvc_cd"}]},"encounter":[{"reference":"Encounter/f5ca8abf-3836-4a23-a11a-b093cee82ad6"}],"locationCodeableConcept":{"coding":[{"code":"21","display":"Inpatient Hospital","system":"https://bluebutton.cms.gov/resources/variables/line_place_of_srvc_cd"}]},"sequence":1,"servicedPeriod":{"end":"2010-10-24T08:39:53-04:00","start":"2010-10-24T08:24:53-04:00"}},{"adjudication":[{"amount":{"code":"USD","system":"urn:iso:std:iso:4217","value":28.104000000000003},"category":{"coding":[{"code":"https://bluebutton.cms.gov/resources/variables/line_coinsrnc_amt","display":"Line Beneficiary Coinsurance Amount","system":"https://bluebutton.cms.gov/resources/codesystem/adjudication"}]}},{"amount":{"code":"USD","system":"urn:iso:std:iso:4217","value":112.41600000000001},"category":{"coding":[{"code":"https://bluebutton.cms.gov/resources/variables/line_prvdr_pmt_amt","display":"Line Provider Payment Amount","system":"https://bluebutton.cms.gov/resources/codesystem/adjudication"}]}},{"amount":{"code":"USD","system":"urn:iso:std:iso:4217","value":140.52},"category":{"coding":[{"code":"https://bluebutton.cms.gov/resources/variables/line_sbmtd_chrg_amt","display":"Line Submitted Charge Amount","system":"https://bluebutton.cms.gov/resources/codesystem/adjudication"}]}},{"amount":{"code":"USD","system":"urn:iso:std:iso:4217","value":140.52},"category":{"coding":[{"code":"https://bluebutton.cms.gov/resources/variables/line_alowd_chrg_amt","display":"Line Allowed Charge Amount","system":"https://bluebutton.cms.gov/resources/codesystem/adjudication"}]}},{"amount":{"code":"USD","system":"urn:iso:std:iso:4217","value":0},"category":{"coding":[{"code":"https://bluebutton.cms.gov/resources/variables/line_bene_ptb_ddctbl_amt","display":"Line Beneficiary Part B Deductible Amount","system":"https://bluebutton.cms.gov/resources/codesystem/adjudication"}]}},{"category":{"coding":[{"code":"https://bluebutton.cms.gov/resources/variables/line_prcsg_ind_cd","display":"Line Processing Indicator Code","system":"https://bluebutton.cms.gov/resources/codesystem/adjudication"}]},"reason":{"coding":[{"code":"A","display":"Allowed","system":"https://bluebutton.cms.gov/resources/variables/line_prcsg_ind_cd"}]}}],"category":{"coding":[{"code":"1","display":"Medical care","system":"https://bluebutton.cms.gov/resources/variables/line_cms_type_srvc_cd"}]},"informationLinkId":[1],"locationCodeableConcept":{"coding":[{"code":"21","display":"Inpatient Hospital","system":"https://bluebutton.cms.gov/resources/variables/line_place_of_srvc_cd"}]},"net":{"code":"USD","system":"urn:iso:std:iso:4217","value":140.52},"sequence":2,"servicedPeriod":{"end":"2010-10-24T08:39:53-04:00","start":"2010-10-24T08:24:53-04:00"}}],"meta":{"lastUpdated":"2019-04-09T11:38:35.410451+00:00","versionId":"MTU1NDgwOTkxNTQxMDQ1MTAwMA"},"organization":{"identifier":{"value":"915f9f66-75d8-46c2-8da4-04b35046240b"}},"patient":{"reference":"Patient/00ba2d77-4512-45d0-b58c-82ee3161b00e"},"payment":{"amount":{"code":"USD","system":"urn:iso:std:iso:4217","value":112.41600000000001}},"provider":{"identifier":{"value":"ebd27f21-bb93-4416-bdf8-84490ae394cc"}},"referral":{"reference":"#1"},"resourceType":"ExplanationOfBenefit","status":"active","totalCost":{"code":"USD","system":"urn:iso:std:iso:4217","value":265.52},"type":{"coding":[{"code":"71","display":"Local carrier non-durable medical equipment, prosthetics, orthotics, and supplies (DMEPOS) claim","system":"https://bluebutton.cms.gov/resources/variables/nch_clm_type_cd"},{"code":"CARRIER","display":"EOB Type","system":"https://bluebutton.cms.gov/resources/codesystem/eob-type"},{"code":"professional","display":"Claim Type","system":"http://hl7.org/fhir/ex-claimtype"},{"code":"O","display":"Part B physician/supplier claim record (processed by local carriers; can include DMEPOS services)","system":"https://bluebutton.cms.gov/resources/variables/nch_near_line_rec_ident_cd"}]}}},{"resource":{"billablePeriod":{"end":"2008-09-04T08:39:53-04:00","extension":[{"url":"https://bluebutton.cms.gov/assets/ig/StructureDefinition-bluebutton-inpatient-claim-query-cd-extension","valueCoding":{"code":"3","display":"Final Bill","system":"https://bluebutton.cms.gov/assets/ig/ValueSet-claim-query-cd"}}],"start":"2007-09-04T08:39:53-04:00"},"careTeam":[{"provider":{"identifier":{"system":"http://hl7.org/fhir/sid/us-npi","value":"99999999"}},"role":{"coding":[{"code":"primary","display":"Primary Care Practitioner","system":"http://hl7.org/fhir/claimcareteamrole"}]},"sequence":1}],"contained":[{"id":"coverage","resourceType":"Coverage","type":{"text":"medicare"}}],"extension":[{"url":"https://bluebutton.cms.gov/assets/ig/StructureDefinition-bluebutton-inpatient-ime-op-clm-val-amt-extension","valueMoney":{"code":"USD","system":"urn:iso:std:iso:4217","value":400}},{"url":"https://bluebutton.cms.gov/assets/ig/StructureDefinition-bluebutton-inpatient-dsh-op-clm-val-amt-extension","valueMoney":{"code":"USD","system":"urn:iso:std:iso:4217","value":0}},{"url":"https://bluebutton.cms.gov/assets/ig/StructureDefinition-bluebutton-inpatient-clm-pass-thru-per-diem-amt-extension","valueMoney":{"code":"USD","system":"urn:iso:std:iso:4217","value":0}},{"url":"https://bluebutton.cms.gov/assets/ig/StructureDefinition-bluebutton-inpatient-nch-profnl-cmpnt-chrg-amt-extension","valueMoney":{"code":"USD","system":"urn:iso:std:iso:4217","value":0}},{"url":"https://bluebutton.cms.gov/assets/ig/StructureDefinition-bluebutton-inpatient-clm-tot-pps-cptl-amt-extension","valueMoney":{"code":"USD","system":"urn:iso:std:iso:4217","value":0}},{"url":"https://bluebutton.cms.gov/assets/ig/StructureDefinition-bluebutton-inpatient-nch-bene-ip-ddctbl-amt-extension","valueMoney":{"code":"USD","system":"urn:iso:std:iso:4217","value":0}},{"url":"https://bluebutton.cms.gov/assets/ig/StructureDefinition-bluebutton-inpatient-nch-bene-pta-coinsrnc-lblty-amt-extension","valueMoney":{"code":"USD","system":"urn:iso:std:iso:4217","value":0}},{"url":"https://bluebutton.cms.gov/assets/ig/StructureDefinition-bluebutton-inpatient-nch-ip-ncvrd-chrg-amt-extension","valueMoney":{"code":"USD","system":"urn:iso:std:iso:4217","value":0}},{"url":"https://bluebutton.cms.gov/assets/ig/StructureDefinition-bluebutton-inpatient-nch-ip-tot-ddctn-amt-extension","valueMoney":{"code":"USD","system":"urn:iso:std:iso:4217","value":0}},{"url":"https://bluebutton.cms.gov/assets/ig/StructureDefinition-bluebutton-inpatient-clm-pps-cptl-dsprprtnt-shr-amt-extension","valueMoney":{"code":"USD","system":"urn:iso:std:iso:4217","value":0}},{"url":"https://bluebutton.cms.gov/assets/ig/StructureDefinition-bluebutton-inpatient-clm-pps-cptl-excptn-amt-extension","valueMoney":{"code":"USD","system":"urn:iso:std:iso:4217","value":0}},{"url":"https://bluebutton.cms.gov/assets/ig/StructureDefinition-bluebutton-inpatient-clm-pps-cptl-fsp-amt-extension","valueMoney":{"code":"USD","system":"urn:iso:std:iso:4217","value":0}},{"url":"https://bluebutton.cms.gov/assets/ig/StructureDefinition-bluebutton-inpatient-clm-pps-cptl-ime-amt-extension","valueMoney":{"code":"USD","system":"urn:iso:std:iso:4217","value":400}},{"url":"https://bluebutton.cms.gov/assets/ig/StructureDefinition-bluebutton-inpatient-clm-pps-cptl-outlier-amt-extension","valueMoney":{"code":"USD","system":"urn:iso:std:iso:4217","value":0}},{"url":"https://bluebutton.cms.gov/assets/ig/StructureDefinition-bluebutton-inpatient-clm-pps-old-cptl-hld-hrmls-amt-extension","valueMoney":{"code":"USD","system":"urn:iso:std:iso:4217","value":0}},{"url":"https://bluebutton.cms.gov/assets/ig/StructureDefinition-bluebutton-inpatient-nch-drg-outlier-aprvd-pmt-amt-extension","valueMoney":{"code":"USD","system":"urn:iso:std:iso:4217","value":0}},{"url":"https://bluebutton.cms.gov/assets/ig/StructureDefinition-bluebutton-inpatient-nch-bene-blood-ddctbl-lblty-am-extension","valueMoney":{"code":"USD","system":"urn:iso:std:iso:4217","value":0}},{"url":"https://bluebutton.cms.gov/assets/ig/StructureDefinition-bluebutton-inpatient-clm-mdcr-non-pmt-rsn-cd-extension","valueCoding":{"code":"N","display":"All other reasons for non-payment","system":"https://bluebutton.cms.gov/assets/ig/CodeSystem-clm-mdcr-non-pmt-rsn-cd"}},{"url":"https://bluebutton.cms.gov/assets/ig/StructureDefinition-bluebutton-inpatient-prpayamt-extension","valueMoney":{"code":"USD","system":"urn:iso:std:iso:4217","value":0}},{"url":"https://bluebutton.cms.gov/assets/ig/StructureDefinition-bluebutton-inpatient-fi-num-extension","valueIdentifier":{"system":"https://bluebutton.cms.gov/assets/ig/CodeSystem-fi-num","value":"002000"}}],"id":"7ff22e49-e666-4a44-8ab2-cec0a5fa005f","identifier":[{"system":"https://bluebutton.cms.gov/resources/variables/clm_id","value":"52fcdd95-4fa6-4ac0-8ffd-e80f43cb8728"},{"system":"https://bluebutton.cms.gov/resources/identifier/claim-group","value":"99999999999"}],"insurance":{"coverage":{"reference":"#coverage"}},"item":[{"extension":[{"url":"https://bluebutton.cms.gov/assets/ig/StructureDefinition-bluebutton-inpatient-rev-cntr-ndc-qty-extension","valueQuantity":{"value":0}}],"locationCodeableConcept":{"coding":[{"code":"21","display":"Inpatient Hospital","system":"https://bluebutton.cms.gov/resources/variables/line_place_of_srvc_cd"}]},"sequence":1}],"meta":{"lastUpdated":"2019-04-09T11:38:32.323258+00:00","profile":["https://bluebutton.cms.gov/assets/ig/StructureDefinition-bluebutton-inpatient-claim"],"versionId":"MTU1NDgwOTkxMjMyMzI1ODAwMA"},"organization":{"identifier":{"value":"915f9f66-75d8-46c2-8da4-04b35046240b"}},"patient":{"reference":"Patient/00ba2d77-4512-45d0-b58c-82ee3161b00e"},"payment":{"amount":{"code":"USD","system":"urn:iso:std:iso:4217","value":0}},"provider":{"identifier":{"value":"ebd27f21-bb93-4416-bdf8-84490ae394cc"}},"resourceType":"ExplanationOfBenefit","status":"active","totalCost":{"code":"USD","system":"urn:iso:std:iso:4217","value":125},"type":{"coding":[{"code":"71","display":"Local carrier non-durable medical equipment, prosthetics, orthotics, and supplies (DMEPOS) claim","system":"https://bluebutton.cms.gov/resources/variables/nch_clm_type_cd"},{"code":"CARRIER","display":"EOB Type","system":"https://bluebutton.cms.gov/resources/codesystem/eob-type"},{"code":"professional","display":"Claim Type","system":"http://hl7.org/fhir/ex-claimtype"},{"code":"O","display":"Part B physician/supplier claim record (processed by local carriers; can include DMEPOS services)","system":"https://bluebutton.cms.gov/resources/variables/nch_near_line_rec_ident_cd"}]}}},{"resource":{"billablePeriod":{"end":"2016-11-13T07:50:53-05:00","extension":[{"url":"https://bluebutton.cms.gov/assets/ig/StructureDefinition-bluebutton-inpatient-claim-query-cd-extension","valueCoding":{"code":"3","display":"Final Bill","system":"https://bluebutton.cms.gov/assets/ig/ValueSet-claim-query-cd"}}],"start":"2015-11-13T07:50:53-05:00"},"careTeam":[{"provider":{"identifier":{"system":"http://hl7.org/fhir/sid/us-npi","value":"99999999"}},"role":{"coding":[{"code":"primary","display":"Primary Care Practitioner","system":"http://hl7.org/fhir/claimcareteamrole"}]},"sequence":1}],"contained":[{"id":"coverage","resourceType":"Coverage","type":{"text":"medicare"}}],"diagnosis":[{"diagnosisReference":{"reference":"Condition/7539b57b-282e-49be-a9e3-ccfe47c46f43"},"extension":[{"url":"https://bluebutton.cms.gov/assets/ig/StructureDefinition-bluebutton-inpatient-clm-poa-ind-sw1-extension","valueCoding":{"code":"Y","display":"Diagnosis present at time of admission","system":"https://bluebutton.cms.gov/assets/ig/CodeSystem-clm-poa-ind-sw1"}}],"sequence":1,"type":[{"coding":[{"code":"principal","system":"https://bluebutton.cms.gov/resources/codesystem/diagnosis-type"}]}]}],"extension":[{"url":"https://bluebutton.cms.gov/assets/ig/StructureDefinition-bluebutton-inpatient-ime-op-clm-val-amt-extension","valueMoney":{"code":"USD","system":"urn:iso:std:iso:4217","value":400}},{"url":"https://bluebutton.cms.gov/assets/ig/StructureDefinition-bluebutton-inpatient-dsh-op-clm-val-amt-extension","valueMoney":{"code":"USD","system":"urn:iso:std:iso:4217","value":0}},{"url":"https://bluebutton.cms.gov/assets/ig/StructureDefinition-bluebutton-inpatient-clm-pass-thru-per-diem-amt-extension","valueMoney":{"code":"USD","system":"urn:iso:std:iso:4217","value":0}},{"url":"https://bluebutton.cms.gov/assets/ig/StructureDefinition-bluebutton-inpatient-nch-profnl-cmpnt-chrg-amt-extension","valueMoney":{"code":"USD","system":"urn:iso:std:iso:4217","value":0}},{"url":"https://bluebutton.cms.gov/assets/ig/StructureDefinition-bluebutton-inpatient-clm-tot-pps-cptl-amt-extension","valueMoney":{"code":"USD","system":"urn:iso:std:iso:4217","value":0}},{"url":"https://bluebutton.cms.gov/assets/ig/StructureDefinition-bluebutton-inpatient-nch-bene-ip-ddctbl-amt-extension","valueMoney":{"code":"USD","system":"urn:iso:std:iso:4217","value":0}},{"url":"https://bluebutton.cms.gov/assets/ig/StructureDefinition-bluebutton-inpatient-nch-bene-pta-coinsrnc-lblty-amt-extension","valueMoney":{"code":"USD","system":"urn:iso:std:iso:4217","value":0}},{"url":"https://bluebutton.cms.gov/assets/ig/StructureDefinition-bluebutton-inpatient-nch-ip-ncvrd-chrg-amt-extension","valueMoney":{"code":"USD","system":"urn:iso:std:iso:4217","value":0}},{"url":"https://bluebutton.cms.gov/assets/ig/StructureDefinition-bluebutton-inpatient-nch-ip-tot-ddctn-amt-extension","valueMoney":{"code":"USD","system":"urn:iso:std:iso:4217","value":0}},{"url":"https://bluebutton.cms.gov/assets/ig/StructureDefinition-bluebutton-inpatient-clm-pps-cptl-dsprprtnt-shr-amt-extension","valueMoney":{"code":"USD","system":"urn:iso:std:iso:4217","value":0}},{"url":"https://bluebutton.cms.gov/assets/ig/StructureDefinition-bluebutton-inpatient-clm-pps-cptl-excptn-amt-extension","valueMoney":{"code":"USD","system":"urn:iso:std:iso:4217","value":0}},{"url":"https://bluebutton.cms.gov/assets/ig/StructureDefinition-bluebutton-inpatient-clm-pps-cptl-fsp-amt-extension","valueMoney":{"code":"USD","system":"urn:iso:std:iso:4217","value":0}},{"url":"https://bluebutton.cms.gov/assets/ig/StructureDefinition-bluebutton-inpatient-clm-pps-cptl-ime-amt-extension","valueMoney":{"code":"USD","system":"urn:iso:std:iso:4217","value":400}},{"url":"https://bluebutton.cms.gov/assets/ig/StructureDefinition-bluebutton-inpatient-clm-pps-cptl-outlier-amt-extension","valueMoney":{"code":"USD","system":"urn:iso:std:iso:4217","value":0}},{"url":"https://bluebutton.cms.gov/assets/ig/StructureDefinition-bluebutton-inpatient-clm-pps-old-cptl-hld-hrmls-amt-extension","valueMoney":{"code":"USD","system":"urn:iso:std:iso:4217","value":0}},{"url":"https://bluebutton.cms.gov/assets/ig/StructureDefinition-bluebutton-inpatient-nch-drg-outlier-aprvd-pmt-amt-extension","valueMoney":{"code":"USD","system":"urn:iso:std:iso:4217","value":0}},{"url":"https://bluebutton.cms.gov/assets/ig/StructureDefinition-bluebutton-inpatient-nch-bene-blood-ddctbl-lblty-am-extension","valueMoney":{"code":"USD","system":"urn:iso:std:iso:4217","value":0}},{"url":"https://bluebutton.cms.gov/assets/ig/StructureDefinition-bluebutton-inpatient-clm-mdcr-non-pmt-rsn-cd-extension","valueCoding":{"code":"N","display":"All other reasons for non-payment","system":"https://bluebutton.cms.gov/assets/ig/CodeSystem-clm-mdcr-non-pmt-rsn-cd"}},{"url":"https://bluebutton.cms.gov/assets/ig/StructureDefinition-bluebutton-inpatient-prpayamt-extension","valueMoney":{"code":"USD","system":"urn:iso:std:iso:4217","value":0}},{"url":"https://bluebutton.cms.gov/assets/ig/StructureDefinition-bluebutton-inpatient-fi-num-extension","valueIdentifier":{"system":"https://bluebutton.cms.gov/assets/ig/CodeSystem-fi-num","value":"002000"}}],"id":"8a688939-382b-4a0a-8e90-78a0887f5037","identifier":[{"system":"https://bluebutton.cms.gov/resources/variables/clm_id","value":"7f8f12be-336b-41bd-ab58-10e1cd195adc"},{"system":"https://bluebutton.cms.gov/resources/identifier/claim-group","value":"99999999999"}],"insurance":{"coverage":{"reference":"#coverage"}},"item":[{"extension":[{"url":"https://bluebutton.cms.gov/assets/ig/StructureDefinition-bluebutton-inpatient-rev-cntr-ndc-qty-extension","valueQuantity":{"value":0}}],"locationCodeableConcept":{"coding":[{"code":"21","display":"Inpatient Hospital","system":"https://bluebutton.cms.gov/resources/variables/line_place_of_srvc_cd"}]},"sequence":1},{"extension":[{"url":"https://bluebutton.cms.gov/assets/ig/StructureDefinition-bluebutton-inpatient-rev-cntr-ndc-qty-extension","valueQuantity":{"value":0}}],"locationCodeableConcept":{"coding":[{"code":"21","display":"Inpatient Hospital","system":"https://bluebutton.cms.gov/resources/variables/line_place_of_srvc_cd"}]},"sequence":2},{"adjudication":[{"amount":{"code":"USD","system":"urn:iso:std:iso:4217","value":103.33},"category":{"coding":[{"code":"https://bluebutton.cms.gov/resources/variables/line_coinsrnc_amt","display":"Line Beneficiary Coinsurance Amount","system":"https://bluebutton.cms.gov/resources/codesystem/adjudication"}]}},{"amount":{"code":"USD","system":"urn:iso:std:iso:4217","value":413.32},"category":{"coding":[{"code":"https://bluebutton.cms.gov/resources/variables/line_prvdr_pmt_amt","display":"Line Provider Payment Amount","system":"https://bluebutton.cms.gov/resources/codesystem/adjudication"}]}},{"amount":{"code":"USD","system":"urn:iso:std:iso:4217","value":516.65},"category":{"coding":[{"code":"https://bluebutton.cms.gov/resources/variables/line_sbmtd_chrg_amt","display":"Line Submitted Charge Amount","system":"https://bluebutton.cms.gov/resources/codesystem/adjudication"}]}},{"amount":{"code":"USD","system":"urn:iso:std:iso:4217","value":516.65},"category":{"coding":[{"code":"https://bluebutton.cms.gov/resources/variables/line_alowd_chrg_amt","display":"Line Allowed Charge Amount","system":"https://bluebutton.cms.gov/resources/codesystem/adjudication"}]}},{"amount":{"code":"USD","system":"urn:iso:std:iso:4217","value":0},"category":{"coding":[{"code":"https://bluebutton.cms.gov/resources/variables/line_bene_ptb_ddctbl_amt","display":"Line Beneficiary Part B Deductible Amount","system":"https://bluebutton.cms.gov/resources/codesystem/adjudication"}]}},{"category":{"coding":[{"code":"https://bluebutton.cms.gov/resources/variables/line_prcsg_ind_cd","display":"Line Processing Indicator Code","system":"https://bluebutton.cms.gov/resources/codesystem/adjudication"}]}}],"extension":[{"url":"https://bluebutton.cms.gov/assets/ig/StructureDefinition-bluebutton-inpatient-rev-cntr-ndc-qty-extension","valueQuantity":{"value":0}}],"locationCodeableConcept":{"coding":[{"code":"21","display":"Inpatient Hospital","system":"https://bluebutton.cms.gov/resources/variables/line_place_of_srvc_cd"}]},"sequence":3,"service":{"coding":[{"code":"23426006","system":"http://snomed.info/sct","version":"v1"}]}}],"meta":{"lastUpdated":"2019-04-09T11:38:42.639152+00:00","profile":["https://bluebutton.cms.gov/assets/ig/StructureDefinition-bluebutton-inpatient-claim"],"versionId":"MTU1NDgwOTkyMjYzOTE1MjAwMA"},"organization":{"identifier":{"value":"915f9f66-75d8-46c2-8da4-04b35046240b"}},"patient":{"reference":"Patient/00ba2d77-4512-45d0-b58c-82ee3161b00e"},"payment":{"amount":{"code":"USD","system":"urn:iso:std:iso:4217","value":413.32}},"provider":{"identifier":{"value":"ebd27f21-bb93-4416-bdf8-84490ae394cc"}},"resourceType":"ExplanationOfBenefit","status":"active","totalCost":{"code":"USD","system":"urn:iso:std:iso:4217","value":641.65},"type":{"coding":[{"code":"71","display":"Local carrier non-durable medical equipment, prosthetics, orthotics, and supplies (DMEPOS) claim","system":"https://bluebutton.cms.gov/resources/variables/nch_clm_type_cd"},{"code":"CARRIER","display":"EOB Type","system":"https://bluebutton.cms.gov/resources/codesystem/eob-type"},{"code":"professional","display":"Claim Type","system":"http://hl7.org/fhir/ex-claimtype"},{"code":"O","display":"Part B physician/supplier claim record (processed by local carriers; can include DMEPOS services)","system":"https://bluebutton.cms.gov/resources/variables/nch_near_line_rec_ident_cd"}]}}}],"link":[{"url":"https://syntheticmass.mitre.org/v1/fhir/Patient/00ba2d77-4512-45d0-b58c-82ee3161b00e/$everything?_count=100&page_token=CoIBcHJvamVjdHMvc3ludGhlYS9sb2NhdGlvbnMvdXMtY2VudHJhbDEvZGF0YXNldHMvMjAxOTAyL2ZoaXJTdG9yZXMvc3ludGhldGljLW1hc3MvZmhpci9QYXRpZW50LzAwYmEyZDc3LTQ1MTItNDVkMC1iNThjLTgyZWUzMTYxYjAwZQ%3D%3D","relation":"previous"},{"url":"https://syntheticmass.mitre.org/v1/fhir/Patient/00ba2d77-4512-45d0-b58c-82ee3161b00e/$everything?_count=100&page_token=CoIBcHJvamVjdHMvc3ludGhlYS9sb2NhdGlvbnMvdXMtY2VudHJhbDEvZGF0YXNldHMvMjAxOTAyL2ZoaXJTdG9yZXMvc3ludGhldGljLW1hc3MvZmhpci9QYXRpZW50LzAwYmEyZDc3LTQ1MTItNDVkMC1iNThjLTgyZWUzMTYxYjAwZSDIAQ%3D%3D","relation":"next"}],"total":682}
