{"resourceType":"Bundle","type":"searchset","entry":[{"resource":{"billablePeriod":{"end":"2013-11-04T07:39:53-05:00","start":"2012-11-04T07:39:53-05:00"},"careTeam":[{"provider":{"identifier":{"system":"http://hl7.org/fhir/sid/us-npi","value":"99999999"}},"role":{"coding":[{"code":"primary","display":"Primary Care Practitioner","system":"http://hl7.org/fhir/claimcareteamrole"}]},"sequence":1}],"claim":{"reference":"Claim/6155dec0-c6ac-4e89-b243-e2cbb18323ba"},"contained":[{"id":"1","intent":"order","recipient":[{"identifier":{"system":"http://hl7.org/fhir/sid/us-npi","value":"99999999"}}],"requester":{"agent":{"identifier":{"system":"http://hl7.org/fhir/sid/us-npi","value":"99999999"}}},"resourceType":"ReferralRequest","status":"completed","subject":{"reference":"Patient/00ba2d77-4512-45d0-b58c-82ee3161b00e"}},{"id":"coverage","resourceType":"Coverage","type":{"text":"medicare"}}],"created":"2012-11-04T07:39:53-05:00","id":"8c433710-3868-453a-894e-92f884830cfc","identifier":[{"system":"https://bluebutton.cms.gov/resources/variables/clm_id","value":"6155dec0-c6ac-4e89-b243-e2cbb18323ba"},{"system":"https://bluebutton.cms.gov/resources/identifier/claim-group","value":"99999999999"}],"insurance":{"coverage":{"reference":"#coverage"}},"item":[{"category":{"coding":[{"code":"1","display":"Medical care","system":"https://bluebutton.cms.gov/resources/variables/line_cms_type_srvc_cd"}]},"encounter":[{"reference":"Encounter/4676d33b-5ac6-499e-97bf-3ac76b65e626"}],"locationCodeableConcept":{"coding":[{"code":"21","display":"Inpatient Hospital","system":"https://bluebutton.cms.gov/resources/variables/line_place_of_srvc_cd"}]},"sequence":1,"servicedPeriod":{"end":"2012-11-04T07:39:53-05:00","start":"2012-11-04T07:24:53-05:00"}},{"adjudication":[{"amount":{"code":"USD","system":"urn:iso:std:iso:4217","value":28.104000000000003},"category":{"coding":[{"code":"https://bluebutton.cms.gov/resources/variables/line_coinsrnc_amt","display":"Line Beneficiary Coinsurance Amount","system":"https://bluebutton.cms.gov/resources/codesystem/adjudication"}]}},{"amount":{"code":"USD","system":"urn:iso:std:iso:4217","value":112.41600000000001},"category":{"coding":[{"code":"https://bluebutton.cms.gov/resources/variables/line_prvdr_pmt_amt","display":"Line Provider Payment Amount","system":"https://bluebutton.cms.gov/resources/codesystem/adjudication"}]}},{"amount":{"code":"USD","system":"urn:iso:std:iso:4217","value":140.52},"category":{"coding":[{"code":"https://bluebutton.cms.gov/resources/variables/line_sbmtd_chrg_amt","display":"Line Submitted Charge Amount","system":"https://bluebutton.cms.gov/resources/codesystem/adjudication"}]}},{"amount":{"code":"USD","system":"urn:iso:std:iso:4217","value":140.52},"category":{"coding":[{"code":"https://bluebutton.cms.gov/resources/variables/line_alowd_chrg_amt","display":"Line Allowed Charge Amount","system":"https://bluebutton.cms.gov/resources/codesystem/adjudication"}]}},{"amount":{"code":"USD","system":"urn:iso:std:iso:4217","value":0},"category":{"coding":[{"code":"https://bluebutton.cms.gov/resources/variables/line_bene_ptb_ddctbl_amt","display":"Line Beneficiary Part B Deductible Amount","system":"https://bluebutton.cms.gov/resources/codesystem/adjudication"}]}},{"category":{"coding":[{"code":"https://bluebutton.cms.gov/resources/variables/line_prcsg_ind_cd","display":"Line Processing Indicator Code","system":"https://bluebutton.cms.gov/resources/codesystem/adjudication"}]},"reason":{"coding":[{"code":"A","display":"Allowed","system":"https://bluebutton.cms.gov/resources/variables/line_prcsg_ind_cd"}]}}],"category":{"coding":[{"code":"1","display":"Medical care","system":"https://bluebutton.cms.gov/resources/variables/line_cms_type_srvc_cd"}]},"informationLinkId":[1],"locationCodeableConcept":{"coding":[{"code":"21","display":"Inpatient Hospital","system":"https://bluebutton.cms.gov/resources/variables/line_place_of_srvc_cd"}]},"net":{"code":"USD","system":"urn:iso:std:iso:4217","value":140.52},"sequence":2,"servicedPeriod":{"end":"2012-11-04T07:39:53-05:00","start":"2012-11-04T07:24:53-05:00"}}],"meta":{"lastUpdated":"2019-04-09T11:38:38.474841+00:00","versionId":"MTU1NDgwOTkxODQ3NDg0MTAwMA"},"organization":{"identifier":{"value":"915f9f66-75d8-46c2-8da4-04b35046240b"}},"patient":{"reference":"Patient/00ba2d77-4512-45d0-b58c-82ee3161b00e"},"payment":{"amount":{"code":"USD","system":"urn:iso:std:iso:4217","value":112.41600000000001}},"provider":{"identifier":{"value":"ebd27f21-bb93-4416-bdf8-84490ae394cc"}},"referral":{"reference":"#1"},"resourceType":"ExplanationOfBenefit","status":"active","totalCost":{"code":"USD","system":"urn:iso:std:iso:4217","value":265.52},"type":{"coding":[{"code":"71","display":"Local carrier non-durable medical equipment, prosthetics, orthotics, and supplies (DMEPOS) claim","system":"https://bluebutton.cms.gov/resources/variables/nch_clm_type_cd"},{"code":"CARRIER","display":"EOB Type","system":"https://bluebutton.cms.gov/resources/codesystem/eob-type"},{"code":"professional","display":"Claim Type","system":"http://hl7.org/fhir/ex-claimtype"},{"code":"O","display":"Part B physician/supplier claim record (processed by local carriers; can include DMEPOS services)","system":"https://bluebutton.cms.gov/resources/variables/nch_near_line_rec_ident_cd"}]}}},{"resource":{"billablePeriod":{"end":"2000-09-06T08:39:53-04:00","extension":[{"url":"https://bluebutton.cms.gov/assets/ig/StructureDefinition-bluebutton-inpatient-claim-query-cd-extension","valueCoding":{"code":"3","display":"Final Bill","system":"https://bluebutton.cms.gov/assets/ig/ValueSet-claim-query-cd"}}],"start":"1999-09-06T08:39:53-04:00"},"careTeam":[{"provider":{"identifier":{"system":"http://hl7.org/fhir/sid/us-npi","value":"99999999"}},"role":{"coding":[{"code":"primary","display":"Primary Care Practitioner","system":"http://hl7.org/fhir/claimcareteamrole"}]},"sequence":1}],"contained":[{"id":"coverage","resourceType":"Coverage","type":{"text":"private"}}],"extension":[{"url":"https://bluebutton.cms.gov/assets/ig/StructureDefinition-bluebutton-inpatient-ime-op-clm-val-amt-extension","valueMoney":{"code":"USD","system":"urn:iso:std:iso:4217","value":400}},{"url":"https://bluebutton.cms.gov/assets/ig/StructureDefinition-bluebutton-inpatient-dsh-op-clm-val-amt-extension","valueMoney":{"code":"USD","system":"urn:iso:std:iso:4217","value":0}},{"url":"https://bluebutton.cms.gov/assets/ig/StructureDefinition-bluebutton-inpatient-clm-pass-thru-per-diem-amt-extension","valueMoney":{"code":"USD","system":"urn:iso:std:iso:4217","value":0}},{"url":"https://bluebutton.cms.gov/assets/ig/StructureDefinition-bluebutton-inpatient-nch-profnl-cmpnt-chrg-amt-extension","valueMoney":{"code":"USD","system":"urn:iso:std:iso:4217","value":0}},{"url":"https://bluebutton.cms.gov/assets/ig/StructureDefinition-bluebutton-inpatient-clm-tot-pps-cptl-amt-extension","valueMoney":{"code":"USD","system":"urn:iso:std:iso:4217","value":0}},{"url":"https://bluebutton.cms.gov/assets/ig/StructureDefinition-bluebutton-inpatient-nch-bene-ip-ddctbl-amt-extension","valueMoney":{"code":"USD","system":"urn:iso:std:iso:4217","value":0}},{"url":"https://bluebutton.cms.gov/assets/ig/StructureDefinition-bluebutton-inpatient-nch-bene-pta-coinsrnc-lblty-amt-extension","valueMoney":{"code":"USD","system":"urn:iso:std:iso:4217","value":0}},{"url":"https://bluebutton.cms.gov/assets/ig/StructureDefinition-bluebutton-inpatient-nch-ip-ncvrd-chrg-amt-extension","valueMoney":{"code":"USD","system":"urn:iso:std:iso:4217","value":0}},{"url":"https://bluebutton.cms.gov/assets/ig/StructureDefinition-bluebutton-inpatient-nch-ip-tot-ddctn-amt-extension","valueMoney":{"code":"USD","system":"urn:iso:std:iso:4217","value":0}},{"url":"https://bluebutton.cms.gov/assets/ig/StructureDefinition-bluebutton-inpatient-clm-pps-cptl-dsprprtnt-shr-amt-extension","valueMoney":{"code":"USD","system":"urn:iso:std:iso:4217","value":0}},{"url":"https://bluebutton.cms.gov/assets/ig/StructureDefinition-bluebutton-inpatient-clm-pps-cptl-excptn-amt-extension","valueMoney":{"code":"USD","system":"urn:iso:std:iso:4217","value":0}},{"url":"https://bluebutton.cms.gov/assets/ig/StructureDefinition-bluebutton-inpatient-clm-pps-cptl-fsp-amt-extension","valueMoney":{"code":"USD","system":"urn:iso:std:iso:4217","value":0}},{"url":"https://bluebutton.cms.gov/assets/ig/StructureDefinition-bluebutton-inpatient-clm-pps-cptl-ime-amt-extension","valueMoney":{"code":"USD","system":"urn:iso:std:iso:4217","value":400}},{"url":"https://bluebutton.cms.gov/assets/ig/StructureDefinition-bluebutton-inpatient-clm-pps-cptl-outlier-amt-extension","valueMoney":{"code":"USD","system":"urn:iso:std:iso:4217","value":0}},{"url":"https://bluebutton.cms.gov/assets/ig/StructureDefinition-bluebutton-inpatient-clm-pps-old-cptl-hld-hrmls-amt-extension","valueMoney":{"code":"USD","system":"urn:iso:std:iso:4217","value":0}},{"url":"https://bluebutton.cms.gov/assets/ig/StructureDefinition-bluebutton-inpatient-nch-drg-outlier-aprvd-pmt-amt-extension","valueMoney":{"code":"USD","system":"urn:iso:std:iso:4217","value":0}},{"url":"https://bluebutton.cms.gov/assets/ig/StructureDefinition-bluebutton-inpatient-nch-bene-blood-ddctbl-lblty-am-extension","valueMoney":{"code":"USD","system":"urn:iso:std:iso:4217","value":0}},{"url":"https://bluebutton.cms.gov/assets/ig/StructureDefinition-bluebutton-inpatient-clm-mdcr-non-pmt-rsn-cd-extension","valueCoding":{"code":"N","display":"All other reasons for non-payment","system":"https://bluebutton.cms.gov/assets/ig/CodeSystem-clm-mdcr-non-pmt-rsn-cd"}},{"url":"https://bluebutton.cms.gov/assets/ig/StructureDefinition-bluebutton-inpatient-prpayamt-extension","valueMoney":{"code":"USD","system":"urn:iso:std:iso:4217","value":0}},{"url":"https://bluebutton.cms.gov/assets/ig/StructureDefinition-bluebutton-inpatient-fi-num-extension","valueIdentifier":{"system":"https://bluebutton.cms.gov/assets/ig/CodeSystem-fi-num","value":"002000"}}],"id":"8ceff34b-092b-40fe-be2a-f88447e5b4e5","identifier":[{"system":"https://bluebutton.cms.gov/resources/variables/clm_id","value":"1e7fa890-e8da-4430-be6e-e7117f91c30d"},{"system":"https://bluebutton.cms.gov/resources/identifier/claim-group","value":"99999999999"}],"insurance":{"coverage":{"reference":"#coverage"}},"item":[{"extension":[{"url":"https://bluebutton.cms.gov/assets/ig/StructureDefinition-bluebutton-inpatient-rev-cntr-ndc-qty-extension","valueQuantity":{"value":0}}],"locationCodeableConcept":{"coding":[{"code":"21","display":"Inpatient Hospital","system":"https://bluebutton.cms.gov/resources/variables/line_place_of_srvc_cd"}]},"sequence":1}],"meta":{"lastUpdated":"2019-04-09T11:38:30.280155+00:00","profile":["https://bluebutton.cms.gov/assets/ig/StructureDefinition-bluebutton-inpatient-claim"],"versionId":"MTU1NDgwOTkxMDI4MDE1NTAwMA"},"organization":{"identifier":{"value":"915f9f66-75d8-46c2-8da4-04b35046240b"}},"patient":{"reference":"Patient/00ba2d77-4512-45d0-b58c-82ee3161b00e"},"payment":{"amount":{"code":"USD","system":"urn:iso:std:iso:4217","value":0}},"provider":{"identifier":{"value":"ebd27f21-bb93-4416-bdf8-84490ae394cc"}},"resourceType":"ExplanationOfBenefit","status":"active","totalCost":{"code":"USD","system":"urn:iso:std:iso:4217","value":125},"type":{"coding":[{"code":"71","display":"Local carrier non-durable medical equipment, prosthetics, orthotics, and supplies (DMEPOS) claim","system":"https://bluebutton.cms.gov/resources/variables/nch_clm_type_cd"},{"code":"CARRIER","display":"EOB Type","system":"https://bluebutton.cms.gov/resources/codesystem/eob-type"},{"code":"professional","display":"Claim Type","system":"http://hl7.org/fhir/ex-claimtype"},{"code":"O","display":"Part B physician/supplier claim record (processed by local carriers; can include DMEPOS services)","system":"https://bluebutton.cms.gov/resources/variables/nch_near_line_rec_ident_cd"}]}}},{"resource":{"billablePeriod":{"end":"2010-09-03T08:39:53-04:00","extension":[{"url":"https://bluebutton.cms.gov/assets/ig/StructureDefinition-bluebutton-inpatient-claim-query-cd-extension","valueCoding":{"code":"3","display":"Final Bill","system":"https://bluebutton.cms.gov/assets/ig/ValueSet-claim-query-cd"}}],"start":"2009-09-03T08:39:53-04:00"},"careTeam":[{"provider":{"identifier":{"system":"http://hl7.org/fhir/sid/us-npi","value":"99999999"}},"role":{"coding":[{"code":"primary","display":"Primary Care Practitioner","system":"http://hl7.org/fhir/claimcareteamrole"}]},"sequence":1}],"contained":[{"id":"coverage","resourceType":"Coverage","type":{"text":"medicare"}}],"extension":[{"url":"https://bluebutton.cms.gov/assets/ig/StructureDefinition-bluebutton-inpatient-ime-op-clm-val-amt-extension","valueMoney":{"code":"USD","system":"urn:iso:std:iso:4217","value":400}},{"url":"https://bluebutton.cms.gov/assets/ig/StructureDefinition-bluebutton-inpatient-dsh-op-clm-val-amt-extension","valueMoney":{"code":"USD","system":"urn:iso:std:iso:4217","value":0}},{"url":"https://bluebutton.cms.gov/assets/ig/StructureDefinition-bluebutton-inpatient-clm-pass-thru-per-diem-amt-extension","valueMoney":{"code":"USD","system":"urn:iso:std:iso:4217","value":0}},{"url":"https://bluebutton.cms.gov/assets/ig/StructureDefinition-bluebutton-inpatient-nch-profnl-cmpnt-chrg-amt-extension","valueMoney":{"code":"USD","system":"urn:iso:std:iso:4217","value":0}},{"url":"https://bluebutton.cms.gov/assets/ig/StructureDefinition-bluebutton-inpatient-clm-tot-pps-cptl-amt-extension","valueMoney":{"code":"USD","system":"urn:iso:std:iso:4217","value":0}},{"url":"https://bluebutton.cms.gov/assets/ig/StructureDefinition-bluebutton-inpatient-nch-bene-ip-ddctbl-amt-extension","valueMoney":{"code":"USD","system":"urn:iso:std:iso:4217","value":0}},{"url":"https://bluebutton.cms.gov/assets/ig/StructureDefinition-bluebutton-inpatient-nch-bene-pta-coinsrnc-lblty-amt-extension","valueMoney":{"code":"USD","system":"urn:iso:std:iso:4217","value":0}},{"url":"https://bluebutton.cms.gov/assets/ig/StructureDefinition-bluebutton-inpatient-nch-ip-ncvrd-chrg-amt-extension","valueMoney":{"code":"USD","system":"urn:iso:std:iso:4217","value":0}},{"url":"https://bluebutton.cms.gov/assets/ig/StructureDefinition-bluebutton-inpatient-nch-ip-tot-ddctn-amt-extension","valueMoney":{"code":"USD","system":"urn:iso:std:iso:4217","value":0}},{"url":"https://bluebutton.cms.gov/assets/ig/StructureDefinition-bluebutton-inpatient-clm-pps-cptl-dsprprtnt-shr-amt-extension","valueMoney":{"code":"USD","system":"urn:iso:std:iso:4217","value":0}},{"url":"https://bluebutton.cms.gov/assets/ig/StructureDefinition-bluebutton-inpatient-clm-pps-cptl-excptn-amt-extension","valueMoney":{"code":"USD","system":"urn:iso:std:iso:4217","value":0}},{"url":"https://bluebutton.cms.gov/assets/ig/StructureDefinition-bluebutton-inpatient-clm-pps-cptl-fsp-amt-extension","valueMoney":{"code":"USD","system":"urn:iso:std:iso:4217","value":0}},{"url":"https://bluebutton.cms.gov/assets/ig/StructureDefinition-bluebutton-inpatient-clm-pps-cptl-ime-amt-extension","valueMoney":{"code":"USD","system":"urn:iso:std:iso:4217","value":400}},{"url":"https://bluebutton.cms.gov/assets/ig/StructureDefinition-bluebutton-inpatient-clm-pps-cptl-outlier-amt-extension","valueMoney":{"code":"USD","system":"urn:iso:std:iso:4217","value":0}},{"url":"https://bluebutton.cms.gov/assets/ig/StructureDefinition-bluebutton-inpatient-clm-pps-old-cptl-hld-hrmls-amt-extension","valueMoney":{"code":"USD","system":"urn:iso:std:iso:4217","value":0}},{"url":"https://bluebutton.cms.gov/assets/ig/StructureDefinition-bluebutton-inpatient-nch-drg-outlier-aprvd-pmt-amt-extension","valueMoney":{"code":"USD","system":"urn:iso:std:iso:4217","value":0}},{"url":"https://bluebutton.cms.gov/assets/ig/StructureDefinition-bluebutton-inpatient-nch-bene-blood-ddctbl-lblty-am-extension","valueMoney":{"code":"USD","system":"urn:iso:std:iso:4217","value":0}},{"url":"https://bluebutton.cms.gov/assets/ig/StructureDefinition-bluebutton-inpatient-clm-mdcr-non-pmt-rsn-cd-extension","valueCoding":{"code":"N","display":"All other reasons for non-payment","system":"https://bluebutton.cms.gov/assets/ig/CodeSystem-clm-mdcr-non-pmt-rsn-cd"}},{"url":"https://bluebutton.cms.gov/assets/ig/StructureDefinition-bluebutton-inpatient-prpayamt-extension","valueMoney":{"code":"USD","system":"urn:iso:std:iso:4217","value":0}},{"url":"https://bluebutton.cms.gov/assets/ig/StructureDefinition-bluebutton-inpatient-fi-num-extension","valueIdentifier":{"system":"https://bluebutton.cms.gov/assets/ig/CodeSystem-fi-num","value":"002000"}}],"id":"8d105854-caa1-4661-bfef-82f3d5f9b4b6","identifier":[{"system":"https://bluebutton.cms.gov/resources/variables/clm_id","value":"81979f03-9be9-418a-99bf-647ad46c117c"},{"system":"https://bluebutton.cms.gov/resources/identifier/claim-group","value":"99999999999"}],"insurance":{"coverage":{"reference":"#coverage"}},"item":[{"extension":[{"url":"https://bluebutton.cms.gov/assets/ig/StructureDefinition-bluebutton-inpatient-rev-cntr-ndc-qty-extension","valueQuantity":{"value":0}}],"locationCodeableConcept":{"coding":[{"code":"21","display":"Inpatient Hospital","system":"https://bluebutton.cms.gov/resources/variables/line_place_of_srvc_cd"}]},"sequence":1}],"meta":{"lastUpdated":"2019-04-09T11:38:33.378655+00:00","profile":["https://bluebutton.cms.gov/assets/ig/StructureDefinition-bluebutton-inpatient-claim"],"versionId":"MTU1NDgwOTkxMzM3ODY1NTAwMA"},"organization":{"identifier":{"value":"915f9f66-75d8-46c2-8da4-04b35046240b"}},"patient":{"reference":"Patient/00ba2d77-4512-45d0-b58c-82ee3161b00e"},"payment":{"amount":{"code":"USD","system":"urn:iso:std:iso:4217","value":0}},"provider":{"identifier":{"value":"ebd27f21-bb93-4416-bdf8-84490ae394cc"}},"resourceType":"ExplanationOfBenefit","status":"active","totalCost":{"code":"USD","system":"urn:iso:std:iso:4217","value":125},"type":{"coding":[{"code":"71","display":"Local carrier non-durable medical equipment, prosthetics, orthotics, and supplies (DMEPOS) claim","system":"https://bluebutton.cms.gov/resources/variables/nch_clm_type_cd"},{"code":"CARRIER","display":"EOB Type","system":"https://bluebutton.cms.gov/resources/codesystem/eob-type"},{"code":"professional","display":"Claim Type","system":"http://hl7.org/fhir/ex-claimtype"},{"code":"O","display":"Part B physician/supplier claim record (processed by local carriers; can include DMEPOS services)","system":"https://bluebutton.cms.gov/resources/variables/nch_near_line_rec_ident_cd"}]}}},{"resource":{"billablePeriod":{"end":"1992-09-08T08:39:53-04:00","extension":[{"url":"https://bluebutton.cms.gov/assets/ig/StructureDefinition-bluebutton-inpatient-claim-query-cd-extension","valueCoding":{"code":"3","display":"Final Bill","system":"https://bluebutton.cms.gov/assets/ig/ValueSet-claim-query-cd"}}],"start":"1991-09-08T08:39:53-04:00"},"careTeam":[{"provider":{"identifier":{"system":"http://hl7.org/fhir/sid/us-npi","value":"99999999"}},"role":{"coding":[{"code":"primary","display":"Primary Care Practitioner","system":"http://hl7.org/fhir/claimcareteamrole"}]},"sequence":1}],"contained":[{"id":"coverage","resourceType":"Coverage","type":{"text":"private"}}],"extension":[{"url":"https://bluebutton.cms.gov/assets/ig/StructureDefinition-bluebutton-inpatient-ime-op-clm-val-amt-extension","valueMoney":{"code":"USD","system":"urn:iso:std:iso:4217","value":400}},{"url":"https://bluebutton.cms.gov/assets/ig/StructureDefinition-bluebutton-inpatient-dsh-op-clm-val-amt-extension","valueMoney":{"code":"USD","system":"urn:iso:std:iso:4217","value":0}},{"url":"https://bluebutton.cms.gov/assets/ig/StructureDefinition-bluebutton-inpatient-clm-pass-thru-per-diem-amt-extension","valueMoney":{"code":"USD","system":"urn:iso:std:iso:4217","value":0}},{"url":"https://bluebutton.cms.gov/assets/ig/StructureDefinition-bluebutton-inpatient-nch-profnl-cmpnt-chrg-amt-extension","valueMoney":{"code":"USD","system":"urn:iso:std:iso:4217","value":0}},{"url":"https://bluebutton.cms.gov/assets/ig/StructureDefinition-bluebutton-inpatient-clm-tot-pps-cptl-amt-extension","valueMoney":{"code":"USD","system":"urn:iso:std:iso:4217","value":0}},{"url":"https://bluebutton.cms.gov/assets/ig/StructureDefinition-bluebutton-inpatient-nch-bene-ip-ddctbl-amt-extension","valueMoney":{"code":"USD","system":"urn:iso:std:iso:4217","value":0}},{"url":"https://bluebutton.cms.gov/assets/ig/StructureDefinition-bluebutton-inpatient-nch-bene-pta-coinsrnc-lblty-amt-extension","valueMoney":{"code":"USD","system":"urn:iso:std:iso:4217","value":0}},{"url":"https://bluebutton.cms.gov/assets/ig/StructureDefinition-bluebutton-inpatient-nch-ip-ncvrd-chrg-amt-extension","valueMoney":{"code":"USD","system":"urn:iso:std:iso:4217","value":0}},{"url":"https://bluebutton.cms.gov/assets/ig/StructureDefinition-bluebutton-inpatient-nch-ip-tot-ddctn-amt-extension","valueMoney":{"code":"USD","system":"urn:iso:std:iso:4217","value":0}},{"url":"https://bluebutton.cms.gov/assets/ig/StructureDefinition-bluebutton-inpatient-clm-pps-cptl-dsprprtnt-shr-amt-extension","valueMoney":{"code":"USD","system":"urn:iso:std:iso:4217","value":0}},{"url":"https://bluebutton.cms.gov/assets/ig/StructureDefinition-bluebutton-inpatient-clm-pps-cptl-excptn-amt-extension","valueMoney":{"code":"USD","system":"urn:iso:std:iso:4217","value":0}},{"url":"https://bluebutton.cms.gov/assets/ig/StructureDefinition-bluebutton-inpatient-clm-pps-cptl-fsp-amt-extension","valueMoney":{"code":"USD","system":"urn:iso:std:iso:4217","value":0}},{"url":"https://bluebutton.cms.gov/assets/ig/StructureDefinition-bluebutton-inpatient-clm-pps-cptl-ime-amt-extension","valueMoney":{"code":"USD","system":"urn:iso:std:iso:4217","value":400}},{"url":"https://bluebutton.cms.gov/assets/ig/StructureDefinition-bluebutton-inpatient-clm-pps-cptl-outlier-amt-extension","valueMoney":{"code":"USD","system":"urn:iso:std:iso:4217","value":0}},{"url":"https://bluebutton.cms.gov/assets/ig/StructureDefinition-bluebutton-inpatient-clm-pps-old-cptl-hld-hrmls-amt-extension","valueMoney":{"code":"USD","system":"urn:iso:std:iso:4217","value":0}},{"url":"https://bluebutton.cms.gov/assets/ig/StructureDefinition-bluebutton-inpatient-nch-drg-outlier-aprvd-pmt-amt-extension","valueMoney":{"code":"USD","system":"urn:iso:std:iso:4217","value":0}},{"url":"https://bluebutton.cms.gov/assets/ig/StructureDefinition-bluebutton-inpatient-nch-bene-blood-ddctbl-lblty-am-extension","valueMoney":{"code":"USD","system":"urn:iso:std:iso:4217","value":0}},{"url":"https://bluebutton.cms.gov/assets/ig/StructureDefinition-bluebutton-inpatient-clm-mdcr-non-pmt-rsn-cd-extension","valueCoding":{"code":"N","display":"All other reasons for non-payment","system":"https://bluebutton.cms.gov/assets/ig/CodeSystem-clm-mdcr-non-pmt-rsn-cd"}},{"url":"https://bluebutton.cms.gov/assets/ig/StructureDefinition-bluebutton-inpatient-prpayamt-extension","valueMoney":{"code":"USD","system":"urn:iso:std:iso:4217","value":0}},{"url":"https://bluebutton.cms.gov/assets/ig/StructureDefinition-bluebutton-inpatient-fi-num-extension","valueIdentifier":{"system":"https://bluebutton.cms.gov/assets/ig/CodeSystem-fi-num","value":"002000"}}],"id":"93a488a9-eb94-4135-ba2e-9637d10285e2","identifier":[{"system":"https://bluebutton.cms.gov/resources/variables/clm_id","value":"bdf95967-0038-437f-8b0d-b70edc422885"},{"system":"https://bluebutton.cms.gov/resources/identifier/claim-group","value":"99999999999"}],"insurance":{"coverage":{"reference":"#coverage"}},"item":[{"extension":[{"url":"https://bluebutton.cms.gov/assets/ig/StructureDefinition-bluebutton-inpatient-rev-cntr-ndc-qty-extension","valueQuantity":{"value":0}}],"locationCodeableConcept":{"coding":[{"code":"21","display":"Inpatient Hospital","system":"https://bluebutton.cms.gov/resources/variables/line_place_of_srvc_cd"}]},"sequence":1}],"meta":{"lastUpdated":"2019-04-09T11:38:30.280857+00:00","profile":["https://bluebutton.cms.gov/assets/ig/StructureDefinition-bluebutton-inpatient-claim"],"versionId":"MTU1NDgwOTkxMDI4MDg1NzAwMA"},"organization":{"identifier":{"value":"915f9f66-75d8-46c2-8da4-04b35046240b"}},"patient":{"reference":"Patient/00ba2d77-4512-45d0-b58c-82ee3161b00e"},"payment":{"amount":{"code":"USD","system":"urn:iso:std:iso:4217","value":0}},"provider":{"identifier":{"value":"ebd27f21-bb93-4416-bdf8-84490ae394cc"}},"resourceType":"ExplanationOfBenefit","status":"active","totalCost":{"code":"USD","system":"urn:iso:std:iso:4217","value":125},"type":{"coding":[{"code":"71","display":"Local carrier non-durable medical equipment, prosthetics, orthotics, and supplies (DMEPOS) claim","system":"https://bluebutton.cms.gov/resources/variables/nch_clm_type_cd"},{"code":"CARRIER","display":"EOB Type","system":"https://bluebutton.cms.gov/resources/codesystem/eob-type"},{"code":"professional","display":"Claim Type","system":"http://hl7.org/fhir/ex-claimtype"},{"code":"O","display":"Part B physician/supplier claim record (processed by local carriers; can include DMEPOS services)","system":"https://bluebutton.cms.gov/resources/variables/nch_near_line_rec_ident_cd"}]}}},{"resource":{"billablePeriod":{"end":"2014-11-10T07:54:53-05:00","start":"2013-11-10T07:54:53-05:00"},"careTeam":[{"provider":{"identifier":{"system":"http://hl7.org/fhir/sid/us-npi","value":"99999999"}},"role":{"coding":[{"code":"primary","display":"Primary Care Practitioner","system":"http://hl7.org/fhir/claimcareteamrole"}]},"sequence":1}],"claim":{"reference":"Claim/02fe2708-194e-45a0-873a-c15eb6debd22"},"contained":[{"id":"1","intent":"order","recipient":[{"identifier":{"system":"http://hl7.org/fhir/sid/us-npi","value":"99999999"}}],"requester":{"agent":{"identifier":{"system":"http://hl7.org/fhir/sid/us-npi","value":"99999999"}}},"resourceType":"ReferralRequest","status":"completed","subject":{"reference":"Patient/00ba2d77-4512-45d0-b58c-82ee3161b00e"}},{"id":"coverage","resourceType":"Coverage","type":{"text":"medicare"}}],"created":"2013-11-10T07:54:53-05:00","id":"9e682653-2715-47ee-ab35-3f17ddfc627f","identifier":[{"system":"https://bluebutton.cms.gov/resources/variables/clm_id","value":"02fe2708-194e-45a0-873a-c15eb6debd22"},{"system":"https://bluebutton.cms.gov/resources/identifier/claim-group","value":"99999999999"}],"insurance":{"coverage":{"reference":"#coverage"}},"item":[{"category":{"coding":[{"code":"1","display":"Medical care","system":"https://bluebutton.cms.gov/resources/variables/line_cms_type_srvc_cd"}]},"encounter":[{"reference":"Encounter/78c0926a-2466-4c84-aee0-4e649adb2479"}],"locationCodeableConcept":{"coding":[{"code":"21","display":"Inpatient Hospital","system":"https://bluebutton.cms.gov/resources/variables/line_place_of_srvc_cd"}]},"sequence":1,"servicedPeriod":{"end":"2013-11-10T07:54:53-05:00","start":"2013-11-10T07:24:53-05:00"}},{"adjudication":[{"amount":{"code":"USD","system":"urn:iso:std:iso:4217","value":28.104000000000003},"category":{"coding":[{"code":"https://bluebutton.cms.gov/resources/variables/line_coinsrnc_amt","display":"Line Beneficiary Coinsurance Amount","system":"https://bluebutton.cms.gov/resources/codesystem/adjudication"}]}},{"amount":{"code":"USD","system":"urn:iso:std:iso:4217","value":112.41600000000001},"category":{"coding":[{"code":"https://bluebutton.cms.gov/resources/variables/line_prvdr_pmt_amt","display":"Line Provider Payment Amount","system":"https://bluebutton.cms.gov/resources/codesystem/adjudication"}]}},{"amount":{"code":"USD","system":"urn:iso:std:iso:4217","value":140.52},"category":{"coding":[{"code":"https://bluebutton.cms.gov/resources/variables/line_sbmtd_chrg_amt","display":"Line Submitted Charge Amount","system":"https://bluebutton.cms.gov/resources/codesystem/adjudication"}]}},{"amount":{"code":"USD","system":"urn:iso:std:iso:4217","value":140.52},"category":{"coding":[{"code":"https://bluebutton.cms.gov/resources/variables/line_alowd_chrg_amt","display":"Line Allowed Charge Amount","system":"https://bluebutton.cms.gov/resources/codesystem/adjudication"}]}},{"amount":{"code":"USD","system":"urn:iso:std:iso:4217","value":0},"category":{"coding":[{"code":"https://bluebutton.cms.gov/resources/variables/line_bene_ptb_ddctbl_amt","display":"Line Beneficiary Part B Deductible Amount","system":"https://bluebutton.cms.gov/resources/codesystem/adjudication"}]}},{"category":{"coding":[{"code":"https://bluebutton.cms.gov/resources/variables/line_prcsg_ind_cd","display":"Line Processing Indicator Code","system":"https://bluebutton.cms.gov/resources/codesystem/adjudication"}]},"reason":{"coding":[{"code":"A","display":"Allowed","system":"https://bluebutton.cms.gov/resources/variables/line_prcsg_ind_cd"}]}}],"category":{"coding":[{"code":"1","display":"Medical care","system":"https://bluebutton.cms.gov/resources/variables/line_cms_type_srvc_cd"}]},"informationLinkId":[1],"locationCodeableConcept":{"coding":[{"code":"21","display":"Inpatient Hospital","system":"https://bluebutton.cms.gov/resources/variables/line_place_of_srvc_cd"}]},"net":{"code":"USD","system":"urn:iso:std:iso:4217","value":140.52},"sequence":2,"servicedPeriod":{"end":"2013-11-10T07:54:53-05:00","start":"2013-11-10T07:24:53-05:00"}},{"adjudication":[{"amount":{"code":"USD","system":"urn:iso:std:iso:4217","value":101.468},"category":{"coding":[{"code":"https://bluebutton.cms.gov/resources/variables/line_coinsrnc_amt","display":"Line Beneficiary Coinsurance Amount","system":"https://bluebutton.cms.gov/resources/codesystem/adjudication"}]}},{"amount":{"code":"USD","system":"urn:iso:std:iso:4217","value":405.872},"category":{"coding":[{"code":"https://bluebutton.cms.gov/resources/variables/line_prvdr_pmt_amt","display":"Line Provider Payment Amount","system":"https://bluebutton.cms.gov/resources/codesystem/adjudication"}]}},{"amount":{"code":"USD","system":"urn:iso:std:iso:4217","value":507.34},"category":{"coding":[{"code":"https://bluebutton.cms.gov/resources/variables/line_sbmtd_chrg_amt","display":"Line Submitted Charge Amount","system":"https://bluebutton.cms.gov/resources/codesystem/adjudication"}]}},{"amount":{"code":"USD","system":"urn:iso:std:iso:4217","value":507.34},"category":{"coding":[{"code":"https://bluebutton.cms.gov/resources/variables/line_alowd_chrg_amt","display":"Line Allowed Charge Amount","system":"https://bluebutton.cms.gov/resources/codesystem/adjudication"}]}},{"amount":{"code":"USD","system":"urn:iso:std:iso:4217","value":0},"category":{"coding":[{"code":"https://bluebutton.cms.gov/resources/variables/line_bene_ptb_ddctbl_amt","display":"Line Beneficiary Part B Deductible Amount","system":"https://bluebutton.cms.gov/resources/codesystem/adjudication"}]}},{"category":{"coding":[{"code":"https://bluebutton.cms.gov/resources/variables/line_prcsg_ind_cd","display":"Line Processing Indicator Code","system":"https://bluebutton.cms.gov/resources/codesystem/adjudication"}]},"reason":{"coding":[{"code":"A","display":"Allowed","system":"https://bluebutton.cms.gov/resources/variables/line_prcsg_ind_cd"}]}}],"category":{"coding":[{"code":"1","display":"Medical care","system":"https://bluebutton.cms.gov/resources/variables/line_cms_type_srvc_cd"}]},"locationCodeableConcept":{"coding":[{"code":"21","display":"Inpatient Hospital","system":"https://bluebutton.cms.gov/resources/variables/line_place_of_srvc_cd"}]},"net":{"code":"USD","system":"urn:iso:std:iso:4217","value":507.34},"sequence":3,"service":{"coding":[{"code":"428191000124101","system":"http://snomed.info/sct","version":"v1"}]},"servicedPeriod":{"end":"2013-11-10T07:54:53-05:00","start":"2013-11-10T07:24:53-05:00"}}],"meta":{"lastUpdated":"2019-04-09T11:38:40.543118+00:00","versionId":"MTU1NDgwOTkyMDU0MzExODAwMA"},"organization":{"identifier":{"value":"915f9f66-75d8-46c2-8da4-04b35046240b"}},"patient":{"reference":"Patient/00ba2d77-4512-45d0-b58c-82ee3161b00e"},"payment":{"amount":{"code":"USD","system":"urn:iso:std:iso:4217","value":518.288}},"provider":{"identifier":{"value":"ebd27f21-bb93-4416-bdf8-84490ae394cc"}},"referral":{"reference":"#1"},"resourceType":"ExplanationOfBenefit","status":"active","totalCost":{"code":"USD","system":"urn:iso:std:iso:4217","value":772.86},"type":{"coding":[{"code":"71","display":"Local carrier non-durable medical equipment, prosthetics, orthotics, and supplies (DMEPOS) claim","system":"https://bluebutton.cms.gov/resources/variables/nch_clm_type_cd"},{"code":"CARRIER","display":"EOB Type","system":"https://bluebutton.cms.gov/resources/codesystem/eob-type"},{"code":"professional","display":"Claim Type","system":"http://hl7.org/fhir/ex-claimtype"},{"code":"O","display":"Part B physician/supplier claim record (processed by local carriers; can include DMEPOS services)","system":"https://bluebutton.cms.gov/resources/variables/nch_near_line_rec_ident_cd"}]}}},{"resource":{"billablePeriod":{"end":"1994-09-07T08:39:53-04:00","extension":[{"url":"https://bluebutton.cms.gov/assets/ig/StructureDefinition-bluebutton-inpatient-claim-query-cd-extension","valueCoding":{"code":"3","display":"Final Bill","system":"https://bluebutton.cms.gov/assets/ig/ValueSet-claim-query-cd"}}],"start":"1993-09-07T08:39:53-04:00"},"careTeam":[{"provider":{"identifier":{"system":"http://hl7.org/fhir/sid/us-npi","value":"99999999"}},"role":{"coding":[{"code":"primary","display":"Primary Care Practitioner","system":"http://hl7.org/fhir/claimcareteamrole"}]},"sequence":1}],"contained":[{"id":"coverage","resourceType":"Coverage","type":{"text":"private"}}],"extension":[{"url":"https://bluebutton.cms.gov/assets/ig/StructureDefinition-bluebutton-inpatient-ime-op-clm-val-amt-extension","valueMoney":{"code":"USD","system":"urn:iso:std:iso:4217","value":400}},{"url":"https://bluebutton.cms.gov/assets/ig/StructureDefinition-bluebutton-inpatient-dsh-op-clm-val-amt-extension","valueMoney":{"code":"USD","system":"urn:iso:std:iso:4217","value":0}},{"url":"https://bluebutton.cms.gov/assets/ig/StructureDefinition-bluebutton-inpatient-clm-pass-thru-per-diem-amt-extension","valueMoney":{"code":"USD","system":"urn:iso:std:iso:4217","value":0}},{"url":"https://bluebutton.cms.gov/assets/ig/StructureDefinition-bluebutton-inpatient-nch-profnl-cmpnt-chrg-amt-extension","valueMoney":{"code":"USD","system":"urn:iso:std:iso:4217","value":0}},{"url":"https://bluebutton.cms.gov/assets/ig/StructureDefinition-bluebutton-inpatient-clm-tot-pps-cptl-amt-extension","valueMoney":{"code":"USD","system":"urn:iso:std:iso:4217","value":0}},{"url":"https://bluebutton.cms.gov/assets/ig/StructureDefinition-bluebutton-inpatient-nch-bene-ip-ddctbl-amt-extension","valueMoney":{"code":"USD","system":"urn:iso:std:iso:4217","value":0}},{"url":"https://bluebutton.cms.gov/assets/ig/StructureDefinition-bluebutton-inpatient-nch-bene-pta-coinsrnc-lblty-amt-extension","valueMoney":{"code":"USD","system":"urn:iso:std:iso:4217","value":0}},{"url":"https://bluebutton.cms.gov/assets/ig/StructureDefinition-bluebutton-inpatient-nch-ip-ncvrd-chrg-amt-extension","valueMoney":{"code":"USD","system":"urn:iso:std:iso:4217","value":0}},{"url":"https://bluebutton.cms.gov/assets/ig/StructureDefinition-bluebutton-inpatient-nch-ip-tot-ddctn-amt-extension","valueMoney":{"code":"USD","system":"urn:iso:std:iso:4217","value":0}},{"url":"https://bluebutton.cms.gov/assets/ig/StructureDefinition-bluebutton-inpatient-clm-pps-cptl-dsprprtnt-shr-amt-extension","valueMoney":{"code":"USD","system":"urn:iso:std:iso:4217","value":0}},{"url":"https://bluebutton.cms.gov/assets/ig/StructureDefinition-bluebutton-inpatient-clm-pps-cptl-excptn-amt-extension","valueMoney":{"code":"USD","system":"urn:iso:std:iso:4217","value":0}},{"url":"https://bluebutton.cms.gov/assets/ig/StructureDefinition-bluebutton-inpatient-clm-pps-cptl-fsp-amt-extension","valueMoney":{"code":"USD","system":"urn:iso:std:iso:4217","value":0}},{"url":"https://bluebutton.cms.gov/assets/ig/StructureDefinition-bluebutton-inpatient-clm-pps-cptl-ime-amt-extension","valueMoney":{"code":"USD","system":"urn:iso:std:iso:4217","value":400}},{"url":"https://bluebutton.cms.gov/assets/ig/StructureDefinition-bluebutton-inpatient-clm-pps-cptl-outlier-amt-extension","valueMoney":{"code":"USD","system":"urn:iso:std:iso:4217","value":0}},{"url":"https://bluebutton.cms.gov/assets/ig/StructureDefinition-bluebutton-inpatient-clm-pps-old-cptl-hld-hrmls-amt-extension","valueMoney":{"code":"USD","system":"urn:iso:std:iso:4217","value":0}},{"url":"https://bluebutton.cms.gov/assets/ig/StructureDefinition-bluebutton-inpatient-nch-drg-outlier-aprvd-pmt-amt-extension","valueMoney":{"code":"USD","system":"urn:iso:std:iso:4217","value":0}},{"url":"https://bluebutton.cms.gov/assets/ig/StructureDefinition-bluebutton-inpatient-nch-bene-blood-ddctbl-lblty-am-extension","valueMoney":{"code":"USD","system":"urn:iso:std:iso:4217","value":0}},{"url":"https://bluebutton.cms.gov/assets/ig/StructureDefinition-bluebutton-inpatient-clm-mdcr-non-pmt-rsn-cd-extension","valueCoding":{"code":"N","display":"All other reasons for non-payment","system":"https://bluebutton.cms.gov/assets/ig/CodeSystem-clm-mdcr-non-pmt-rsn-cd"}},{"url":"https://bluebutton.cms.gov/assets/ig/StructureDefinition-bluebutton-inpatient-prpayamt-extension","valueMoney":{"code":"USD","system":"urn:iso:std:iso:4217","value":0}},{"url":"https://bluebutton.cms.gov/assets/ig/StructureDefinition-bluebutton-inpatient-fi-num-extension","valueIdentifier":{"system":"https://bluebutton.cms.gov/assets/ig/CodeSystem-fi-num","value":"002000"}}],"id":"a1cc599d-1007-4e70-be4c-c5439e54e23d","identifier":[{"system":"https://bluebutton.cms.gov/resources/variables/clm_id","value":"6981a908-258f-4cf9-93ef-46c99e3628cf"},{"system":"https://bluebutton.cms.gov/resources/identifier/claim-group","value":"99999999999"}],"insurance":{"coverage":{"reference":"#coverage"}},"item":[{"extension":[{"url":"https://bluebutton.cms.gov/assets/ig/StructureDefinition-bluebutton-inpatient-rev-cntr-ndc-qty-extension","valueQuantity":{"value":0}}],"locationCodeableConcept":{"coding":[{"code":"21","display":"Inpatient Hospital","system":"https://bluebutton.cms.gov/resources/variables/line_place_of_srvc_cd"}]},"sequence":1}],"meta":{"lastUpdated":"2019-04-09T11:38:30.275841+00:00","profile":["https://bluebutton.cms.gov/assets/ig/StructureDefinition-bluebutton-inpatient-claim"],"versionId":"MTU1NDgwOTkxMDI3NTg0MTAwMA"},"organization":{"identifier":{"value":"915f9f66-75d8-46c2-8da4-04b35046240b"}},"patient":{"reference":"Patient/00ba2d77-4512-45d0-b58c-82ee3161b00e"},"payment":{"amount":{"code":"USD","system":"urn:iso:std:iso:4217","value":0}},"provider":{"identifier":{"value":"ebd27f21-bb93-4416-bdf8-84490ae394cc"}},"resourceType":"ExplanationOfBenefit","status":"active","totalCost":{"code":"USD","system":"urn:iso:std:iso:4217","value":125},"type":{"coding":[{"code":"71","display":"Local carrier non-durable medical equipment, prosthetics, orthotics, and supplies (DMEPOS) claim","system":"https://bluebutton.cms.gov/resources/variables/nch_clm_type_cd"},{"code":"CARRIER","display":"EOB Type","system":"https://bluebutton.cms.gov/resources/codesystem/eob-type"},{"code":"professional","display":"Claim Type","system":"http://hl7.org/fhir/ex-claimtype"},{"code":"O","display":"Part B physician/supplier claim record (processed by local carriers; can include DMEPOS services)","system":"https://bluebutton.cms.gov/resources/variables/nch_near_line_rec_ident_cd"}]}}},{"resource":{"billablePeriod":{"end":"2006-09-04T08:39:53-04:00","extension":[{"url":"https://bluebutton.cms.gov/assets/ig/StructureDefinition-bluebutton-inpatient-claim-query-cd-extension","valueCoding":{"code":"3","display":"Final Bill","system":"https://bluebutton.cms.gov/assets/ig/ValueSet-claim-query-cd"}}],"start":"2005-09-04T08:39:53-04:00"},"careTeam":[{"provider":{"identifier":{"system":"http://hl7.org/fhir/sid/us-npi","value":"99999999"}},"role":{"coding":[{"code":"primary","display":"Primary Care Practitioner","system":"http://hl7.org/fhir/claimcareteamrole"}]},"sequence":1}],"contained":[{"id":"coverage","resourceType":"Coverage","type":{"text":"medicare"}}],"extension":[{"url":"https://bluebutton.cms.gov/assets/ig/StructureDefinition-bluebutton-inpatient-ime-op-clm-val-amt-extension","valueMoney":{"code":"USD","system":"urn:iso:std:iso:4217","value":400}},{"url":"https://bluebutton.cms.gov/assets/ig/StructureDefinition-bluebutton-inpatient-dsh-op-clm-val-amt-extension","valueMoney":{"code":"USD","system":"urn:iso:std:iso:4217","value":0}},{"url":"https://bluebutton.cms.gov/assets/ig/StructureDefinition-bluebutton-inpatient-clm-pass-thru-per-diem-amt-extension","valueMoney":{"code":"USD","system":"urn:iso:std:iso:4217","value":0}},{"url":"https://bluebutton.cms.gov/assets/ig/StructureDefinition-bluebutton-inpatient-nch-profnl-cmpnt-chrg-amt-extension","valueMoney":{"code":"USD","system":"urn:iso:std:iso:4217","value":0}},{"url":"https://bluebutton.cms.gov/assets/ig/StructureDefinition-bluebutton-inpatient-clm-tot-pps-cptl-amt-extension","valueMoney":{"code":"USD","system":"urn:iso:std:iso:4217","value":0}},{"url":"https://bluebutton.cms.gov/assets/ig/StructureDefinition-bluebutton-inpatient-nch-bene-ip-ddctbl-amt-extension","valueMoney":{"code":"USD","system":"urn:iso:std:iso:4217","value":0}},{"url":"https://bluebutton.cms.gov/assets/ig/StructureDefinition-bluebutton-inpatient-nch-bene-pta-coinsrnc-lblty-amt-extension","valueMoney":{"code":"USD","system":"urn:iso:std:iso:4217","value":0}},{"url":"https://bluebutton.cms.gov/assets/ig/StructureDefinition-bluebutton-inpatient-nch-ip-ncvrd-chrg-amt-extension","valueMoney":{"code":"USD","system":"urn:iso:std:iso:4217","value":0}},{"url":"https://bluebutton.cms.gov/assets/ig/StructureDefinition-bluebutton-inpatient-nch-ip-tot-ddctn-amt-extension","valueMoney":{"code":"USD","system":"urn:iso:std:iso:4217","value":0}},{"url":"https://bluebutton.cms.gov/assets/ig/StructureDefinition-bluebutton-inpatient-clm-pps-cptl-dsprprtnt-shr-amt-extension","valueMoney":{"code":"USD","system":"urn:iso:std:iso:4217","value":0}},{"url":"https://bluebutton.cms.gov/assets/ig/StructureDefinition-bluebutton-inpatient-clm-pps-cptl-excptn-amt-extension","valueMoney":{"code":"USD","system":"urn:iso:std:iso:4217","value":0}},{"url":"https://bluebutton.cms.gov/assets/ig/StructureDefinition-bluebutton-inpatient-clm-pps-cptl-fsp-amt-extension","valueMoney":{"code":"USD","system":"urn:iso:std:iso:4217","value":0}},{"url":"https://bluebutton.cms.gov/assets/ig/StructureDefinition-bluebutton-inpatient-clm-pps-cptl-ime-amt-extension","valueMoney":{"code":"USD","system":"urn:iso:std:iso:4217","value":400}},{"url":"https://bluebutton.cms.gov/assets/ig/StructureDefinition-bluebutton-inpatient-clm-pps-cptl-outlier-amt-extension","valueMoney":{"code":"USD","system":"urn:iso:std:iso:4217","value":0}},{"url":"https://bluebutton.cms.gov/assets/ig/StructureDefinition-bluebutton-inpatient-clm-pps-old-cptl-hld-hrmls-amt-extension","valueMoney":{"code":"USD","system":"urn:iso:std:iso:4217","value":0}},{"url":"https://bluebutton.cms.gov/assets/ig/StructureDefinition-bluebutton-inpatient-nch-drg-outlier-aprvd-pmt-amt-extension","valueMoney":{"code":"USD","system":"urn:iso:std:iso:4217","value":0}},{"url":"https://bluebutton.cms.gov/assets/ig/StructureDefinition-bluebutton-inpatient-nch-bene-blood-ddctbl-lblty-am-extension","valueMoney":{"code":"USD","system":"urn:iso:std:iso:4217","value":0}},{"url":"https://bluebutton.cms.gov/assets/ig/StructureDefinition-bluebutton-inpatient-clm-mdcr-non-pmt-rsn-cd-extension","valueCoding":{"code":"N","display":"All other reasons for non-payment","system":"https://bluebutton.cms.gov/assets/ig/CodeSystem-clm-mdcr-non-pmt-rsn-cd"}},{"url":"https://bluebutton.cms.gov/assets/ig/StructureDefinition-bluebutton-inpatient-prpayamt-extension","valueMoney":{"code":"USD","system":"urn:iso:std:iso:4217","value":0}},{"url":"https://bluebutton.cms.gov/assets/ig/StructureDefinition-bluebutton-inpatient-fi-num-extension","valueIdentifier":{"system":"https://bluebutton.cms.gov/assets/ig/CodeSystem-fi-num","value":"002000"}}],"id":"a2bf9448-df03-414d-94bc-9e01b499f57d","identifier":[{"system":"https://bluebutton.cms.gov/resources/variables/clm_id","value":"d368fdf1-95ee-4dee-87bb-764b6348ac2e"},{"system":"https://bluebutton.cms.gov/resources/identifier/claim-group","value":"99999999999"}],"insurance":{"coverage":{"reference":"#coverage"}},"item":[{"extension":[{"url":"https://bluebutton.cms.gov/assets/ig/StructureDefinition-bluebutton-inpatient-rev-cntr-ndc-qty-extension","valueQuantity":{"value":0}}],"locationCodeableConcept":{"coding":[{"code":"21","display":"Inpatient Hospital","system":"https://bluebutton.cms.gov/resources/variables/line_place_of_srvc_cd"}]},"sequence":1}],"meta":{"lastUpdated":"2019-04-09T11:38:32.333829+00:00","profile":["https://bluebutton.cms.gov/assets/ig/StructureDefinition-bluebutton-inpatient-claim"],"versionId":"MTU1NDgwOTkxMjMzMzgyOTAwMA"},"organization":{"identifier":{"value":"915f9f66-75d8-46c2-8da4-04b35046240b"}},"patient":{"reference":"Patient/00ba2d77-4512-45d0-b58c-82ee3161b00e"},"payment":{"amount":{"code":"USD","system":"urn:iso:std:iso:4217","value":0}},"provider":{"identifier":{"value":"ebd27f21-bb93-4416-bdf8-84490ae394cc"}},"resourceType":"ExplanationOfBenefit","status":"active","totalCost":{"code":"USD","system":"urn:iso:std:iso:4217","value":125},"type":{"coding":[{"code":"71","display":"Local carrier non-durable medical equipment, prosthetics, orthotics, and supplies (DMEPOS) claim","system":"https://bluebutton.cms.gov/resources/variables/nch_clm_type_cd"},{"code":"CARRIER","display":"EOB Type","system":"https://bluebutton.cms.gov/resources/codesystem/eob-type"},{"code":"professional","display":"Claim Type","system":"http://hl7.org/fhir/ex-claimtype"},{"code":"O","display":"Part B physician/supplier claim record (processed by local carriers; can include DMEPOS services)","system":"https://bluebutton.cms.gov/resources/variables/nch_near_line_rec_ident_cd"}]}}},{"resource":{"billablePeriod":{"end":"1997-09-06T08:39:53-04:00","extension":[{"url":"https://bluebutton.cms.gov/assets/ig/StructureDefinition-bluebutton-inpatient-claim-query-cd-extension","valueCoding":{"code":"3","display":"Final Bill","system":"https://bluebutton.cms.gov/assets/ig/ValueSet-claim-query-cd"}}],"start":"1996-09-06T08:39:53-04:00"},"careTeam":[{"provider":{"identifier":{"system":"http://hl7.org/fhir/sid/us-npi","value":"99999999"}},"role":{"coding":[{"code":"primary","display":"Primary Care Practitioner","system":"http://hl7.org/fhir/claimcareteamrole"}]},"sequence":1}],"contained":[{"id":"coverage","resourceType":"Coverage","type":{"text":"private"}}],"extension":[{"url":"https://bluebutton.cms.gov/assets/ig/StructureDefinition-bluebutton-inpatient-ime-op-clm-val-amt-extension","valueMoney":{"code":"USD","system":"urn:iso:std:iso:4217","value":400}},{"url":"https://bluebutton.cms.gov/assets/ig/StructureDefinition-bluebutton-inpatient-dsh-op-clm-val-amt-extension","valueMoney":{"code":"USD","system":"urn:iso:std:iso:4217","value":0}},{"url":"https://bluebutton.cms.gov/assets/ig/StructureDefinition-bluebutton-inpatient-clm-pass-thru-per-diem-amt-extension","valueMoney":{"code":"USD","system":"urn:iso:std:iso:4217","value":0}},{"url":"https://bluebutton.cms.gov/assets/ig/StructureDefinition-bluebutton-inpatient-nch-profnl-cmpnt-chrg-amt-extension","valueMoney":{"code":"USD","system":"urn:iso:std:iso:4217","value":0}},{"url":"https://bluebutton.cms.gov/assets/ig/StructureDefinition-bluebutton-inpatient-clm-tot-pps-cptl-amt-extension","valueMoney":{"code":"USD","system":"urn:iso:std:iso:4217","value":0}},{"url":"https://bluebutton.cms.gov/assets/ig/StructureDefinition-bluebutton-inpatient-nch-bene-ip-ddctbl-amt-extension","valueMoney":{"code":"USD","system":"urn:iso:std:iso:4217","value":0}},{"url":"https://bluebutton.cms.gov/assets/ig/StructureDefinition-bluebutton-inpatient-nch-bene-pta-coinsrnc-lblty-amt-extension","valueMoney":{"code":"USD","system":"urn:iso:std:iso:4217","value":0}},{"url":"https://bluebutton.cms.gov/assets/ig/StructureDefinition-bluebutton-inpatient-nch-ip-ncvrd-chrg-amt-extension","valueMoney":{"code":"USD","system":"urn:iso:std:iso:4217","value":0}},{"url":"https://bluebutton.cms.gov/assets/ig/StructureDefinition-bluebutton-inpatient-nch-ip-tot-ddctn-amt-extension","valueMoney":{"code":"USD","system":"urn:iso:std:iso:4217","value":0}},{"url":"https://bluebutton.cms.gov/assets/ig/StructureDefinition-bluebutton-inpatient-clm-pps-cptl-dsprprtnt-shr-amt-extension","valueMoney":{"code":"USD","system":"urn:iso:std:iso:4217","value":0}},{"url":"https://bluebutton.cms.gov/assets/ig/StructureDefinition-bluebutton-inpatient-clm-pps-cptl-excptn-amt-extension","valueMoney":{"code":"USD","system":"urn:iso:std:iso:4217","value":0}},{"url":"https://bluebutton.cms.gov/assets/ig/StructureDefinition-bluebutton-inpatient-clm-pps-cptl-fsp-amt-extension","valueMoney":{"code":"USD","system":"urn:iso:std:iso:4217","value":0}},{"url":"https://bluebutton.cms.gov/assets/ig/StructureDefinition-bluebutton-inpatient-clm-pps-cptl-ime-amt-extension","valueMoney":{"code":"USD","system":"urn:iso:std:iso:4217","value":400}},{"url":"https://bluebutton.cms.gov/assets/ig/StructureDefinition-bluebutton-inpatient-clm-pps-cptl-outlier-amt-extension","valueMoney":{"code":"USD","system":"urn:iso:std:iso:4217","value":0}},{"url":"https://bluebutton.cms.gov/assets/ig/StructureDefinition-bluebutton-inpatient-clm-pps-old-cptl-hld-hrmls-amt-extension","valueMoney":{"code":"USD","system":"urn:iso:std:iso:4217","value":0}},{"url":"https://bluebutton.cms.gov/assets/ig/StructureDefinition-bluebutton-inpatient-nch-drg-outlier-aprvd-pmt-amt-extension","valueMoney":{"code":"USD","system":"urn:iso:std:iso:4217","value":0}},{"url":"https://bluebutton.cms.gov/assets/ig/StructureDefinition-bluebutton-inpatient-nch-bene-blood-ddctbl-lblty-am-extension","valueMoney":{"code":"USD","system":"urn:iso:std:iso:4217","value":0}},{"url":"https://bluebutton.cms.gov/assets/ig/StructureDefinition-bluebutton-inpatient-clm-mdcr-non-pmt-rsn-cd-extension","valueCoding":{"code":"N","display":"All other reasons for non-payment","system":"https://bluebutton.cms.gov/assets/ig/CodeSystem-clm-mdcr-non-pmt-rsn-cd"}},{"url":"https://bluebutton.cms.gov/assets/ig/StructureDefinition-bluebutton-inpatient-prpayamt-extension","valueMoney":{"code":"USD","system":"urn:iso:std:iso:4217","value":0}},{"url":"https://bluebutton.cms.gov/assets/ig/StructureDefinition-bluebutton-inpatient-fi-num-extension","valueIdentifier":{"system":"https://bluebutton.cms.gov/assets/ig/CodeSystem-fi-num","value":"002000"}}],"id":"a2d8c8f4-d4ee-446d-9030-c0d7e712791c","identifier":[{"system":"https://bluebutton.cms.gov/resources/variables/clm_id","value":"eca7ca4d-25be-453a-83e0-d3578047844c"},{"system":"https://bluebutton.cms.gov/resources/identifier/claim-group","value":"99999999999"}],"insurance":{"coverage":{"reference":"#coverage"}},"item":[{"extension":[{"url":"https://bluebutton.cms.gov/assets/ig/StructureDefinition-bluebutton-inpatient-rev-cntr-ndc-qty-extension","valueQuantity":{"value":0}}],"locationCodeableConcept":{"coding":[{"code":"21","display":"Inpatient Hospital","system":"https://bluebutton.cms.gov/resources/variables/line_place_of_srvc_cd"}]},"sequence":1}],"meta":{"lastUpdated":"2019-04-09T11:38:30.280347+00:00","profile":["https://bluebutton.cms.gov/assets/ig/StructureDefinition-bluebutton-inpatient-claim"],"versionId":"MTU1NDgwOTkxMDI4MDM0NzAwMA"},"organization":{"identifier":{"value":"915f9f66-75d8-46c2-8da4-04b35046240b"}},"patient":{"reference":"Patient/00ba2d77-4512-45d0-b58c-82ee3161b00e"},"payment":{"amount":{"code":"USD","system":"urn:iso:std:iso:4217","value":0}},"provider":{"identifier":{"value":"ebd27f21-bb93-4416-bdf8-84490ae394cc"}},"resourceType":"ExplanationOfBenefit","status":"active","totalCost":{"code":"USD","system":"urn:iso:std:iso:4217","value":125},"type":{"coding":[{"code":"71","display":"Local carrier non-durable medical equipment, prosthetics, orthotics, and supplies (DMEPOS) claim","system":"https://bluebutton.cms.gov/resources/variables/nch_clm_type_cd"},{"code":"CARRIER","display":"EOB Type","system":"https://bluebutton.cms.gov/resources/codesystem/eob-type"},{"code":"professional","display":"Claim Type","system":"http://hl7.org/fhir/ex-claimtype"},{"code":"O","display":"Part B physician/supplier claim record (processed by local carriers; can include DMEPOS services)","system":"https://bluebutton.cms.gov/resources/variables/nch_near_line_rec_ident_cd"}]}}},{"resource":{"billablePeriod":{"end":"2005-09-04T08:39:53-04:00","extension":[{"url":"https://bluebutton.cms.gov/assets/ig/StructureDefinition-bluebutton-inpatient-claim-query-cd-extension","valueCoding":{"code":"3","display":"Final Bill","system":"https://bluebutton.cms.gov/assets/ig/ValueSet-claim-query-cd"}}],"start":"2004-09-04T08:39:53-04:00"},"careTeam":[{"provider":{"identifier":{"system":"http://hl7.org/fhir/sid/us-npi","value":"99999999"}},"role":{"coding":[{"code":"primary","display":"Primary Care Practitioner","system":"http://hl7.org/fhir/claimcareteamrole"}]},"sequence":1}],"contained":[{"id":"coverage","resourceType":"Coverage","type":{"text":"medicare"}}],"extension":[{"url":"https://bluebutton.cms.gov/assets/ig/StructureDefinition-bluebutton-inpatient-ime-op-clm-val-amt-extension","valueMoney":{"code":"USD","system":"urn:iso:std:iso:4217","value":400}},{"url":"https://bluebutton.cms.gov/assets/ig/StructureDefinition-bluebutton-inpatient-dsh-op-clm-val-amt-extension","valueMoney":{"code":"USD","system":"urn:iso:std:iso:4217","value":0}},{"url":"https://bluebutton.cms.gov/assets/ig/StructureDefinition-bluebutton-inpatient-clm-pass-thru-per-diem-amt-extension","valueMoney":{"code":"USD","system":"urn:iso:std:iso:4217","value":0}},{"url":"https://bluebutton.cms.gov/assets/ig/StructureDefinition-bluebutton-inpatient-nch-profnl-cmpnt-chrg-amt-extension","valueMoney":{"code":"USD","system":"urn:iso:std:iso:4217","value":0}},{"url":"https://bluebutton.cms.gov/assets/ig/StructureDefinition-bluebutton-inpatient-clm-tot-pps-cptl-amt-extension","valueMoney":{"code":"USD","system":"urn:iso:std:iso:4217","value":0}},{"url":"https://bluebutton.cms.gov/assets/ig/StructureDefinition-bluebutton-inpatient-nch-bene-ip-ddctbl-amt-extension","valueMoney":{"code":"USD","system":"urn:iso:std:iso:4217","value":0}},{"url":"https://bluebutton.cms.gov/assets/ig/StructureDefinition-bluebutton-inpatient-nch-bene-pta-coinsrnc-lblty-amt-extension","valueMoney":{"code":"USD","system":"urn:iso:std:iso:4217","value":0}},{"url":"https://bluebutton.cms.gov/assets/ig/StructureDefinition-bluebutton-inpatient-nch-ip-ncvrd-chrg-amt-extension","valueMoney":{"code":"USD","system":"urn:iso:std:iso:4217","value":0}},{"url":"https://bluebutton.cms.gov/assets/ig/StructureDefinition-bluebutton-inpatient-nch-ip-tot-ddctn-amt-extension","valueMoney":{"code":"USD","system":"urn:iso:std:iso:4217","value":0}},{"url":"https://bluebutton.cms.gov/assets/ig/StructureDefinition-bluebutton-inpatient-clm-pps-cptl-dsprprtnt-shr-amt-extension","valueMoney":{"code":"USD","system":"urn:iso:std:iso:4217","value":0}},{"url":"https://bluebutton.cms.gov/assets/ig/StructureDefinition-bluebutton-inpatient-clm-pps-cptl-excptn-amt-extension","valueMoney":{"code":"USD","system":"urn:iso:std:iso:4217","value":0}},{"url":"https://bluebutton.cms.gov/assets/ig/StructureDefinition-bluebutton-inpatient-clm-pps-cptl-fsp-amt-extension","valueMoney":{"code":"USD","system":"urn:iso:std:iso:4217","value":0}},{"url":"https://bluebutton.cms.gov/assets/ig/StructureDefinition-bluebutton-inpatient-clm-pps-cptl-ime-amt-extension","valueMoney":{"code":"USD","system":"urn:iso:std:iso:4217","value":400}},{"url":"https://bluebutton.cms.gov/assets/ig/StructureDefinition-bluebutton-inpatient-clm-pps-cptl-outlier-amt-extension","valueMoney":{"code":"USD","system":"urn:iso:std:iso:4217","value":0}},{"url":"https://bluebutton.cms.gov/assets/ig/StructureDefinition-bluebutton-inpatient-clm-pps-old-cptl-hld-hrmls-amt-extension","valueMoney":{"code":"USD","system":"urn:iso:std:iso:4217","value":0}},{"url":"https://bluebutton.cms.gov/assets/ig/StructureDefinition-bluebutton-inpatient-nch-drg-outlier-aprvd-pmt-amt-extension","valueMoney":{"code":"USD","system":"urn:iso:std:iso:4217","value":0}},{"url":"https://bluebutton.cms.gov/assets/ig/StructureDefinition-bluebutton-inpatient-nch-bene-blood-ddctbl-lblty-am-extension","valueMoney":{"code":"USD","system":"urn:iso:std:iso:4217","value":0}},{"url":"https://bluebutton.cms.gov/assets/ig/StructureDefinition-bluebutton-inpatient-clm-mdcr-non-pmt-rsn-cd-extension","valueCoding":{"code":"N","display":"All other reasons for non-payment","system":"https://bluebutton.cms.gov/assets/ig/CodeSystem-clm-mdcr-non-pmt-rsn-cd"}},{"url":"https://bluebutton.cms.gov/assets/ig/StructureDefinition-bluebutton-inpatient-prpayamt-extension","valueMoney":{"code":"USD","system":"urn:iso:std:iso:4217","value":0}},{"url":"https://bluebutton.cms.gov/assets/ig/StructureDefinition-bluebutton-inpatient-fi-num-extension","valueIdentifier":{"system":"https://bluebutton.cms.gov/assets/ig/CodeSystem-fi-num","value":"002000"}}],"id":"a2da8864-1588-4e9c-b427-3e799dc9aaed","identifier":[{"system":"https://bluebutton.cms.gov/resources/variables/clm_id","value":"230503a3-cc0c-4cc0-9740-2d253dceced5"},{"system":"https://bluebutton.cms.gov/resources/identifier/claim-group","value":"99999999999"}],"insurance":{"coverage":{"reference":"#coverage"}},"item":[{"extension":[{"url":"https://bluebutton.cms.gov/assets/ig/StructureDefinition-bluebutton-inpatient-rev-cntr-ndc-qty-extension","valueQuantity":{"value":0}}],"locationCodeableConcept":{"coding":[{"code":"21","display":"Inpatient Hospital","system":"https://bluebutton.cms.gov/resources/variables/line_place_of_srvc_cd"}]},"sequence":1}],"meta":{"lastUpdated":"2019-04-09T11:38:32.333836+00:00","profile":["https://bluebutton.cms.gov/assets/ig/StructureDefinition-bluebutton-inpatient-claim"],"versionId":"MTU1NDgwOTkxMjMzMzgzNjAwMA"},"organization":{"identifier":{"value":"915f9f66-75d8-46c2-8da4-04b35046240b"}},"patient":{"reference":"Patient/00ba2d77-4512-45d0-b58c-82ee3161b00e"},"payment":{"amount":{"code":"USD","system":"urn:iso:std:iso:4217","value":0}},"provider":{"identifier":{"value":"ebd27f21-bb93-4416-bdf8-84490ae394cc"}},"resourceType":"ExplanationOfBenefit","status":"active","totalCost":{"code":"USD","system":"urn:iso:std:iso:4217","value":125},"type":{"coding":[{"code":"71","display":"Local carrier non-durable medical equipment, prosthetics, orthotics, and supplies (DMEPOS) claim","system":"https://bluebutton.cms.gov/resources/variables/nch_clm_type_cd"},{"code":"CARRIER","display":"EOB Type","system":"https://bluebutton.cms.gov/resources/codesystem/eob-type"},{"code":"professional","display":"Claim Type","system":"http://hl7.org/fhir/ex-claimtype"},{"code":"O","display":"Part B physician/supplier claim record (processed by local carriers; can include DMEPOS services)","system":"https://bluebutton.cms.gov/resources/variables/nch_near_line_rec_ident_cd"}]}}},{"resource":{"billablePeriod":{"end":"2015-09-02T08:39:53-04:00","extension":[{"url":"https://bluebutton.cms.gov/assets/ig/StructureDefinition-bluebutton-inpatient-claim-query-cd-extension","valueCoding":{"code":"3","display":"Final Bill","system":"https://bluebutton.cms.gov/assets/ig/ValueSet-claim-query-cd"}}],"start":"2014-09-02T08:39:53-04:00"},"careTeam":[{"provider":{"identifier":{"system":"http://hl7.org/fhir/sid/us-npi","value":"99999999"}},"role":{"coding":[{"code":"primary","display":"Primary Care Practitioner","system":"http://hl7.org/fhir/claimcareteamrole"}]},"sequence":1}],"contained":[{"id":"coverage","resourceType":"Coverage","type":{"text":"medicare"}}],"extension":[{"url":"https://bluebutton.cms.gov/assets/ig/StructureDefinition-bluebutton-inpatient-ime-op-clm-val-amt-extension","valueMoney":{"code":"USD","system":"urn:iso:std:iso:4217","value":400}},{"url":"https://bluebutton.cms.gov/assets/ig/StructureDefinition-bluebutton-inpatient-dsh-op-clm-val-amt-extension","valueMoney":{"code":"USD","system":"urn:iso:std:iso:4217","value":0}},{"url":"https://bluebutton.cms.gov/assets/ig/StructureDefinition-bluebutton-inpatient-clm-pass-thru-per-diem-amt-extension","valueMoney":{"code":"USD","system":"urn:iso:std:iso:4217","value":0}},{"url":"https://bluebutton.cms.gov/assets/ig/StructureDefinition-bluebutton-inpatient-nch-profnl-cmpnt-chrg-amt-extension","valueMoney":{"code":"USD","system":"urn:iso:std:iso:4217","value":0}},{"url":"https://bluebutton.cms.gov/assets/ig/StructureDefinition-bluebutton-inpatient-clm-tot-pps-cptl-amt-extension","valueMoney":{"code":"USD","system":"urn:iso:std:iso:4217","value":0}},{"url":"https://bluebutton.cms.gov/assets/ig/StructureDefinition-bluebutton-inpatient-nch-bene-ip-ddctbl-amt-extension","valueMoney":{"code":"USD","system":"urn:iso:std:iso:4217","value":0}},{"url":"https://bluebutton.cms.gov/assets/ig/StructureDefinition-bluebutton-inpatient-nch-bene-pta-coinsrnc-lblty-amt-extension","valueMoney":{"code":"USD","system":"urn:iso:std:iso:4217","value":0}},{"url":"https://bluebutton.cms.gov/assets/ig/StructureDefinition-bluebutton-inpatient-nch-ip-ncvrd-chrg-amt-extension","valueMoney":{"code":"USD","system":"urn:iso:std:iso:4217","value":0}},{"url":"https://bluebutton.cms.gov/assets/ig/StructureDefinition-bluebutton-inpatient-nch-ip-tot-ddctn-amt-extension","valueMoney":{"code":"USD","system":"urn:iso:std:iso:4217","value":0}},{"url":"https://bluebutton.cms.gov/assets/ig/StructureDefinition-bluebutton-inpatient-clm-pps-cptl-dsprprtnt-shr-amt-extension","valueMoney":{"code":"USD","system":"urn:iso:std:iso:4217","value":0}},{"url":"https://bluebutton.cms.gov/assets/ig/StructureDefinition-bluebutton-inpatient-clm-pps-cptl-excptn-amt-extension","valueMoney":{"code":"USD","system":"urn:iso:std:iso:4217","value":0}},{"url":"https://bluebutton.cms.gov/assets/ig/StructureDefinition-bluebutton-inpatient-clm-pps-cptl-fsp-amt-extension","valueMoney":{"code":"USD","system":"urn:iso:std:iso:4217","value":0}},{"url":"https://bluebutton.cms.gov/assets/ig/StructureDefinition-bluebutton-inpatient-clm-pps-cptl-ime-amt-extension","valueMoney":{"code":"USD","system":"urn:iso:std:iso:4217","value":400}},{"url":"https://bluebutton.cms.gov/assets/ig/StructureDefinition-bluebutton-inpatient-clm-pps-cptl-outlier-amt-extension","valueMoney":{"code":"USD","system":"urn:iso:std:iso:4217","value":0}},{"url":"https://bluebutton.cms.gov/assets/ig/StructureDefinition-bluebutton-inpatient-clm-pps-old-cptl-hld-hrmls-amt-extension","valueMoney":{"code":"USD","system":"urn:iso:std:iso:4217","value":0}},{"url":"https://bluebutton.cms.gov/assets/ig/StructureDefinition-bluebutton-inpatient-nch-drg-outlier-aprvd-pmt-amt-extension","valueMoney":{"code":"USD","system":"urn:iso:std:iso:4217","value":0}},{"url":"https://bluebutton.cms.gov/assets/ig/StructureDefinition-bluebutton-inpatient-nch-bene-blood-ddctbl-lblty-am-extension","valueMoney":{"code":"USD","system":"urn:iso:std:iso:4217","value":0}},{"url":"https://bluebutton.cms.gov/assets/ig/StructureDefinition-bluebutton-inpatient-clm-mdcr-non-pmt-rsn-cd-extension","valueCoding":{"code":"N","display":"All other reasons for non-payment","system":"https://bluebutton.cms.gov/assets/ig/CodeSystem-clm-mdcr-non-pmt-rsn-cd"}},{"url":"https://bluebutton.cms.gov/assets/ig/StructureDefinition-bluebutton-inpatient-prpayamt-extension","valueMoney":{"code":"USD","system":"urn:iso:std:iso:4217","value":0}},{"url":"https://bluebutton.cms.gov/assets/ig/StructureDefinition-bluebutton-inpatient-fi-num-extension","valueIdentifier":{"system":"https://bluebutton.cms.gov/assets/ig/CodeSystem-fi-num","value":"002000"}}],"id":"b2fd519a-e87c-4419-bb30-31fc543edc0d","identifier":[{"system":"https://bluebutton.cms.gov/resources/variables/clm_id","value":"8a4d7346-eacb-4d28-94e6-f3c7d14fe94e"},{"system":"https://bluebutton.cms.gov/resources/identifier/claim-group","value":"99999999999"}],"insurance":{"coverage":{"reference":"#coverage"}},"item":[{"extension":[{"url":"https://bluebutton.cms.gov/assets/ig/StructureDefinition-bluebutton-inpatient-rev-cntr-ndc-qty-extension","valueQuantity":{"value":0}}],"locationCodeableConcept":{"coding":[{"code":"21","display":"Inpatient Hospital","system":"https://bluebutton.cms.gov/resources/variables/line_place_of_srvc_cd"}]},"sequence":1}],"meta":{"lastUpdated":"2019-04-09T11:38:41.583838+00:00","profile":["https://bluebutton.cms.gov/assets/ig/StructureDefinition-bluebutton-inpatient-claim"],"versionId":"MTU1NDgwOTkyMTU4MzgzODAwMA"},"organization":{"identifier":{"value":"915f9f66-75d8-46c2-8da4-04b35046240b"}},"patient":{"reference":"Patient/00ba2d77-4512-45d0-b58c-82ee3161b00e"},"payment":{"amount":{"code":"USD","system":"urn:iso:std:iso:4217","value":0}},"provider":{"identifier":{"value":"ebd27f21-bb93-4416-bdf8-84490ae394cc"}},"resourceType":"ExplanationOfBenefit","status":"active","totalCost":{"code":"USD","system":"urn:iso:std:iso:4217","value":125},"type":{"coding":[{"code":"71","display":"Local carrier non-durable medical equipment, prosthetics, orthotics, and supplies (DMEPOS) claim","system":"https://bluebutton.cms.gov/resources/variables/nch_clm_type_cd"},{"code":"CARRIER","display":"EOB Type","system":"https://bluebutton.cms.gov/resources/codesystem/eob-type"},{"code":"professional","display":"Claim Type","system":"http://hl7.org/fhir/ex-claimtype"},{"code":"O","display":"Part B physician/supplier claim record (processed by local carriers; can include DMEPOS services)","system":"https://bluebutton.cms.gov/resources/variables/nch_near_line_rec_ident_cd"}]}}},{"resource":{"billablePeriod":{"end":"1993-09-07T08:39:53-04:00","extension":[{"url":"https://bluebutton.cms.gov/assets/ig/StructureDefinition-bluebutton-inpatient-claim-query-cd-extension","valueCoding":{"code":"3","display":"Final Bill","system":"https://bluebutton.cms.gov/assets/ig/ValueSet-claim-query-cd"}}],"start":"1992-09-07T08:39:53-04:00"},"careTeam":[{"provider":{"identifier":{"system":"http://hl7.org/fhir/sid/us-npi","value":"99999999"}},"role":{"coding":[{"code":"primary","display":"Primary Care Practitioner","system":"http://hl7.org/fhir/claimcareteamrole"}]},"sequence":1}],"contained":[{"id":"coverage","resourceType":"Coverage","type":{"text":"private"}}],"extension":[{"url":"https://bluebutton.cms.gov/assets/ig/StructureDefinition-bluebutton-inpatient-ime-op-clm-val-amt-extension","valueMoney":{"code":"USD","system":"urn:iso:std:iso:4217","value":400}},{"url":"https://bluebutton.cms.gov/assets/ig/StructureDefinition-bluebutton-inpatient-dsh-op-clm-val-amt-extension","valueMoney":{"code":"USD","system":"urn:iso:std:iso:4217","value":0}},{"url":"https://bluebutton.cms.gov/assets/ig/StructureDefinition-bluebutton-inpatient-clm-pass-thru-per-diem-amt-extension","valueMoney":{"code":"USD","system":"urn:iso:std:iso:4217","value":0}},{"url":"https://bluebutton.cms.gov/assets/ig/StructureDefinition-bluebutton-inpatient-nch-profnl-cmpnt-chrg-amt-extension","valueMoney":{"code":"USD","system":"urn:iso:std:iso:4217","value":0}},{"url":"https://bluebutton.cms.gov/assets/ig/StructureDefinition-bluebutton-inpatient-clm-tot-pps-cptl-amt-extension","valueMoney":{"code":"USD","system":"urn:iso:std:iso:4217","value":0}},{"url":"https://bluebutton.cms.gov/assets/ig/StructureDefinition-bluebutton-inpatient-nch-bene-ip-ddctbl-amt-extension","valueMoney":{"code":"USD","system":"urn:iso:std:iso:4217","value":0}},{"url":"https://bluebutton.cms.gov/assets/ig/StructureDefinition-bluebutton-inpatient-nch-bene-pta-coinsrnc-lblty-amt-extension","valueMoney":{"code":"USD","system":"urn:iso:std:iso:4217","value":0}},{"url":"https://bluebutton.cms.gov/assets/ig/StructureDefinition-bluebutton-inpatient-nch-ip-ncvrd-chrg-amt-extension","valueMoney":{"code":"USD","system":"urn:iso:std:iso:4217","value":0}},{"url":"https://bluebutton.cms.gov/assets/ig/StructureDefinition-bluebutton-inpatient-nch-ip-tot-ddctn-amt-extension","valueMoney":{"code":"USD","system":"urn:iso:std:iso:4217","value":0}},{"url":"https://bluebutton.cms.gov/assets/ig/StructureDefinition-bluebutton-inpatient-clm-pps-cptl-dsprprtnt-shr-amt-extension","valueMoney":{"code":"USD","system":"urn:iso:std:iso:4217","value":0}},{"url":"https://bluebutton.cms.gov/assets/ig/StructureDefinition-bluebutton-inpatient-clm-pps-cptl-excptn-amt-extension","valueMoney":{"code":"USD","system":"urn:iso:std:iso:4217","value":0}},{"url":"https://bluebutton.cms.gov/assets/ig/StructureDefinition-bluebutton-inpatient-clm-pps-cptl-fsp-amt-extension","valueMoney":{"code":"USD","system":"urn:iso:std:iso:4217","value":0}},{"url":"https://bluebutton.cms.gov/assets/ig/StructureDefinition-bluebutton-inpatient-clm-pps-cptl-ime-amt-extension","valueMoney":{"code":"USD","system":"urn:iso:std:iso:4217","value":400}},{"url":"https://bluebutton.cms.gov/assets/ig/StructureDefinition-bluebutton-inpatient-clm-pps-cptl-outlier-amt-extension","valueMoney":{"code":"USD","system":"urn:iso:std:iso:4217","value":0}},{"url":"https://bluebutton.cms.gov/assets/ig/StructureDefinition-bluebutton-inpatient-clm-pps-old-cptl-hld-hrmls-amt-extension","valueMoney":{"code":"USD","system":"urn:iso:std:iso:4217","value":0}},{"url":"https://bluebutton.cms.gov/assets/ig/StructureDefinition-bluebutton-inpatient-nch-drg-outlier-aprvd-pmt-amt-extension","valueMoney":{"code":"USD","system":"urn:iso:std:iso:4217","value":0}},{"url":"https://bluebutton.cms.gov/assets/ig/StructureDefinition-bluebutton-inpatient-nch-bene-blood-ddctbl-lblty-am-extension","valueMoney":{"code":"USD","system":"urn:iso:std:iso:4217","value":0}},{"url":"https://bluebutton.cms.gov/assets/ig/StructureDefinition-bluebutton-inpatient-clm-mdcr-non-pmt-rsn-cd-extension","valueCoding":{"code":"N","display":"All other reasons for non-payment","system":"https://bluebutton.cms.gov/assets/ig/CodeSystem-clm-mdcr-non-pmt-rsn-cd"}},{"url":"https://bluebutton.cms.gov/assets/ig/StructureDefinition-bluebutton-inpatient-prpayamt-extension","valueMoney":{"code":"USD","system":"urn:iso:std:iso:4217","value":0}},{"url":"https://bluebutton.cms.gov/assets/ig/StructureDefinition-bluebutton-inpatient-fi-num-extension","valueIdentifier":{"system":"https://bluebutton.cms.gov/assets/ig/CodeSystem-fi-num","value":"002000"}}],"id":"b3e1b230-91c0-4068-94b0-ea31b5984a56","identifier":[{"system":"https://bluebutton.cms.gov/resources/variables/clm_id","value":"f10a47d3-9825-445e-ae87-f7ef664b86f2"},{"system":"https://bluebutton.cms.gov/resources/identifier/claim-group","value":"99999999999"}],"insurance":{"coverage":{"reference":"#coverage"}},"item":[{"extension":[{"url":"https://bluebutton.cms.gov/assets/ig/StructureDefinition-bluebutton-inpatient-rev-cntr-ndc-qty-extension","valueQuantity":{"value":0}}],"locationCodeableConcept":{"coding":[{"code":"21","display":"Inpatient Hospital","system":"https://bluebutton.cms.gov/resources/variables/line_place_of_srvc_cd"}]},"sequence":1}],"meta":{"lastUpdated":"2019-04-09T11:38:30.280139+00:00","profile":["https://bluebutton.cms.gov/assets/ig/StructureDefinition-bluebutton-inpatient-claim"],"versionId":"MTU1NDgwOTkxMDI4MDEzOTAwMA"},"organization":{"identifier":{"value":"915f9f66-75d8-46c2-8da4-04b35046240b"}},"patient":{"reference":"Patient/00ba2d77-4512-45d0-b58c-82ee3161b00e"},"payment":{"amount":{"code":"USD","system":"urn:iso:std:iso:4217","value":0}},"provider":{"identifier":{"value":"ebd27f21-bb93-4416-bdf8-84490ae394cc"}},"resourceType":"ExplanationOfBenefit","status":"active","totalCost":{"code":"USD","system":"urn:iso:std:iso:4217","value":125},"type":{"coding":[{"code":"71","display":"Local carrier non-durable medical equipment, prosthetics, orthotics, and supplies (DMEPOS) claim","system":"https://bluebutton.cms.gov/resources/variables/nch_clm_type_cd"},{"code":"CARRIER","display":"EOB Type","system":"https://bluebutton.cms.gov/resources/codesystem/eob-type"},{"code":"professional","display":"Claim Type","system":"http://hl7.org/fhir/ex-claimtype"},{"code":"O","display":"Part B physician/supplier claim record (processed by local carriers; can include DMEPOS services)","system":"https://bluebutton.cms.gov/resources/variables/nch_near_line_rec_ident_cd"}]}}},{"resource":{"billablePeriod":{"end":"2002-09-05T08:39:53-04:00","extension":[{"url":"https://bluebutton.cms.gov/assets/ig/StructureDefinition-bluebutton-inpatient-claim-query-cd-extension","valueCoding":{"code":"3","display":"Final Bill","system":"https://bluebutton.cms.gov/assets/ig/ValueSet-claim-query-cd"}}],"start":"2001-09-05T08:39:53-04:00"},"careTeam":[{"provider":{"identifier":{"system":"http://hl7.org/fhir/sid/us-npi","value":"99999999"}},"role":{"coding":[{"code":"primary","display":"Primary Care Practitioner","system":"http://hl7.org/fhir/claimcareteamrole"}]},"sequence":1}],"contained":[{"id":"coverage","resourceType":"Coverage","type":{"text":"medicare"}}],"extension":[{"url":"https://bluebutton.cms.gov/assets/ig/StructureDefinition-bluebutton-inpatient-ime-op-clm-val-amt-extension","valueMoney":{"code":"USD","system":"urn:iso:std:iso:4217","value":400}},{"url":"https://bluebutton.cms.gov/assets/ig/StructureDefinition-bluebutton-inpatient-dsh-op-clm-val-amt-extension","valueMoney":{"code":"USD","system":"urn:iso:std:iso:4217","value":0}},{"url":"https://bluebutton.cms.gov/assets/ig/StructureDefinition-bluebutton-inpatient-clm-pass-thru-per-diem-amt-extension","valueMoney":{"code":"USD","system":"urn:iso:std:iso:4217","value":0}},{"url":"https://bluebutton.cms.gov/assets/ig/StructureDefinition-bluebutton-inpatient-nch-profnl-cmpnt-chrg-amt-extension","valueMoney":{"code":"USD","system":"urn:iso:std:iso:4217","value":0}},{"url":"https://bluebutton.cms.gov/assets/ig/StructureDefinition-bluebutton-inpatient-clm-tot-pps-cptl-amt-extension","valueMoney":{"code":"USD","system":"urn:iso:std:iso:4217","value":0}},{"url":"https://bluebutton.cms.gov/assets/ig/StructureDefinition-bluebutton-inpatient-nch-bene-ip-ddctbl-amt-extension","valueMoney":{"code":"USD","system":"urn:iso:std:iso:4217","value":0}},{"url":"https://bluebutton.cms.gov/assets/ig/StructureDefinition-bluebutton-inpatient-nch-bene-pta-coinsrnc-lblty-amt-extension","valueMoney":{"code":"USD","system":"urn:iso:std:iso:4217","value":0}},{"url":"https://bluebutton.cms.gov/assets/ig/StructureDefinition-bluebutton-inpatient-nch-ip-ncvrd-chrg-amt-extension","valueMoney":{"code":"USD","system":"urn:iso:std:iso:4217","value":0}},{"url":"https://bluebutton.cms.gov/assets/ig/StructureDefinition-bluebutton-inpatient-nch-ip-tot-ddctn-amt-extension","valueMoney":{"code":"USD","system":"urn:iso:std:iso:4217","value":0}},{"url":"https://bluebutton.cms.gov/assets/ig/StructureDefinition-bluebutton-inpatient-clm-pps-cptl-dsprprtnt-shr-amt-extension","valueMoney":{"code":"USD","system":"urn:iso:std:iso:4217","value":0}},{"url":"https://bluebutton.cms.gov/assets/ig/StructureDefinition-bluebutton-inpatient-clm-pps-cptl-excptn-amt-extension","valueMoney":{"code":"USD","system":"urn:iso:std:iso:4217","value":0}},{"url":"https://bluebutton.cms.gov/assets/ig/StructureDefinition-bluebutton-inpatient-clm-pps-cptl-fsp-amt-extension","valueMoney":{"code":"USD","system":"urn:iso:std:iso:4217","value":0}},{"url":"https://bluebutton.cms.gov/assets/ig/StructureDefinition-bluebutton-inpatient-clm-pps-cptl-ime-amt-extension","valueMoney":{"code":"USD","system":"urn:iso:std:iso:4217","value":400}},{"url":"https://bluebutton.cms.gov/assets/ig/StructureDefinition-bluebutton-inpatient-clm-pps-cptl-outlier-amt-extension","valueMoney":{"code":"USD","system":"urn:iso:std:iso:4217","value":0}},{"url":"https://bluebutton.cms.gov/assets/ig/StructureDefinition-bluebutton-inpatient-clm-pps-old-cptl-hld-hrmls-amt-extension","valueMoney":{"code":"USD","system":"urn:iso:std:iso:4217","value":0}},{"url":"https://bluebutton.cms.gov/assets/ig/StructureDefinition-bluebutton-inpatient-nch-drg-outlier-aprvd-pmt-amt-extension","valueMoney":{"code":"USD","system":"urn:iso:std:iso:4217","value":0}},{"url":"https://bluebutton.cms.gov/assets/ig/StructureDefinition-bluebutton-inpatient-nch-bene-blood-ddctbl-lblty-am-extension","valueMoney":{"code":"USD","system":"urn:iso:std:iso:4217","value":0}},{"url":"https://bluebutton.cms.gov/assets/ig/StructureDefinition-bluebutton-inpatient-clm-mdcr-non-pmt-rsn-cd-extension","valueCoding":{"code":"N","display":"All other reasons for non-payment","system":"https://bluebutton.cms.gov/assets/ig/CodeSystem-clm-mdcr-non-pmt-rsn-cd"}},{"url":"https://bluebutton.cms.gov/assets/ig/StructureDefinition-bluebutton-inpatient-prpayamt-extension","valueMoney":{"code":"USD","system":"urn:iso:std:iso:4217","value":0}},{"url":"https://bluebutton.cms.gov/assets/ig/StructureDefinition-bluebutton-inpatient-fi-num-extension","valueIdentifier":{"system":"https://bluebutton.cms.gov/assets/ig/CodeSystem-fi-num","value":"002000"}}],"id":"b95972fd-8e4b-4b54-b0ae-7e19b8cbc234","identifier":[{"system":"https://bluebutton.cms.gov/resources/variables/clm_id","value":"6f1ec2e0-c6a5-4f28-8d73-a5566d4cf81c"},{"system":"https://bluebutton.cms.gov/resources/identifier/claim-group","value":"99999999999"}],"insurance":{"coverage":{"reference":"#coverage"}},"item":[{"extension":[{"url":"https://bluebutton.cms.gov/assets/ig/StructureDefinition-bluebutton-inpatient-rev-cntr-ndc-qty-extension","valueQuantity":{"value":0}}],"locationCodeableConcept":{"coding":[{"code":"21","display":"Inpatient Hospital","system":"https://bluebutton.cms.gov/resources/variables/line_place_of_srvc_cd"}]},"sequence":1}],"meta":{"lastUpdated":"2019-04-09T11:38:31.313732+00:00","profile":["https://bluebutton.cms.gov/assets/ig/StructureDefinition-bluebutton-inpatient-claim"],"versionId":"MTU1NDgwOTkxMTMxMzczMjAwMA"},"organization":{"identifier":{"value":"915f9f66-75d8-46c2-8da4-04b35046240b"}},"patient":{"reference":"Patient/00ba2d77-4512-45d0-b58c-82ee3161b00e"},"payment":{"amount":{"code":"USD","system":"urn:iso:std:iso:4217","value":0}},"provider":{"identifier":{"value":"ebd27f21-bb93-4416-bdf8-84490ae394cc"}},"resourceType":"ExplanationOfBenefit","status":"active","totalCost":{"code":"USD","system":"urn:iso:std:iso:4217","value":125},"type":{"coding":[{"code":"71","display":"Local carrier non-durable medical equipment, prosthetics, orthotics, and supplies (DMEPOS) claim","system":"https://bluebutton.cms.gov/resources/variables/nch_clm_type_cd"},{"code":"CARRIER","display":"EOB Type","system":"https://bluebutton.cms.gov/resources/codesystem/eob-type"},{"code":"professional","display":"Claim Type","system":"http://hl7.org/fhir/ex-claimtype"},{"code":"O","display":"Part B physician/supplier claim record (processed by local carriers; can include DMEPOS services)","system":"https://bluebutton.cms.gov/resources/variables/nch_near_line_rec_ident_cd"}]}}},{"resource":{"billablePeriod":{"end":"1964-06-09T08:54:53-04:00","start":"1963-06-09T08:54:53-04:00"},"careTeam":[{"provider":{"identifier":{"system":"http://hl7.org/fhir/sid/us-npi","value":"99999999"}},"role":{"coding":[{"code":"primary","display":"Primary Care Practitioner","system":"http://hl7.org/fhir/claimcareteamrole"}]},"sequence":1}],"claim":{"reference":"Claim/b45ee79b-8130-48b8-adc7-a829ea635858"},"contained":[{"id":"1","intent":"order","recipient":[{"identifier":{"system":"http://hl7.org/fhir/sid/us-npi","value":"99999999"}}],"requester":{"agent":{"identifier":{"system":"http://hl7.org/fhir/sid/us-npi","value":"99999999"}}},"resourceType":"ReferralRequest","status":"completed","subject":{"reference":"Patient/00ba2d77-4512-45d0-b58c-82ee3161b00e"}},{"id":"coverage","resourceType":"Coverage","type":{"text":"private"}}],"created":"1963-06-09T08:54:53-04:00","diagnosis":[{"diagnosisReference":{"reference":"Condition/8ba2ee88-6666-4388-ad85-99d94239893c"},"extension":[{"url":"https://bluebutton.cms.gov/assets/ig/StructureDefinition-bluebutton-inpatient-clm-poa-ind-sw1-extension","valueCoding":{"code":"Y","display":"Diagnosis present at time of admission","system":"https://bluebutton.cms.gov/assets/ig/CodeSystem-clm-poa-ind-sw1"}}],"sequence":1,"type":[{"coding":[{"code":"principal","system":"https://bluebutton.cms.gov/resources/codesystem/diagnosis-type"}]}]}],"id":"bcebf5c0-ccd4-4755-9632-ee3c0f44de69","identifier":[{"system":"https://bluebutton.cms.gov/resources/variables/clm_id","value":"b45ee79b-8130-48b8-adc7-a829ea635858"},{"system":"https://bluebutton.cms.gov/resources/identifier/claim-group","value":"99999999999"}],"insurance":{"coverage":{"reference":"#coverage"}},"item":[{"category":{"coding":[{"code":"1","display":"Medical care","system":"https://bluebutton.cms.gov/resources/variables/line_cms_type_srvc_cd"}]},"encounter":[{"reference":"Encounter/2ea00974-2610-4ee8-807b-5ac1bf555c36"}],"locationCodeableConcept":{"coding":[{"code":"21","display":"Inpatient Hospital","system":"https://bluebutton.cms.gov/resources/variables/line_place_of_srvc_cd"}]},"sequence":1,"servicedPeriod":{"end":"1963-06-09T08:54:53-04:00","start":"1963-06-09T08:24:53-04:00"}},{"category":{"coding":[{"code":"1","display":"Medical care","system":"https://bluebutton.cms.gov/resources/variables/line_cms_type_srvc_cd"}]},"diagnosisLinkId":[1],"locationCodeableConcept":{"coding":[{"code":"21","display":"Inpatient Hospital","system":"https://bluebutton.cms.gov/resources/variables/line_place_of_srvc_cd"}]},"sequence":2,"servicedPeriod":{"end":"1963-06-09T08:54:53-04:00","start":"1963-06-09T08:24:53-04:00"}}],"meta":{"lastUpdated":"2019-04-09T11:38:29.203732+00:00","versionId":"MTU1NDgwOTkwOTIwMzczMjAwMA"},"organization":{"identifier":{"value":"915f9f66-75d8-46c2-8da4-04b35046240b"}},"patient":{"reference":"Patient/00ba2d77-4512-45d0-b58c-82ee3161b00e"},"payment":{"amount":{"code":"USD","system":"urn:iso:std:iso:4217","value":0}},"provider":{"identifier":{"value":"ebd27f21-bb93-4416-bdf8-84490ae394cc"}},"referral":{"reference":"#1"},"resourceType":"ExplanationOfBenefit","status":"active","totalCost":{"code":"USD","system":"urn:iso:std:iso:4217","value":125},"type":{"coding":[{"code":"71","display":"Local carrier non-durable medical equipment, prosthetics, orthotics, and supplies (DMEPOS) claim","system":"https://bluebutton.cms.gov/resources/variables/nch_clm_type_cd"},{"code":"CARRIER","display":"EOB Type","system":"https://bluebutton.cms.gov/resources/codesystem/eob-type"},{"code":"professional","display":"Claim Type","system":"http://hl7.org/fhir/ex-claimtype"},{"code":"O","display":"Part B physician/supplier claim record (processed by local carriers; can include DMEPOS services)","system":"https://bluebutton.cms.gov/resources/variables/nch_near_line_rec_ident_cd"}]}}},{"resource":{"billablePeriod":{"end":"2019-12-16T07:54:53-05:00","start":"2018-12-16T07:54:53-05:00"},"careTeam":[{"provider":{"identifier":{"system":"http://hl7.org/fhir/sid/us-npi","value":"99999999"}},"role":{"coding":[{"code":"primary","display":"Primary Care Practitioner","system":"http://hl7.org/fhir/claimcareteamrole"}]},"sequence":1}],"claim":{"reference":"Claim/b9384fdc-99c2-4cbb-ac53-1abfeaaf517a"},"contained":[{"id":"1","intent":"order","recipient":[{"identifier":{"system":"http://hl7.org/fhir/sid/us-npi","value":"99999999"}}],"requester":{"agent":{"identifier":{"system":"http://hl7.org/fhir/sid/us-npi","value":"99999999"}}},"resourceType":"ReferralRequest","status":"completed","subject":{"reference":"Patient/00ba2d77-4512-45d0-b58c-82ee3161b00e"}},{"id":"coverage","resourceType":"Coverage","type":{"text":"medicare"}}],"created":"2018-12-16T07:54:53-05:00","id":"c193f2f6-7a44-4c47-9359-66af1f86936f","identifier":[{"system":"https://bluebutton.cms.gov/resources/variables/clm_id","value":"b9384fdc-99c2-4cbb-ac53-1abfeaaf517a"},{"system":"https://bluebutton.cms.gov/resources/identifier/claim-group","value":"99999999999"}],"insurance":{"coverage":{"reference":"#coverage"}},"item":[{"category":{"coding":[{"code":"1","display":"Medical care","system":"https://bluebutton.cms.gov/resources/variables/line_cms_type_srvc_cd"}]},"encounter":[{"reference":"Encounter/d040d467-55a8-4786-93e9-52cff99788a9"}],"locationCodeableConcept":{"coding":[{"code":"21","display":"Inpatient Hospital","system":"https://bluebutton.cms.gov/resources/variables/line_place_of_srvc_cd"}]},"sequence":1,"servicedPeriod":{"end":"2018-12-16T07:54:53-05:00","start":"2018-12-16T07:24:53-05:00"}},{"adjudication":[{"amount":{"code":"USD","system":"urn:iso:std:iso:4217","value":28.104000000000003},"category":{"coding":[{"code":"https://bluebutton.cms.gov/resources/variables/line_coinsrnc_amt","display":"Line Beneficiary Coinsurance Amount","system":"https://bluebutton.cms.gov/resources/codesystem/adjudication"}]}},{"amount":{"code":"USD","system":"urn:iso:std:iso:4217","value":112.41600000000001},"category":{"coding":[{"code":"https://bluebutton.cms.gov/resources/variables/line_prvdr_pmt_amt","display":"Line Provider Payment Amount","system":"https://bluebutton.cms.gov/resources/codesystem/adjudication"}]}},{"amount":{"code":"USD","system":"urn:iso:std:iso:4217","value":140.52},"category":{"coding":[{"code":"https://bluebutton.cms.gov/resources/variables/line_sbmtd_chrg_amt","display":"Line Submitted Charge Amount","system":"https://bluebutton.cms.gov/resources/codesystem/adjudication"}]}},{"amount":{"code":"USD","system":"urn:iso:std:iso:4217","value":140.52},"category":{"coding":[{"code":"https://bluebutton.cms.gov/resources/variables/line_alowd_chrg_amt","display":"Line Allowed Charge Amount","system":"https://bluebutton.cms.gov/resources/codesystem/adjudication"}]}},{"amount":{"code":"USD","system":"urn:iso:std:iso:4217","value":0},"category":{"coding":[{"code":"https://bluebutton.cms.gov/resources/variables/line_bene_ptb_ddctbl_amt","display":"Line Beneficiary Part B Deductible Amount","system":"https://bluebutton.cms.gov/resources/codesystem/adjudication"}]}},{"category":{"coding":[{"code":"https://bluebutton.cms.gov/resources/variables/line_prcsg_ind_cd","display":"Line Processing Indicator Code","system":"https://bluebutton.cms.gov/resources/codesystem/adjudication"}]},"reason":{"coding":[{"code":"A","display":"Allowed","system":"https://bluebutton.cms.gov/resources/variables/line_prcsg_ind_cd"}]}}],"category":{"coding":[{"code":"1","display":"Medical care","system":"https://bluebutton.cms.gov/resources/variables/line_cms_type_srvc_cd"}]},"informationLinkId":[1],"locationCodeableConcept":{"coding":[{"code":"21","display":"Inpatient Hospital","system":"https://bluebutton.cms.gov/resources/variables/line_place_of_srvc_cd"}]},"net":{"code":"USD","system":"urn:iso:std:iso:4217","value":140.52},"sequence":2,"servicedPeriod":{"end":"2018-12-16T07:54:53-05:00","start":"2018-12-16T07:24:53-05:00"}},{"adjudication":[{"amount":{"code":"USD","system":"urn:iso:std:iso:4217","value":103.552},"category":{"coding":[{"code":"https://bluebutton.cms.gov/resources/variables/line_coinsrnc_amt","display":"Line Beneficiary Coinsurance Amount","system":"https://bluebutton.cms.gov/resources/codesystem/adjudication"}]}},{"amount":{"code":"USD","system":"urn:iso:std:iso:4217","value":414.208},"category":{"coding":[{"code":"https://bluebutton.cms.gov/resources/variables/line_prvdr_pmt_amt","display":"Line Provider Payment Amount","system":"https://bluebutton.cms.gov/resources/codesystem/adjudication"}]}},{"amount":{"code":"USD","system":"urn:iso:std:iso:4217","value":517.76},"category":{"coding":[{"code":"https://bluebutton.cms.gov/resources/variables/line_sbmtd_chrg_amt","display":"Line Submitted Charge Amount","system":"https://bluebutton.cms.gov/resources/codesystem/adjudication"}]}},{"amount":{"code":"USD","system":"urn:iso:std:iso:4217","value":517.76},"category":{"coding":[{"code":"https://bluebutton.cms.gov/resources/variables/line_alowd_chrg_amt","display":"Line Allowed Charge Amount","system":"https://bluebutton.cms.gov/resources/codesystem/adjudication"}]}},{"amount":{"code":"USD","system":"urn:iso:std:iso:4217","value":0},"category":{"coding":[{"code":"https://bluebutton.cms.gov/resources/variables/line_bene_ptb_ddctbl_amt","display":"Line Beneficiary Part B Deductible Amount","system":"https://bluebutton.cms.gov/resources/codesystem/adjudication"}]}},{"category":{"coding":[{"code":"https://bluebutton.cms.gov/resources/variables/line_prcsg_ind_cd","display":"Line Processing Indicator Code","system":"https://bluebutton.cms.gov/resources/codesystem/adjudication"}]},"reason":{"coding":[{"code":"A","display":"Allowed","system":"https://bluebutton.cms.gov/resources/variables/line_prcsg_ind_cd"}]}}],"category":{"coding":[{"code":"1","display":"Medical care","system":"https://bluebutton.cms.gov/resources/variables/line_cms_type_srvc_cd"}]},"locationCodeableConcept":{"coding":[{"code":"21","display":"Inpatient Hospital","system":"https://bluebutton.cms.gov/resources/variables/line_place_of_srvc_cd"}]},"net":{"code":"USD","system":"urn:iso:std:iso:4217","value":517.76},"sequence":3,"service":{"coding":[{"code":"428191000124101","system":"http://snomed.info/sct","version":"v1"}]},"servicedPeriod":{"end":"2018-12-16T07:54:53-05:00","start":"2018-12-16T07:24:53-05:00"}}],"meta":{"lastUpdated":"2019-04-09T11:38:48.812619+00:00","versionId":"MTU1NDgwOTkyODgxMjYxOTAwMA"},"organization":{"identifier":{"value":"915f9f66-75d8-46c2-8da4-04b35046240b"}},"patient":{"reference":"Patient/00ba2d77-4512-45d0-b58c-82ee3161b00e"},"payment":{"amount":{"code":"USD","system":"urn:iso:std:iso:4217","value":526.624}},"provider":{"identifier":{"value":"ebd27f21-bb93-4416-bdf8-84490ae394cc"}},"referral":{"reference":"#1"},"resourceType":"ExplanationOfBenefit","status":"active","totalCost":{"code":"USD","system":"urn:iso:std:iso:4217","value":783.28},"type":{"coding":[{"code":"71","display":"Local carrier non-durable medical equipment, prosthetics, orthotics, and supplies (DMEPOS) claim","system":"https://bluebutton.cms.gov/resources/variables/nch_clm_type_cd"},{"code":"CARRIER","display":"EOB Type","system":"https://bluebutton.cms.gov/resources/codesystem/eob-type"},{"code":"professional","display":"Claim Type","system":"http://hl7.org/fhir/ex-claimtype"},{"code":"O","display":"Part B physician/supplier claim record (processed by local carriers; can include DMEPOS services)","system":"https://bluebutton.cms.gov/resources/variables/nch_near_line_rec_ident_cd"}]}}},{"resource":{"billablePeriod":{"end":"2011-09-03T08:39:53-04:00","extension":[{"url":"https://bluebutton.cms.gov/assets/ig/StructureDefinition-bluebutton-inpatient-claim-query-cd-extension","valueCoding":{"code":"3","display":"Final Bill","system":"https://bluebutton.cms.gov/assets/ig/ValueSet-claim-query-cd"}}],"start":"2010-09-03T08:39:53-04:00"},"careTeam":[{"provider":{"identifier":{"system":"http://hl7.org/fhir/sid/us-npi","value":"99999999"}},"role":{"coding":[{"code":"primary","display":"Primary Care Practitioner","system":"http://hl7.org/fhir/claimcareteamrole"}]},"sequence":1}],"contained":[{"id":"coverage","resourceType":"Coverage","type":{"text":"medicare"}}],"extension":[{"url":"https://bluebutton.cms.gov/assets/ig/StructureDefinition-bluebutton-inpatient-ime-op-clm-val-amt-extension","valueMoney":{"code":"USD","system":"urn:iso:std:iso:4217","value":400}},{"url":"https://bluebutton.cms.gov/assets/ig/StructureDefinition-bluebutton-inpatient-dsh-op-clm-val-amt-extension","valueMoney":{"code":"USD","system":"urn:iso:std:iso:4217","value":0}},{"url":"https://bluebutton.cms.gov/assets/ig/StructureDefinition-bluebutton-inpatient-clm-pass-thru-per-diem-amt-extension","valueMoney":{"code":"USD","system":"urn:iso:std:iso:4217","value":0}},{"url":"https://bluebutton.cms.gov/assets/ig/StructureDefinition-bluebutton-inpatient-nch-profnl-cmpnt-chrg-amt-extension","valueMoney":{"code":"USD","system":"urn:iso:std:iso:4217","value":0}},{"url":"https://bluebutton.cms.gov/assets/ig/StructureDefinition-bluebutton-inpatient-clm-tot-pps-cptl-amt-extension","valueMoney":{"code":"USD","system":"urn:iso:std:iso:4217","value":0}},{"url":"https://bluebutton.cms.gov/assets/ig/StructureDefinition-bluebutton-inpatient-nch-bene-ip-ddctbl-amt-extension","valueMoney":{"code":"USD","system":"urn:iso:std:iso:4217","value":0}},{"url":"https://bluebutton.cms.gov/assets/ig/StructureDefinition-bluebutton-inpatient-nch-bene-pta-coinsrnc-lblty-amt-extension","valueMoney":{"code":"USD","system":"urn:iso:std:iso:4217","value":0}},{"url":"https://bluebutton.cms.gov/assets/ig/StructureDefinition-bluebutton-inpatient-nch-ip-ncvrd-chrg-amt-extension","valueMoney":{"code":"USD","system":"urn:iso:std:iso:4217","value":0}},{"url":"https://bluebutton.cms.gov/assets/ig/StructureDefinition-bluebutton-inpatient-nch-ip-tot-ddctn-amt-extension","valueMoney":{"code":"USD","system":"urn:iso:std:iso:4217","value":0}},{"url":"https://bluebutton.cms.gov/assets/ig/StructureDefinition-bluebutton-inpatient-clm-pps-cptl-dsprprtnt-shr-amt-extension","valueMoney":{"code":"USD","system":"urn:iso:std:iso:4217","value":0}},{"url":"https://bluebutton.cms.gov/assets/ig/StructureDefinition-bluebutton-inpatient-clm-pps-cptl-excptn-amt-extension","valueMoney":{"code":"USD","system":"urn:iso:std:iso:4217","value":0}},{"url":"https://bluebutton.cms.gov/assets/ig/StructureDefinition-bluebutton-inpatient-clm-pps-cptl-fsp-amt-extension","valueMoney":{"code":"USD","system":"urn:iso:std:iso:4217","value":0}},{"url":"https://bluebutton.cms.gov/assets/ig/StructureDefinition-bluebutton-inpatient-clm-pps-cptl-ime-amt-extension","valueMoney":{"code":"USD","system":"urn:iso:std:iso:4217","value":400}},{"url":"https://bluebutton.cms.gov/assets/ig/StructureDefinition-bluebutton-inpatient-clm-pps-cptl-outlier-amt-extension","valueMoney":{"code":"USD","system":"urn:iso:std:iso:4217","value":0}},{"url":"https://bluebutton.cms.gov/assets/ig/StructureDefinition-bluebutton-inpatient-clm-pps-old-cptl-hld-hrmls-amt-extension","valueMoney":{"code":"USD","system":"urn:iso:std:iso:4217","value":0}},{"url":"https://bluebutton.cms.gov/assets/ig/StructureDefinition-bluebutton-inpatient-nch-drg-outlier-aprvd-pmt-amt-extension","valueMoney":{"code":"USD","system":"urn:iso:std:iso:4217","value":0}},{"url":"https://bluebutton.cms.gov/assets/ig/StructureDefinition-bluebutton-inpatient-nch-bene-blood-ddctbl-lblty-am-extension","valueMoney":{"code":"USD","system":"urn:iso:std:iso:4217","value":0}},{"url":"https://bluebutton.cms.gov/assets/ig/StructureDefinition-bluebutton-inpatient-clm-mdcr-non-pmt-rsn-cd-extension","valueCoding":{"code":"N","display":"All other reasons for non-payment","system":"https://bluebutton.cms.gov/assets/ig/CodeSystem-clm-mdcr-non-pmt-rsn-cd"}},{"url":"https://bluebutton.cms.gov/assets/ig/StructureDefinition-bluebutton-inpatient-prpayamt-extension","valueMoney":{"code":"USD","system":"urn:iso:std:iso:4217","value":0}},{"url":"https://bluebutton.cms.gov/assets/ig/StructureDefinition-bluebutton-inpatient-fi-num-extension","valueIdentifier":{"system":"https://bluebutton.cms.gov/assets/ig/CodeSystem-fi-num","value":"002000"}}],"id":"cf6d5897-175e-474e-a65b-b1a820dec5a0","identifier":[{"system":"https://bluebutton.cms.gov/resources/variables/clm_id","value":"ac5df3e7-2d5f-4dbf-aa81-3c94a3a80c26"},{"system":"https://bluebutton.cms.gov/resources/identifier/claim-group","value":"99999999999"}],"insurance":{"coverage":{"reference":"#coverage"}},"item":[{"extension":[{"url":"https://bluebutton.cms.gov/assets/ig/StructureDefinition-bluebutton-inpatient-rev-cntr-ndc-qty-extension","valueQuantity":{"value":0}}],"locationCodeableConcept":{"coding":[{"code":"21","display":"Inpatient Hospital","system":"https://bluebutton.cms.gov/resources/variables/line_place_of_srvc_cd"}]},"sequence":1}],"meta":{"lastUpdated":"2019-04-09T11:38:34.393663+00:00","profile":["https://bluebutton.cms.gov/assets/ig/StructureDefinition-bluebutton-inpatient-claim"],"versionId":"MTU1NDgwOTkxNDM5MzY2MzAwMA"},"organization":{"identifier":{"value":"915f9f66-75d8-46c2-8da4-04b35046240b"}},"patient":{"reference":"Patient/00ba2d77-4512-45d0-b58c-82ee3161b00e"},"payment":{"amount":{"code":"USD","system":"urn:iso:std:iso:4217","value":0}},"provider":{"identifier":{"value":"ebd27f21-bb93-4416-bdf8-84490ae394cc"}},"resourceType":"ExplanationOfBenefit","status":"active","totalCost":{"code":"USD","system":"urn:iso:std:iso:4217","value":125},"type":{"coding":[{"code":"71","display":"Local carrier non-durable medical equipment, prosthetics, orthotics, and supplies (DMEPOS) claim","system":"https://bluebutton.cms.gov/resources/variables/nch_clm_type_cd"},{"code":"CARRIER","display":"EOB Type","system":"https://bluebutton.cms.gov/resources/codesystem/eob-type"},{"code":"professional","display":"Claim Type","system":"http://hl7.org/fhir/ex-claimtype"},{"code":"O","display":"Part B physician/supplier claim record (processed by local carriers; can include DMEPOS services)","system":"https://bluebutton.cms.gov/resources/variables/nch_near_line_rec_ident_cd"}]}}},{"resource":{"billablePeriod":{"end":"2010-10-18T08:54:53-04:00","start":"2009-10-18T08:54:53-04:00"},"careTeam":[{"provider":{"identifier":{"system":"http://hl7.org/fhir/sid/us-npi","value":"99999999"}},"role":{"coding":[{"code":"primary","display":"Primary Care Practitioner","system":"http://hl7.org/fhir/claimcareteamrole"}]},"sequence":1}],"claim":{"reference":"Claim/a9c7f9a2-dc42-4dc9-a87a-b2d431a740be"},"contained":[{"id":"1","intent":"order","recipient":[{"identifier":{"system":"http://hl7.org/fhir/sid/us-npi","value":"99999999"}}],"requester":{"agent":{"identifier":{"system":"http://hl7.org/fhir/sid/us-npi","value":"99999999"}}},"resourceType":"ReferralRequest","status":"completed","subject":{"reference":"Patient/00ba2d77-4512-45d0-b58c-82ee3161b00e"}},{"id":"coverage","resourceType":"Coverage","type":{"text":"medicare"}}],"created":"2009-10-18T08:54:53-04:00","id":"cfa09e20-d5f9-4dcf-84b6-7118f8bd028b","identifier":[{"system":"https://bluebutton.cms.gov/resources/variables/clm_id","value":"a9c7f9a2-dc42-4dc9-a87a-b2d431a740be"},{"system":"https://bluebutton.cms.gov/resources/identifier/claim-group","value":"99999999999"}],"insurance":{"coverage":{"reference":"#coverage"}},"item":[{"category":{"coding":[{"code":"1","display":"Medical care","system":"https://bluebutton.cms.gov/resources/variables/line_cms_type_srvc_cd"}]},"encounter":[{"reference":"Encounter/7d401114-351e-4b6f-a04c-9e9d0104e90a"}],"locationCodeableConcept":{"coding":[{"code":"21","display":"Inpatient Hospital","system":"https://bluebutton.cms.gov/resources/variables/line_place_of_srvc_cd"}]},"sequence":1,"servicedPeriod":{"end":"2009-10-18T08:54:53-04:00","start":"2009-10-18T08:24:53-04:00"}},{"adjudication":[{"amount":{"code":"USD","system":"urn:iso:std:iso:4217","value":28.104000000000003},"category":{"coding":[{"code":"https://bluebutton.cms.gov/resources/variables/line_coinsrnc_amt","display":"Line Beneficiary Coinsurance Amount","system":"https://bluebutton.cms.gov/resources/codesystem/adjudication"}]}},{"amount":{"code":"USD","system":"urn:iso:std:iso:4217","value":112.41600000000001},"category":{"coding":[{"code":"https://bluebutton.cms.gov/resources/variables/line_prvdr_pmt_amt","display":"Line Provider Payment Amount","system":"https://bluebutton.cms.gov/resources/codesystem/adjudication"}]}},{"amount":{"code":"USD","system":"urn:iso:std:iso:4217","value":140.52},"category":{"coding":[{"code":"https://bluebutton.cms.gov/resources/variables/line_sbmtd_chrg_amt","display":"Line Submitted Charge Amount","system":"https://bluebutton.cms.gov/resources/codesystem/adjudication"}]}},{"amount":{"code":"USD","system":"urn:iso:std:iso:4217","value":140.52},"category":{"coding":[{"code":"https://bluebutton.cms.gov/resources/variables/line_alowd_chrg_amt","display":"Line Allowed Charge Amount","system":"https://bluebutton.cms.gov/resources/codesystem/adjudication"}]}},{"amount":{"code":"USD","system":"urn:iso:std:iso:4217","value":0},"category":{"coding":[{"code":"https://bluebutton.cms.gov/resources/variables/line_bene_ptb_ddctbl_amt","display":"Line Beneficiary Part B Deductible Amount","system":"https://bluebutton.cms.gov/resources/codesystem/adjudication"}]}},{"category":{"coding":[{"code":"https://bluebutton.cms.gov/resources/variables/line_prcsg_ind_cd","display":"Line Processing Indicator Code","system":"https://bluebutton.cms.gov/resources/codesystem/adjudication"}]},"reason":{"coding":[{"code":"A","display":"Allowed","system":"https://bluebutton.cms.gov/resources/variables/line_prcsg_ind_cd"}]}}],"category":{"coding":[{"code":"1","display":"Medical care","system":"https://bluebutton.cms.gov/resources/variables/line_cms_type_srvc_cd"}]},"informationLinkId":[1],"locationCodeableConcept":{"coding":[{"code":"21","display":"Inpatient Hospital","system":"https://bluebutton.cms.gov/resources/variables/line_place_of_srvc_cd"}]},"net":{"code":"USD","system":"urn:iso:std:iso:4217","value":140.52},"sequence":2,"servicedPeriod":{"end":"2009-10-18T08:54:53-04:00","start":"2009-10-18T08:24:53-04:00"}},{"adjudication":[{"amount":{"code":"USD","system":"urn:iso:std:iso:4217","value":110.75999999999999},"category":{"coding":[{"code":"https://bluebutton.cms.gov/resources/variables/line_coinsrnc_amt","display":"Line Beneficiary Coinsurance Amount","system":"https://bluebutton.cms.gov/resources/codesystem/adjudication"}]}},{"amount":{"code":"USD","system":"urn:iso:std:iso:4217","value":443.03999999999996},"category":{"coding":[{"code":"https://bluebutton.cms.gov/resources/variables/line_prvdr_pmt_amt","display":"Line Provider Payment Amount","system":"https://bluebutton.cms.gov/resources/codesystem/adjudication"}]}},{"amount":{"code":"USD","system":"urn:iso:std:iso:4217","value":553.8},"category":{"coding":[{"code":"https://bluebutton.cms.gov/resources/variables/line_sbmtd_chrg_amt","display":"Line Submitted Charge Amount","system":"https://bluebutton.cms.gov/resources/codesystem/adjudication"}]}},{"amount":{"code":"USD","system":"urn:iso:std:iso:4217","value":553.8},"category":{"coding":[{"code":"https://bluebutton.cms.gov/resources/variables/line_alowd_chrg_amt","display":"Line Allowed Charge Amount","system":"https://bluebutton.cms.gov/resources/codesystem/adjudication"}]}},{"amount":{"code":"USD","system":"urn:iso:std:iso:4217","value":0},"category":{"coding":[{"code":"https://bluebutton.cms.gov/resources/variables/line_bene_ptb_ddctbl_amt","display":"Line Beneficiary Part B Deductible Amount","system":"https://bluebutton.cms.gov/resources/codesystem/adjudication"}]}},{"category":{"coding":[{"code":"https://bluebutton.cms.gov/resources/variables/line_prcsg_ind_cd","display":"Line Processing Indicator Code","system":"https://bluebutton.cms.gov/resources/codesystem/adjudication"}]},"reason":{"coding":[{"code":"A","display":"Allowed","system":"https://bluebutton.cms.gov/resources/variables/line_prcsg_ind_cd"}]}}],"category":{"coding":[{"code":"1","display":"Medical care","system":"https://bluebutton.cms.gov/resources/variables/line_cms_type_srvc_cd"}]},"locationCodeableConcept":{"coding":[{"code":"21","display":"Inpatient Hospital","system":"https://bluebutton.cms.gov/resources/variables/line_place_of_srvc_cd"}]},"net":{"code":"USD","system":"urn:iso:std:iso:4217","value":553.8},"sequence":3,"service":{"coding":[{"code":"428191000124101","system":"http://snomed.info/sct","version":"v1"}]},"servicedPeriod":{"end":"2009-10-18T08:54:53-04:00","start":"2009-10-18T08:24:53-04:00"}}],"meta":{"lastUpdated":"2019-04-09T11:38:34.393666+00:00","versionId":"MTU1NDgwOTkxNDM5MzY2NjAwMA"},"organization":{"identifier":{"value":"915f9f66-75d8-46c2-8da4-04b35046240b"}},"patient":{"reference":"Patient/00ba2d77-4512-45d0-b58c-82ee3161b00e"},"payment":{"amount":{"code":"USD","system":"urn:iso:std:iso:4217","value":555.456}},"provider":{"identifier":{"value":"ebd27f21-bb93-4416-bdf8-84490ae394cc"}},"referral":{"reference":"#1"},"resourceType":"ExplanationOfBenefit","status":"active","totalCost":{"code":"USD","system":"urn:iso:std:iso:4217","value":819.32},"type":{"coding":[{"code":"71","display":"Local carrier non-durable medical equipment, prosthetics, orthotics, and supplies (DMEPOS) claim","system":"https://bluebutton.cms.gov/resources/variables/nch_clm_type_cd"},{"code":"CARRIER","display":"EOB Type","system":"https://bluebutton.cms.gov/resources/codesystem/eob-type"},{"code":"professional","display":"Claim Type","system":"http://hl7.org/fhir/ex-claimtype"},{"code":"O","display":"Part B physician/supplier claim record (processed by local carriers; can include DMEPOS services)","system":"https://bluebutton.cms.gov/resources/variables/nch_near_line_rec_ident_cd"}]}}},{"resource":{"billablePeriod":{"end":"1991-09-08T08:39:53-04:00","extension":[{"url":"https://bluebutton.cms.gov/assets/ig/StructureDefinition-bluebutton-inpatient-claim-query-cd-extension","valueCoding":{"code":"3","display":"Final Bill","system":"https://bluebutton.cms.gov/assets/ig/ValueSet-claim-query-cd"}}],"start":"1990-09-08T08:39:53-04:00"},"careTeam":[{"provider":{"identifier":{"system":"http://hl7.org/fhir/sid/us-npi","value":"99999999"}},"role":{"coding":[{"code":"primary","display":"Primary Care Practitioner","system":"http://hl7.org/fhir/claimcareteamrole"}]},"sequence":1}],"contained":[{"id":"coverage","resourceType":"Coverage","type":{"text":"private"}}],"extension":[{"url":"https://bluebutton.cms.gov/assets/ig/StructureDefinition-bluebutton-inpatient-ime-op-clm-val-amt-extension","valueMoney":{"code":"USD","system":"urn:iso:std:iso:4217","value":400}},{"url":"https://bluebutton.cms.gov/assets/ig/StructureDefinition-bluebutton-inpatient-dsh-op-clm-val-amt-extension","valueMoney":{"code":"USD","system":"urn:iso:std:iso:4217","value":0}},{"url":"https://bluebutton.cms.gov/assets/ig/StructureDefinition-bluebutton-inpatient-clm-pass-thru-per-diem-amt-extension","valueMoney":{"code":"USD","system":"urn:iso:std:iso:4217","value":0}},{"url":"https://bluebutton.cms.gov/assets/ig/StructureDefinition-bluebutton-inpatient-nch-profnl-cmpnt-chrg-amt-extension","valueMoney":{"code":"USD","system":"urn:iso:std:iso:4217","value":0}},{"url":"https://bluebutton.cms.gov/assets/ig/StructureDefinition-bluebutton-inpatient-clm-tot-pps-cptl-amt-extension","valueMoney":{"code":"USD","system":"urn:iso:std:iso:4217","value":0}},{"url":"https://bluebutton.cms.gov/assets/ig/StructureDefinition-bluebutton-inpatient-nch-bene-ip-ddctbl-amt-extension","valueMoney":{"code":"USD","system":"urn:iso:std:iso:4217","value":0}},{"url":"https://bluebutton.cms.gov/assets/ig/StructureDefinition-bluebutton-inpatient-nch-bene-pta-coinsrnc-lblty-amt-extension","valueMoney":{"code":"USD","system":"urn:iso:std:iso:4217","value":0}},{"url":"https://bluebutton.cms.gov/assets/ig/StructureDefinition-bluebutton-inpatient-nch-ip-ncvrd-chrg-amt-extension","valueMoney":{"code":"USD","system":"urn:iso:std:iso:4217","value":0}},{"url":"https://bluebutton.cms.gov/assets/ig/StructureDefinition-bluebutton-inpatient-nch-ip-tot-ddctn-amt-extension","valueMoney":{"code":"USD","system":"urn:iso:std:iso:4217","value":0}},{"url":"https://bluebutton.cms.gov/assets/ig/StructureDefinition-bluebutton-inpatient-clm-pps-cptl-dsprprtnt-shr-amt-extension","valueMoney":{"code":"USD","system":"urn:iso:std:iso:4217","value":0}},{"url":"https://bluebutton.cms.gov/assets/ig/StructureDefinition-bluebutton-inpatient-clm-pps-cptl-excptn-amt-extension","valueMoney":{"code":"USD","system":"urn:iso:std:iso:4217","value":0}},{"url":"https://bluebutton.cms.gov/assets/ig/StructureDefinition-bluebutton-inpatient-clm-pps-cptl-fsp-amt-extension","valueMoney":{"code":"USD","system":"urn:iso:std:iso:4217","value":0}},{"url":"https://bluebutton.cms.gov/assets/ig/StructureDefinition-bluebutton-inpatient-clm-pps-cptl-ime-amt-extension","valueMoney":{"code":"USD","system":"urn:iso:std:iso:4217","value":400}},{"url":"https://bluebutton.cms.gov/assets/ig/StructureDefinition-bluebutton-inpatient-clm-pps-cptl-outlier-amt-extension","valueMoney":{"code":"USD","system":"urn:iso:std:iso:4217","value":0}},{"url":"https://bluebutton.cms.gov/assets/ig/StructureDefinition-bluebutton-inpatient-clm-pps-old-cptl-hld-hrmls-amt-extension","valueMoney":{"code":"USD","system":"urn:iso:std:iso:4217","value":0}},{"url":"https://bluebutton.cms.gov/assets/ig/StructureDefinition-bluebutton-inpatient-nch-drg-outlier-aprvd-pmt-amt-extension","valueMoney":{"code":"USD","system":"urn:iso:std:iso:4217","value":0}},{"url":"https://bluebutton.cms.gov/assets/ig/StructureDefinition-bluebutton-inpatient-nch-bene-blood-ddctbl-lblty-am-extension","valueMoney":{"code":"USD","system":"urn:iso:std:iso:4217","value":0}},{"url":"https://bluebutton.cms.gov/assets/ig/StructureDefinition-bluebutton-inpatient-clm-mdcr-non-pmt-rsn-cd-extension","valueCoding":{"code":"N","display":"All other reasons for non-payment","system":"https://bluebutton.cms.gov/assets/ig/CodeSystem-clm-mdcr-non-pmt-rsn-cd"}},{"url":"https://bluebutton.cms.gov/assets/ig/StructureDefinition-bluebutton-inpatient-prpayamt-extension","valueMoney":{"code":"USD","system":"urn:iso:std:iso:4217","value":0}},{"url":"https://bluebutton.cms.gov/assets/ig/StructureDefinition-bluebutton-inpatient-fi-num-extension","valueIdentifier":{"system":"https://bluebutton.cms.gov/assets/ig/CodeSystem-fi-num","value":"002000"}}],"id":"d27e35a6-826c-4d68-ad31-09ef409d643f","identifier":[{"system":"https://bluebutton.cms.gov/resources/variables/clm_id","value":"1fffd943-71a2-489e-ab72-d737e3c257db"},{"system":"https://bluebutton.cms.gov/resources/identifier/claim-group","value":"99999999999"}],"insurance":{"coverage":{"reference":"#coverage"}},"item":[{"extension":[{"url":"https://bluebutton.cms.gov/assets/ig/StructureDefinition-bluebutton-inpatient-rev-cntr-ndc-qty-extension","valueQuantity":{"value":0}}],"locationCodeableConcept":{"coding":[{"code":"21","display":"Inpatient Hospital","system":"https://bluebutton.cms.gov/resources/variables/line_place_of_srvc_cd"}]},"sequence":1}],"meta":{"lastUpdated":"2019-04-09T11:38:30.280351+00:00","profile":["https://bluebutton.cms.gov/assets/ig/StructureDefinition-bluebutton-inpatient-claim"],"versionId":"MTU1NDgwOTkxMDI4MDM1MTAwMA"},"organization":{"identifier":{"value":"915f9f66-75d8-46c2-8da4-04b35046240b"}},"patient":{"reference":"Patient/00ba2d77-4512-45d0-b58c-82ee3161b00e"},"payment":{"amount":{"code":"USD","system":"urn:iso:std:iso:4217","value":0}},"provider":{"identifier":{"value":"ebd27f21-bb93-4416-bdf8-84490ae394cc"}},"resourceType":"ExplanationOfBenefit","status":"active","totalCost":{"code":"USD","system":"urn:iso:std:iso:4217","value":125},"type":{"coding":[{"code":"71","display":"Local carrier non-durable medical equipment, prosthetics, orthotics, and supplies (DMEPOS) claim","system":"https://bluebutton.cms.gov/resources/variables/nch_clm_type_cd"},{"code":"CARRIER","display":"EOB Type","system":"https://bluebutton.cms.gov/resources/codesystem/eob-type"},{"code":"professional","display":"Claim Type","system":"http://hl7.org/fhir/ex-claimtype"},{"code":"O","display":"Part B physician/supplier claim record (processed by local carriers; can include DMEPOS services)","system":"https://bluebutton.cms.gov/resources/variables/nch_near_line_rec_ident_cd"}]}}},{"resource":{"billablePeriod":{"end":"2002-11-21T08:23:53-05:00","extension":[{"url":"https://bluebutton.cms.gov/assets/ig/StructureDefinition-bluebutton-inpatient-claim-query-cd-extension","valueCoding":{"code":"3","display":"Final Bill","system":"https://bluebutton.cms.gov/assets/ig/ValueSet-claim-query-cd"}}],"start":"2001-11-21T08:23:53-05:00"},"careTeam":[{"provider":{"identifier":{"system":"http://hl7.org/fhir/sid/us-npi","value":"99999999"}},"role":{"coding":[{"code":"primary","display":"Primary Care Practitioner","system":"http://hl7.org/fhir/claimcareteamrole"}]},"sequence":1}],"contained":[{"id":"coverage","resourceType":"Coverage","type":{"text":"medicare"}}],"diagnosis":[{"diagnosisReference":{"reference":"Condition/204df5f2-9064-4c16-a5dd-459460bbd8ca"},"extension":[{"url":"https://bluebutton.cms.gov/assets/ig/StructureDefinition-bluebutton-inpatient-clm-poa-ind-sw1-extension","valueCoding":{"code":"Y","display":"Diagnosis present at time of admission","system":"https://bluebutton.cms.gov/assets/ig/CodeSystem-clm-poa-ind-sw1"}}],"sequence":1,"type":[{"coding":[{"code":"principal","system":"https://bluebutton.cms.gov/resources/codesystem/diagnosis-type"}]}]}],"extension":[{"url":"https://bluebutton.cms.gov/assets/ig/StructureDefinition-bluebutton-inpatient-ime-op-clm-val-amt-extension","valueMoney":{"code":"USD","system":"urn:iso:std:iso:4217","value":400}},{"url":"https://bluebutton.cms.gov/assets/ig/StructureDefinition-bluebutton-inpatient-dsh-op-clm-val-amt-extension","valueMoney":{"code":"USD","system":"urn:iso:std:iso:4217","value":0}},{"url":"https://bluebutton.cms.gov/assets/ig/StructureDefinition-bluebutton-inpatient-clm-pass-thru-per-diem-amt-extension","valueMoney":{"code":"USD","system":"urn:iso:std:iso:4217","value":0}},{"url":"https://bluebutton.cms.gov/assets/ig/StructureDefinition-bluebutton-inpatient-nch-profnl-cmpnt-chrg-amt-extension","valueMoney":{"code":"USD","system":"urn:iso:std:iso:4217","value":0}},{"url":"https://bluebutton.cms.gov/assets/ig/StructureDefinition-bluebutton-inpatient-clm-tot-pps-cptl-amt-extension","valueMoney":{"code":"USD","system":"urn:iso:std:iso:4217","value":0}},{"url":"https://bluebutton.cms.gov/assets/ig/StructureDefinition-bluebutton-inpatient-nch-bene-ip-ddctbl-amt-extension","valueMoney":{"code":"USD","system":"urn:iso:std:iso:4217","value":0}},{"url":"https://bluebutton.cms.gov/assets/ig/StructureDefinition-bluebutton-inpatient-nch-bene-pta-coinsrnc-lblty-amt-extension","valueMoney":{"code":"USD","system":"urn:iso:std:iso:4217","value":0}},{"url":"https://bluebutton.cms.gov/assets/ig/StructureDefinition-bluebutton-inpatient-nch-ip-ncvrd-chrg-amt-extension","valueMoney":{"code":"USD","system":"urn:iso:std:iso:4217","value":0}},{"url":"https://bluebutton.cms.gov/assets/ig/StructureDefinition-bluebutton-inpatient-nch-ip-tot-ddctn-amt-extension","valueMoney":{"code":"USD","system":"urn:iso:std:iso:4217","value":0}},{"url":"https://bluebutton.cms.gov/assets/ig/StructureDefinition-bluebutton-inpatient-clm-pps-cptl-dsprprtnt-shr-amt-extension","valueMoney":{"code":"USD","system":"urn:iso:std:iso:4217","value":0}},{"url":"https://bluebutton.cms.gov/assets/ig/StructureDefinition-bluebutton-inpatient-clm-pps-cptl-excptn-amt-extension","valueMoney":{"code":"USD","system":"urn:iso:std:iso:4217","value":0}},{"url":"https://bluebutton.cms.gov/assets/ig/StructureDefinition-bluebutton-inpatient-clm-pps-cptl-fsp-amt-extension","valueMoney":{"code":"USD","system":"urn:iso:std:iso:4217","value":0}},{"url":"https://bluebutton.cms.gov/assets/ig/StructureDefinition-bluebutton-inpatient-clm-pps-cptl-ime-amt-extension","valueMoney":{"code":"USD","system":"urn:iso:std:iso:4217","value":400}},{"url":"https://bluebutton.cms.gov/assets/ig/StructureDefinition-bluebutton-inpatient-clm-pps-cptl-outlier-amt-extension","valueMoney":{"code":"USD","system":"urn:iso:std:iso:4217","value":0}},{"url":"https://bluebutton.cms.gov/assets/ig/StructureDefinition-bluebutton-inpatient-clm-pps-old-cptl-hld-hrmls-amt-extension","valueMoney":{"code":"USD","system":"urn:iso:std:iso:4217","value":0}},{"url":"https://bluebutton.cms.gov/assets/ig/StructureDefinition-bluebutton-inpatient-nch-drg-outlier-aprvd-pmt-amt-extension","valueMoney":{"code":"USD","system":"urn:iso:std:iso:4217","value":0}},{"url":"https://bluebutton.cms.gov/assets/ig/StructureDefinition-bluebutton-inpatient-nch-bene-blood-ddctbl-lblty-am-extension","valueMoney":{"code":"USD","system":"urn:iso:std:iso:4217","value":0}},{"url":"https://bluebutton.cms.gov/assets/ig/StructureDefinition-bluebutton-inpatient-clm-mdcr-non-pmt-rsn-cd-extension","valueCoding":{"code":"N","display":"All other reasons for non-payment","system":"https://bluebutton.cms.gov/assets/ig/CodeSystem-clm-mdcr-non-pmt-rsn-cd"}},{"url":"https://bluebutton.cms.gov/assets/ig/StructureDefinition-bluebutton-inpatient-prpayamt-extension","valueMoney":{"code":"USD","system":"urn:iso:std:iso:4217","value":0}},{"url":"https://bluebutton.cms.gov/assets/ig/StructureDefinition-bluebutton-inpatient-fi-num-extension","valueIdentifier":{"system":"https://bluebutton.cms.gov/assets/ig/CodeSystem-fi-num","value":"002000"}}],"id":"d4d1e0a4-1339-4ed2-add7-ef1901702a35","identifier":[{"system":"https://bluebutton.cms.gov/resources/variables/clm_id","value":"9bd732d1-88d9-4cf0-b718-6849eaf1234c"},{"system":"https://bluebutton.cms.gov/resources/identifier/claim-group","value":"99999999999"}],"insurance":{"coverage":{"reference":"#coverage"}},"item":[{"extension":[{"url":"https://bluebutton.cms.gov/assets/ig/StructureDefinition-bluebutton-inpatient-rev-cntr-ndc-qty-extension","valueQuantity":{"value":0}}],"locationCodeableConcept":{"coding":[{"code":"21","display":"Inpatient Hospital","system":"https://bluebutton.cms.gov/resources/variables/line_place_of_srvc_cd"}]},"sequence":1},{"extension":[{"url":"https://bluebutton.cms.gov/assets/ig/StructureDefinition-bluebutton-inpatient-rev-cntr-ndc-qty-extension","valueQuantity":{"value":0}}],"locationCodeableConcept":{"coding":[{"code":"21","display":"Inpatient Hospital","system":"https://bluebutton.cms.gov/resources/variables/line_place_of_srvc_cd"}]},"sequence":2}],"meta":{"lastUpdated":"2019-04-09T11:38:31.313979+00:00","profile":["https://bluebutton.cms.gov/assets/ig/StructureDefinition-bluebutton-inpatient-claim"],"versionId":"MTU1NDgwOTkxMTMxMzk3OTAwMA"},"organization":{"identifier":{"value":"915f9f66-75d8-46c2-8da4-04b35046240b"}},"patient":{"reference":"Patient/00ba2d77-4512-45d0-b58c-82ee3161b00e"},"payment":{"amount":{"code":"USD","system":"urn:iso:std:iso:4217","value":0}},"provider":{"identifier":{"value":"ebd27f21-bb93-4416-bdf8-84490ae394cc"}},"resourceType":"ExplanationOfBenefit","status":"active","totalCost":{"code":"USD","system":"urn:iso:std:iso:4217","value":125},"type":{"coding":[{"code":"71","display":"Local carrier non-durable medical equipment, prosthetics, orthotics, and supplies (DMEPOS) claim","system":"https://bluebutton.cms.gov/resources/variables/nch_clm_type_cd"},{"code":"CARRIER","display":"EOB Type","system":"https://bluebutton.cms.gov/resources/codesystem/eob-type"},{"code":"professional","display":"Claim Type","system":"http://hl7.org/fhir/ex-claimtype"},{"code":"O","display":"Part B physician/supplier claim record (processed by local carriers; can include DMEPOS services)","system":"https://bluebutton.cms.gov/resources/variables/nch_near_line_rec_ident_cd"}]}}},{"resource":{"billablePeriod":{"end":"2017-09-01T08:39:53-04:00","extension":[{"url":"https://bluebutton.cms.gov/assets/ig/StructureDefinition-bluebutton-inpatient-claim-query-cd-extension","valueCoding":{"code":"3","display":"Final Bill","system":"https://bluebutton.cms.gov/assets/ig/ValueSet-claim-query-cd"}}],"start":"2016-09-01T08:39:53-04:00"},"careTeam":[{"provider":{"identifier":{"system":"http://hl7.org/fhir/sid/us-npi","value":"99999999"}},"role":{"coding":[{"code":"primary","display":"Primary Care Practitioner","system":"http://hl7.org/fhir/claimcareteamrole"}]},"sequence":1}],"contained":[{"id":"coverage","resourceType":"Coverage","type":{"text":"medicare"}}],"extension":[{"url":"https://bluebutton.cms.gov/assets/ig/StructureDefinition-bluebutton-inpatient-ime-op-clm-val-amt-extension","valueMoney":{"code":"USD","system":"urn:iso:std:iso:4217","value":400}},{"url":"https://bluebutton.cms.gov/assets/ig/StructureDefinition-bluebutton-inpatient-dsh-op-clm-val-amt-extension","valueMoney":{"code":"USD","system":"urn:iso:std:iso:4217","value":0}},{"url":"https://bluebutton.cms.gov/assets/ig/StructureDefinition-bluebutton-inpatient-clm-pass-thru-per-diem-amt-extension","valueMoney":{"code":"USD","system":"urn:iso:std:iso:4217","value":0}},{"url":"https://bluebutton.cms.gov/assets/ig/StructureDefinition-bluebutton-inpatient-nch-profnl-cmpnt-chrg-amt-extension","valueMoney":{"code":"USD","system":"urn:iso:std:iso:4217","value":0}},{"url":"https://bluebutton.cms.gov/assets/ig/StructureDefinition-bluebutton-inpatient-clm-tot-pps-cptl-amt-extension","valueMoney":{"code":"USD","system":"urn:iso:std:iso:4217","value":0}},{"url":"https://bluebutton.cms.gov/assets/ig/StructureDefinition-bluebutton-inpatient-nch-bene-ip-ddctbl-amt-extension","valueMoney":{"code":"USD","system":"urn:iso:std:iso:4217","value":0}},{"url":"https://bluebutton.cms.gov/assets/ig/StructureDefinition-bluebutton-inpatient-nch-bene-pta-coinsrnc-lblty-amt-extension","valueMoney":{"code":"USD","system":"urn:iso:std:iso:4217","value":0}},{"url":"https://bluebutton.cms.gov/assets/ig/StructureDefinition-bluebutton-inpatient-nch-ip-ncvrd-chrg-amt-extension","valueMoney":{"code":"USD","system":"urn:iso:std:iso:4217","value":0}},{"url":"https://bluebutton.cms.gov/assets/ig/StructureDefinition-bluebutton-inpatient-nch-ip-tot-ddctn-amt-extension","valueMoney":{"code":"USD","system":"urn:iso:std:iso:4217","value":0}},{"url":"https://bluebutton.cms.gov/assets/ig/StructureDefinition-bluebutton-inpatient-clm-pps-cptl-dsprprtnt-shr-amt-extension","valueMoney":{"code":"USD","system":"urn:iso:std:iso:4217","value":0}},{"url":"https://bluebutton.cms.gov/assets/ig/StructureDefinition-bluebutton-inpatient-clm-pps-cptl-excptn-amt-extension","valueMoney":{"code":"USD","system":"urn:iso:std:iso:4217","value":0}},{"url":"https://bluebutton.cms.gov/assets/ig/StructureDefinition-bluebutton-inpatient-clm-pps-cptl-fsp-amt-extension","valueMoney":{"code":"USD","system":"urn:iso:std:iso:4217","value":0}},{"url":"https://bluebutton.cms.gov/assets/ig/StructureDefinition-bluebutton-inpatient-clm-pps-cptl-ime-amt-extension","valueMoney":{"code":"USD","system":"urn:iso:std:iso:4217","value":400}},{"url":"https://bluebutton.cms.gov/assets/ig/StructureDefinition-bluebutton-inpatient-clm-pps-cptl-outlier-amt-extension","valueMoney":{"code":"USD","system":"urn:iso:std:iso:4217","value":0}},{"url":"https://bluebutton.cms.gov/assets/ig/StructureDefinition-bluebutton-inpatient-clm-pps-old-cptl-hld-hrmls-amt-extension","valueMoney":{"code":"USD","system":"urn:iso:std:iso:4217","value":0}},{"url":"https://bluebutton.cms.gov/assets/ig/StructureDefinition-bluebutton-inpatient-nch-drg-outlier-aprvd-pmt-amt-extension","valueMoney":{"code":"USD","system":"urn:iso:std:iso:4217","value":0}},{"url":"https://bluebutton.cms.gov/assets/ig/StructureDefinition-bluebutton-inpatient-nch-bene-blood-ddctbl-lblty-am-extension","valueMoney":{"code":"USD","system":"urn:iso:std:iso:4217","value":0}},{"url":"https://bluebutton.cms.gov/assets/ig/StructureDefinition-bluebutton-inpatient-clm-mdcr-non-pmt-rsn-cd-extension","valueCoding":{"code":"N","display":"All other reasons for non-payment","system":"https://bluebutton.cms.gov/assets/ig/CodeSystem-clm-mdcr-non-pmt-rsn-cd"}},{"url":"https://bluebutton.cms.gov/assets/ig/StructureDefinition-bluebutton-inpatient-prpayamt-extension","valueMoney":{"code":"USD","system":"urn:iso:std:iso:4217","value":0}},{"url":"https://bluebutton.cms.gov/assets/ig/StructureDefinition-bluebutton-inpatient-fi-num-extension","valueIdentifier":{"system":"https://bluebutton.cms.gov/assets/ig/CodeSystem-fi-num","value":"002000"}}],"id":"d7526912-7ac2-4de8-8a3f-8cb539fde9d5","identifier":[{"system":"https://bluebutton.cms.gov/resources/variables/clm_id","value":"1a130967-668a-4b6d-8c19-59e25c9a7303"},{"system":"https://bluebutton.cms.gov/resources/identifier/claim-group","value":"99999999999"}],"insurance":{"coverage":{"reference":"#coverage"}},"item":[{"extension":[{"url":"https://bluebutton.cms.gov/assets/ig/StructureDefinition-bluebutton-inpatient-rev-cntr-ndc-qty-extension","valueQuantity":{"value":0}}],"locationCodeableConcept":{"coding":[{"code":"21","display":"Inpatient Hospital","system":"https://bluebutton.cms.gov/resources/variables/line_place_of_srvc_cd"}]},"sequence":1}],"meta":{"lastUpdated":"2019-04-09T11:38:44.642029+00:00","profile":["https://bluebutton.cms.gov/assets/ig/StructureDefinition-bluebutton-inpatient-claim"],"versionId":"MTU1NDgwOTkyNDY0MjAyOTAwMA"},"organization":{"identifier":{"value":"915f9f66-75d8-46c2-8da4-04b35046240b"}},"patient":{"reference":"Patient/00ba2d77-4512-45d0-b58c-82ee3161b00e"},"payment":{"amount":{"code":"USD","system":"urn:iso:std:iso:4217","value":0}},"provider":{"identifier":{"value":"ebd27f21-bb93-4416-bdf8-84490ae394cc"}},"resourceType":"ExplanationOfBenefit","status":"active","totalCost":{"code":"USD","system":"urn:iso:std:iso:4217","value":125},"type":{"coding":[{"code":"71","display":"Local carrier non-durable medical equipment, prosthetics, orthotics, and supplies (DMEPOS) claim","system":"https://bluebutton.cms.gov/resources/variables/nch_clm_type_cd"},{"code":"CARRIER","display":"EOB Type","system":"https://bluebutton.cms.gov/resources/codesystem/eob-type"},{"code":"professional","display":"Claim Type","system":"http://hl7.org/fhir/ex-claimtype"},{"code":"O","display":"Part B physician/supplier claim record (processed by local carriers; can include DMEPOS services)","system":"https://bluebutton.cms.gov/resources/variables/nch_near_line_rec_ident_cd"}]}}},{"resource":{"billablePeriod":{"end":"2016-09-02T08:39:53-04:00","extension":[{"url":"https://bluebutton.cms.gov/assets/ig/StructureDefinition-bluebutton-inpatient-claim-query-cd-extension","valueCoding":{"code":"3","display":"Final Bill","system":"https://bluebutton.cms.gov/assets/ig/ValueSet-claim-query-cd"}}],"start":"2015-09-02T08:39:53-04:00"},"careTeam":[{"provider":{"identifier":{"system":"http://hl7.org/fhir/sid/us-npi","value":"99999999"}},"role":{"coding":[{"code":"primary","display":"Primary Care Practitioner","system":"http://hl7.org/fhir/claimcareteamrole"}]},"sequence":1}],"contained":[{"id":"coverage","resourceType":"Coverage","type":{"text":"medicare"}}],"extension":[{"url":"https://bluebutton.cms.gov/assets/ig/StructureDefinition-bluebutton-inpatient-ime-op-clm-val-amt-extension","valueMoney":{"code":"USD","system":"urn:iso:std:iso:4217","value":400}},{"url":"https://bluebutton.cms.gov/assets/ig/StructureDefinition-bluebutton-inpatient-dsh-op-clm-val-amt-extension","valueMoney":{"code":"USD","system":"urn:iso:std:iso:4217","value":0}},{"url":"https://bluebutton.cms.gov/assets/ig/StructureDefinition-bluebutton-inpatient-clm-pass-thru-per-diem-amt-extension","valueMoney":{"code":"USD","system":"urn:iso:std:iso:4217","value":0}},{"url":"https://bluebutton.cms.gov/assets/ig/StructureDefinition-bluebutton-inpatient-nch-profnl-cmpnt-chrg-amt-extension","valueMoney":{"code":"USD","system":"urn:iso:std:iso:4217","value":0}},{"url":"https://bluebutton.cms.gov/assets/ig/StructureDefinition-bluebutton-inpatient-clm-tot-pps-cptl-amt-extension","valueMoney":{"code":"USD","system":"urn:iso:std:iso:4217","value":0}},{"url":"https://bluebutton.cms.gov/assets/ig/StructureDefinition-bluebutton-inpatient-nch-bene-ip-ddctbl-amt-extension","valueMoney":{"code":"USD","system":"urn:iso:std:iso:4217","value":0}},{"url":"https://bluebutton.cms.gov/assets/ig/StructureDefinition-bluebutton-inpatient-nch-bene-pta-coinsrnc-lblty-amt-extension","valueMoney":{"code":"USD","system":"urn:iso:std:iso:4217","value":0}},{"url":"https://bluebutton.cms.gov/assets/ig/StructureDefinition-bluebutton-inpatient-nch-ip-ncvrd-chrg-amt-extension","valueMoney":{"code":"USD","system":"urn:iso:std:iso:4217","value":0}},{"url":"https://bluebutton.cms.gov/assets/ig/StructureDefinition-bluebutton-inpatient-nch-ip-tot-ddctn-amt-extension","valueMoney":{"code":"USD","system":"urn:iso:std:iso:4217","value":0}},{"url":"https://bluebutton.cms.gov/assets/ig/StructureDefinition-bluebutton-inpatient-clm-pps-cptl-dsprprtnt-shr-amt-extension","valueMoney":{"code":"USD","system":"urn:iso:std:iso:4217","value":0}},{"url":"https://bluebutton.cms.gov/assets/ig/StructureDefinition-bluebutton-inpatient-clm-pps-cptl-excptn-amt-extension","valueMoney":{"code":"USD","system":"urn:iso:std:iso:4217","value":0}},{"url":"https://bluebutton.cms.gov/assets/ig/StructureDefinition-bluebutton-inpatient-clm-pps-cptl-fsp-amt-extension","valueMoney":{"code":"USD","system":"urn:iso:std:iso:4217","value":0}},{"url":"https://bluebutton.cms.gov/assets/ig/StructureDefinition-bluebutton-inpatient-clm-pps-cptl-ime-amt-extension","valueMoney":{"code":"USD","system":"urn:iso:std:iso:4217","value":400}},{"url":"https://bluebutton.cms.gov/assets/ig/StructureDefinition-bluebutton-inpatient-clm-pps-cptl-outlier-amt-extension","valueMoney":{"code":"USD","system":"urn:iso:std:iso:4217","value":0}},{"url":"https://bluebutton.cms.gov/assets/ig/StructureDefinition-bluebutton-inpatient-clm-pps-old-cptl-hld-hrmls-amt-extension","valueMoney":{"code":"USD","system":"urn:iso:std:iso:4217","value":0}},{"url":"https://bluebutton.cms.gov/assets/ig/StructureDefinition-bluebutton-inpatient-nch-drg-outlier-aprvd-pmt-amt-extension","valueMoney":{"code":"USD","system":"urn:iso:std:iso:4217","value":0}},{"url":"https://bluebutton.cms.gov/assets/ig/StructureDefinition-bluebutton-inpatient-nch-bene-blood-ddctbl-lblty-am-extension","valueMoney":{"code":"USD","system":"urn:iso:std:iso:4217","value":0}},{"url":"https://bluebutton.cms.gov/assets/ig/StructureDefinition-bluebutton-inpatient-clm-mdcr-non-pmt-rsn-cd-extension","valueCoding":{"code":"N","display":"All other reasons for non-payment","system":"https://bluebutton.cms.gov/assets/ig/CodeSystem-clm-mdcr-non-pmt-rsn-cd"}},{"url":"https://bluebutton.cms.gov/assets/ig/StructureDefinition-bluebutton-inpatient-prpayamt-extension","valueMoney":{"code":"USD","system":"urn:iso:std:iso:4217","value":0}},{"url":"https://bluebutton.cms.gov/assets/ig/StructureDefinition-bluebutton-inpatient-fi-num-extension","valueIdentifier":{"system":"https://bluebutton.cms.gov/assets/ig/CodeSystem-fi-num","value":"002000"}}],"id":"d9f11072-d45a-4e1c-92b2-9b7b997efdce","identifier":[{"system":"https://bluebutton.cms.gov/resources/variables/clm_id","value":"9f69341b-5da9-4202-a763-fc75b356a0dd"},{"system":"https://bluebutton.cms.gov/resources/identifier/claim-group","value":"99999999999"}],"insurance":{"coverage":{"reference":"#coverage"}},"item":[{"extension":[{"url":"https://bluebutton.cms.gov/assets/ig/StructureDefinition-bluebutton-inpatient-rev-cntr-ndc-qty-extension","valueQuantity":{"value":0}}],"locationCodeableConcept":{"coding":[{"code":"21","display":"Inpatient Hospital","system":"https://bluebutton.cms.gov/resources/variables/line_place_of_srvc_cd"}]},"sequence":1}],"meta":{"lastUpdated":"2019-04-09T11:38:42.631147+00:00","profile":["https://bluebutton.cms.gov/assets/ig/StructureDefinition-bluebutton-inpatient-claim"],"versionId":"MTU1NDgwOTkyMjYzMTE0NzAwMA"},"organization":{"identifier":{"value":"915f9f66-75d8-46c2-8da4-04b35046240b"}},"patient":{"reference":"Patient/00ba2d77-4512-45d0-b58c-82ee3161b00e"},"payment":{"amount":{"code":"USD","system":"urn:iso:std:iso:4217","value":0}},"provider":{"identifier":{"value":"ebd27f21-bb93-4416-bdf8-84490ae394cc"}},"resourceType":"ExplanationOfBenefit","status":"active","totalCost":{"code":"USD","system":"urn:iso:std:iso:4217","value":125},"type":{"coding":[{"code":"71","display":"Local carrier non-durable medical equipment, prosthetics, orthotics, and supplies (DMEPOS) claim","system":"https://bluebutton.cms.gov/resources/variables/nch_clm_type_cd"},{"code":"CARRIER","display":"EOB Type","system":"https://bluebutton.cms.gov/resources/codesystem/eob-type"},{"code":"professional","display":"Claim Type","system":"http://hl7.org/fhir/ex-claimtype"},{"code":"O","display":"Part B physician/supplier claim record (processed by local carriers; can include DMEPOS services)","system":"https://bluebutton.cms.gov/resources/variables/nch_near_line_rec_ident_cd"}]}}},{"resource":{"billablePeriod":{"end":"2016-11-29T07:39:53-05:00","start":"2015-11-29T07:39:53-05:00"},"careTeam":[{"provider":{"identifier":{"system":"http://hl7.org/fhir/sid/us-npi","value":"99999999"}},"role":{"coding":[{"code":"primary","display":"Primary Care Practitioner","system":"http://hl7.org/fhir/claimcareteamrole"}]},"sequence":1}],"claim":{"reference":"Claim/21ec4423-53d5-4c5c-aa58-4afbd8c68963"},"contained":[{"id":"1","intent":"order","recipient":[{"identifier":{"system":"http://hl7.org/fhir/sid/us-npi","value":"99999999"}}],"requester":{"agent":{"identifier":{"system":"http://hl7.org/fhir/sid/us-npi","value":"99999999"}}},"resourceType":"ReferralRequest","status":"completed","subject":{"reference":"Patient/00ba2d77-4512-45d0-b58c-82ee3161b00e"}},{"id":"coverage","resourceType":"Coverage","type":{"text":"medicare"}}],"created":"2015-11-29T07:39:53-05:00","id":"e74ffdd0-1e75-4154-96f6-8223d4cee5d2","identifier":[{"system":"https://bluebutton.cms.gov/resources/variables/clm_id","value":"21ec4423-53d5-4c5c-aa58-4afbd8c68963"},{"system":"https://bluebutton.cms.gov/resources/identifier/claim-group","value":"99999999999"}],"insurance":{"coverage":{"reference":"#coverage"}},"item":[{"category":{"coding":[{"code":"1","display":"Medical care","system":"https://bluebutton.cms.gov/resources/variables/line_cms_type_srvc_cd"}]},"encounter":[{"reference":"Encounter/2a7e0665-ae76-4a43-949d-9e68f5a92f8c"}],"locationCodeableConcept":{"coding":[{"code":"21","display":"Inpatient Hospital","system":"https://bluebutton.cms.gov/resources/variables/line_place_of_srvc_cd"}]},"sequence":1,"servicedPeriod":{"end":"2015-11-29T07:39:53-05:00","start":"2015-11-29T07:24:53-05:00"}}],"meta":{"lastUpdated":"2019-04-09T11:38:44.656932+00:00","versionId":"MTU1NDgwOTkyNDY1NjkzMjAwMA"},"organization":{"identifier":{"value":"915f9f66-75d8-46c2-8da4-04b35046240b"}},"patient":{"reference":"Patient/00ba2d77-4512-45d0-b58c-82ee3161b00e"},"payment":{"amount":{"code":"USD","system":"urn:iso:std:iso:4217","value":0}},"provider":{"identifier":{"value":"ebd27f21-bb93-4416-bdf8-84490ae394cc"}},"referral":{"reference":"#1"},"resourceType":"ExplanationOfBenefit","status":"active","totalCost":{"code":"USD","system":"urn:iso:std:iso:4217","value":125},"type":{"coding":[{"code":"71","display":"Local carrier non-durable medical equipment, prosthetics, orthotics, and supplies (DMEPOS) claim","system":"https://bluebutton.cms.gov/resources/variables/nch_clm_type_cd"},{"code":"CARRIER","display":"EOB Type","system":"https://bluebutton.cms.gov/resources/codesystem/eob-type"},{"code":"professional","display":"Claim Type","system":"http://hl7.org/fhir/ex-claimtype"},{"code":"O","display":"Part B physician/supplier claim record (processed by local carriers; can include DMEPOS services)","system":"https://bluebutton.cms.gov/resources/variables/nch_near_line_rec_ident_cd"}]}}},{"resource":{"billablePeriod":{"end":"2012-09-03T08:39:53-04:00","extension":[{"url":"https://bluebutton.cms.gov/assets/ig/StructureDefinition-bluebutton-inpatient-claim-query-cd-extension","valueCoding":{"code":"3","display":"Final Bill","system":"https://bluebutton.cms.gov/assets/ig/ValueSet-claim-query-cd"}}],"start":"2011-09-03T08:39:53-04:00"},"careTeam":[{"provider":{"identifier":{"system":"http://hl7.org/fhir/sid/us-npi","value":"99999999"}},"role":{"coding":[{"code":"primary","display":"Primary Care Practitioner","system":"http://hl7.org/fhir/claimcareteamrole"}]},"sequence":1}],"contained":[{"id":"coverage","resourceType":"Coverage","type":{"text":"medicare"}}],"extension":[{"url":"https://bluebutton.cms.gov/assets/ig/StructureDefinition-bluebutton-inpatient-ime-op-clm-val-amt-extension","valueMoney":{"code":"USD","system":"urn:iso:std:iso:4217","value":400}},{"url":"https://bluebutton.cms.gov/assets/ig/StructureDefinition-bluebutton-inpatient-dsh-op-clm-val-amt-extension","valueMoney":{"code":"USD","system":"urn:iso:std:iso:4217","value":0}},{"url":"https://bluebutton.cms.gov/assets/ig/StructureDefinition-bluebutton-inpatient-clm-pass-thru-per-diem-amt-extension","valueMoney":{"code":"USD","system":"urn:iso:std:iso:4217","value":0}},{"url":"https://bluebutton.cms.gov/assets/ig/StructureDefinition-bluebutton-inpatient-nch-profnl-cmpnt-chrg-amt-extension","valueMoney":{"code":"USD","system":"urn:iso:std:iso:4217","value":0}},{"url":"https://bluebutton.cms.gov/assets/ig/StructureDefinition-bluebutton-inpatient-clm-tot-pps-cptl-amt-extension","valueMoney":{"code":"USD","system":"urn:iso:std:iso:4217","value":0}},{"url":"https://bluebutton.cms.gov/assets/ig/StructureDefinition-bluebutton-inpatient-nch-bene-ip-ddctbl-amt-extension","valueMoney":{"code":"USD","system":"urn:iso:std:iso:4217","value":0}},{"url":"https://bluebutton.cms.gov/assets/ig/StructureDefinition-bluebutton-inpatient-nch-bene-pta-coinsrnc-lblty-amt-extension","valueMoney":{"code":"USD","system":"urn:iso:std:iso:4217","value":0}},{"url":"https://bluebutton.cms.gov/assets/ig/StructureDefinition-bluebutton-inpatient-nch-ip-ncvrd-chrg-amt-extension","valueMoney":{"code":"USD","system":"urn:iso:std:iso:4217","value":0}},{"url":"https://bluebutton.cms.gov/assets/ig/StructureDefinition-bluebutton-inpatient-nch-ip-tot-ddctn-amt-extension","valueMoney":{"code":"USD","system":"urn:iso:std:iso:4217","value":0}},{"url":"https://bluebutton.cms.gov/assets/ig/StructureDefinition-bluebutton-inpatient-clm-pps-cptl-dsprprtnt-shr-amt-extension","valueMoney":{"code":"USD","system":"urn:iso:std:iso:4217","value":0}},{"url":"https://bluebutton.cms.gov/assets/ig/StructureDefinition-bluebutton-inpatient-clm-pps-cptl-excptn-amt-extension","valueMoney":{"code":"USD","system":"urn:iso:std:iso:4217","value":0}},{"url":"https://bluebutton.cms.gov/assets/ig/StructureDefinition-bluebutton-inpatient-clm-pps-cptl-fsp-amt-extension","valueMoney":{"code":"USD","system":"urn:iso:std:iso:4217","value":0}},{"url":"https://bluebutton.cms.gov/assets/ig/StructureDefinition-bluebutton-inpatient-clm-pps-cptl-ime-amt-extension","valueMoney":{"code":"USD","system":"urn:iso:std:iso:4217","value":400}},{"url":"https://bluebutton.cms.gov/assets/ig/StructureDefinition-bluebutton-inpatient-clm-pps-cptl-outlier-amt-extension","valueMoney":{"code":"USD","system":"urn:iso:std:iso:4217","value":0}},{"url":"https://bluebutton.cms.gov/assets/ig/StructureDefinition-bluebutton-inpatient-clm-pps-old-cptl-hld-hrmls-amt-extension","valueMoney":{"code":"USD","system":"urn:iso:std:iso:4217","value":0}},{"url":"https://bluebutton.cms.gov/assets/ig/StructureDefinition-bluebutton-inpatient-nch-drg-outlier-aprvd-pmt-amt-extension","valueMoney":{"code":"USD","system":"urn:iso:std:iso:4217","value":0}},{"url":"https://bluebutton.cms.gov/assets/ig/StructureDefinition-bluebutton-inpatient-nch-bene-blood-ddctbl-lblty-am-extension","valueMoney":{"code":"USD","system":"urn:iso:std:iso:4217","value":0}},{"url":"https://bluebutton.cms.gov/assets/ig/StructureDefinition-bluebutton-inpatient-clm-mdcr-non-pmt-rsn-cd-extension","valueCoding":{"code":"N","display":"All other reasons for non-payment","system":"https://bluebutton.cms.gov/assets/ig/CodeSystem-clm-mdcr-non-pmt-rsn-cd"}},{"url":"https://bluebutton.cms.gov/assets/ig/StructureDefinition-bluebutton-inpatient-prpayamt-extension","valueMoney":{"code":"USD","system":"urn:iso:std:iso:4217","value":0}},{"url":"https://bluebutton.cms.gov/assets/ig/StructureDefinition-bluebutton-inpatient-fi-num-extension","valueIdentifier":{"system":"https://bluebutton.cms.gov/assets/ig/CodeSystem-fi-num","value":"002000"}}],"id":"eb02638f-d1db-4522-aab3-1a0775e7d4d8","identifier":[{"system":"https://bluebutton.cms.gov/resources/variables/clm_id","value":"a1f145a0-d80f-4355-ab5d-015b3d5bb0e0"},{"system":"https://bluebutton.cms.gov/resources/identifier/claim-group","value":"99999999999"}],"insurance":{"coverage":{"reference":"#coverage"}},"item":[{"extension":[{"url":"https://bluebutton.cms.gov/assets/ig/StructureDefinition-bluebutton-inpatient-rev-cntr-ndc-qty-extension","valueQuantity":{"value":0}}],"locationCodeableConcept":{"coding":[{"code":"21","display":"Inpatient Hospital","system":"https://bluebutton.cms.gov/resources/variables/line_place_of_srvc_cd"}]},"sequence":1}],"meta":{"lastUpdated":"2019-04-09T11:38:36.414799+00:00","profile":["https://bluebutton.cms.gov/assets/ig/StructureDefinition-bluebutton-inpatient-claim"],"versionId":"MTU1NDgwOTkxNjQxNDc5OTAwMA"},"organization":{"identifier":{"value":"915f9f66-75d8-46c2-8da4-04b35046240b"}},"patient":{"reference":"Patient/00ba2d77-4512-45d0-b58c-82ee3161b00e"},"payment":{"amount":{"code":"USD","system":"urn:iso:std:iso:4217","value":0}},"provider":{"identifier":{"value":"ebd27f21-bb93-4416-bdf8-84490ae394cc"}},"resourceType":"ExplanationOfBenefit","status":"active","totalCost":{"code":"USD","system":"urn:iso:std:iso:4217","value":125},"type":{"coding":[{"code":"71","display":"Local carrier non-durable medical equipment, prosthetics, orthotics, and supplies (DMEPOS) claim","system":"https://bluebutton.cms.gov/resources/variables/nch_clm_type_cd"},{"code":"CARRIER","display":"EOB Type","system":"https://bluebutton.cms.gov/resources/codesystem/eob-type"},{"code":"professional","display":"Claim Type","system":"http://hl7.org/fhir/ex-claimtype"},{"code":"O","display":"Part B physician/supplier claim record (processed by local carriers; can include DMEPOS services)","system":"https://bluebutton.cms.gov/resources/variables/nch_near_line_rec_ident_cd"}]}}},{"resource":{"billablePeriod":{"end":"2014-10-31T08:39:53-04:00","extension":[{"url":"https://bluebutton.cms.gov/assets/ig/StructureDefinition-bluebutton-inpatient-claim-query-cd-extension","valueCoding":{"code":"3","display":"Final Bill","system":"https://bluebutton.cms.gov/assets/ig/ValueSet-claim-query-cd"}}],"start":"2013-10-31T08:39:53-04:00"},"careTeam":[{"provider":{"identifier":{"system":"http://hl7.org/fhir/sid/us-npi","value":"99999999"}},"role":{"coding":[{"code":"primary","display":"Primary Care Practitioner","system":"http://hl7.org/fhir/claimcareteamrole"}]},"sequence":1}],"contained":[{"id":"coverage","resourceType":"Coverage","type":{"text":"medicare"}}],"extension":[{"url":"https://bluebutton.cms.gov/assets/ig/StructureDefinition-bluebutton-inpatient-ime-op-clm-val-amt-extension","valueMoney":{"code":"USD","system":"urn:iso:std:iso:4217","value":400}},{"url":"https://bluebutton.cms.gov/assets/ig/StructureDefinition-bluebutton-inpatient-dsh-op-clm-val-amt-extension","valueMoney":{"code":"USD","system":"urn:iso:std:iso:4217","value":0}},{"url":"https://bluebutton.cms.gov/assets/ig/StructureDefinition-bluebutton-inpatient-clm-pass-thru-per-diem-amt-extension","valueMoney":{"code":"USD","system":"urn:iso:std:iso:4217","value":0}},{"url":"https://bluebutton.cms.gov/assets/ig/StructureDefinition-bluebutton-inpatient-nch-profnl-cmpnt-chrg-amt-extension","valueMoney":{"code":"USD","system":"urn:iso:std:iso:4217","value":0}},{"url":"https://bluebutton.cms.gov/assets/ig/StructureDefinition-bluebutton-inpatient-clm-tot-pps-cptl-amt-extension","valueMoney":{"code":"USD","system":"urn:iso:std:iso:4217","value":0}},{"url":"https://bluebutton.cms.gov/assets/ig/StructureDefinition-bluebutton-inpatient-nch-bene-ip-ddctbl-amt-extension","valueMoney":{"code":"USD","system":"urn:iso:std:iso:4217","value":0}},{"url":"https://bluebutton.cms.gov/assets/ig/StructureDefinition-bluebutton-inpatient-nch-bene-pta-coinsrnc-lblty-amt-extension","valueMoney":{"code":"USD","system":"urn:iso:std:iso:4217","value":0}},{"url":"https://bluebutton.cms.gov/assets/ig/StructureDefinition-bluebutton-inpatient-nch-ip-ncvrd-chrg-amt-extension","valueMoney":{"code":"USD","system":"urn:iso:std:iso:4217","value":0}},{"url":"https://bluebutton.cms.gov/assets/ig/StructureDefinition-bluebutton-inpatient-nch-ip-tot-ddctn-amt-extension","valueMoney":{"code":"USD","system":"urn:iso:std:iso:4217","value":0}},{"url":"https://bluebutton.cms.gov/assets/ig/StructureDefinition-bluebutton-inpatient-clm-pps-cptl-dsprprtnt-shr-amt-extension","valueMoney":{"code":"USD","system":"urn:iso:std:iso:4217","value":0}},{"url":"https://bluebutton.cms.gov/assets/ig/StructureDefinition-bluebutton-inpatient-clm-pps-cptl-excptn-amt-extension","valueMoney":{"code":"USD","system":"urn:iso:std:iso:4217","value":0}},{"url":"https://bluebutton.cms.gov/assets/ig/StructureDefinition-bluebutton-inpatient-clm-pps-cptl-fsp-amt-extension","valueMoney":{"code":"USD","system":"urn:iso:std:iso:4217","value":0}},{"url":"https://bluebutton.cms.gov/assets/ig/StructureDefinition-bluebutton-inpatient-clm-pps-cptl-ime-amt-extension","valueMoney":{"code":"USD","system":"urn:iso:std:iso:4217","value":400}},{"url":"https://bluebutton.cms.gov/assets/ig/StructureDefinition-bluebutton-inpatient-clm-pps-cptl-outlier-amt-extension","valueMoney":{"code":"USD","system":"urn:iso:std:iso:4217","value":0}},{"url":"https://bluebutton.cms.gov/assets/ig/StructureDefinition-bluebutton-inpatient-clm-pps-old-cptl-hld-hrmls-amt-extension","valueMoney":{"code":"USD","system":"urn:iso:std:iso:4217","value":0}},{"url":"https://bluebutton.cms.gov/assets/ig/StructureDefinition-bluebutton-inpatient-nch-drg-outlier-aprvd-pmt-amt-extension","valueMoney":{"code":"USD","system":"urn:iso:std:iso:4217","value":0}},{"url":"https://bluebutton.cms.gov/assets/ig/StructureDefinition-bluebutton-inpatient-nch-bene-blood-ddctbl-lblty-am-extension","valueMoney":{"code":"USD","system":"urn:iso:std:iso:4217","value":0}},{"url":"https://bluebutton.cms.gov/assets/ig/StructureDefinition-bluebutton-inpatient-clm-mdcr-non-pmt-rsn-cd-extension","valueCoding":{"code":"N","display":"All other reasons for non-payment","system":"https://bluebutton.cms.gov/assets/ig/CodeSystem-clm-mdcr-non-pmt-rsn-cd"}},{"url":"https://bluebutton.cms.gov/assets/ig/StructureDefinition-bluebutton-inpatient-prpayamt-extension","valueMoney":{"code":"USD","system":"urn:iso:std:iso:4217","value":0}},{"url":"https://bluebutton.cms.gov/assets/ig/StructureDefinition-bluebutton-inpatient-fi-num-extension","valueIdentifier":{"system":"https://bluebutton.cms.gov/assets/ig/CodeSystem-fi-num","value":"002000"}}],"id":"eb433cf2-e2d2-4627-bbe6-71a690a18cd1","identifier":[{"system":"https://bluebutton.cms.gov/resources/variables/clm_id","value":"2b4237a1-f89b-4144-a05c-e2cf9fa98b8f"},{"system":"https://bluebutton.cms.gov/resources/identifier/claim-group","value":"99999999999"}],"insurance":{"coverage":{"reference":"#coverage"}},"item":[{"extension":[{"url":"https://bluebutton.cms.gov/assets/ig/StructureDefinition-bluebutton-inpatient-rev-cntr-ndc-qty-extension","valueQuantity":{"value":0}}],"locationCodeableConcept":{"coding":[{"code":"21","display":"Inpatient Hospital","system":"https://bluebutton.cms.gov/resources/variables/line_place_of_srvc_cd"}]},"sequence":1}],"meta":{"lastUpdated":"2019-04-09T11:38:39.483963+00:00","profile":["https://bluebutton.cms.gov/assets/ig/StructureDefinition-bluebutton-inpatient-claim"],"versionId":"MTU1NDgwOTkxOTQ4Mzk2MzAwMA"},"organization":{"identifier":{"value":"915f9f66-75d8-46c2-8da4-04b35046240b"}},"patient":{"reference":"Patient/00ba2d77-4512-45d0-b58c-82ee3161b00e"},"payment":{"amount":{"code":"USD","system":"urn:iso:std:iso:4217","value":0}},"provider":{"identifier":{"value":"ebd27f21-bb93-4416-bdf8-84490ae394cc"}},"resourceType":"ExplanationOfBenefit","status":"active","totalCost":{"code":"USD","system":"urn:iso:std:iso:4217","value":125},"type":{"coding":[{"code":"71","display":"Local carrier non-durable medical equipment, prosthetics, orthotics, and supplies (DMEPOS) claim","system":"https://bluebutton.cms.gov/resources/variables/nch_clm_type_cd"},{"code":"CARRIER","display":"EOB Type","system":"https://bluebutton.cms.gov/resources/codesystem/eob-type"},{"code":"professional","display":"Claim Type","system":"http://hl7.org/fhir/ex-claimtype"},{"code":"O","display":"Part B physician/supplier claim record (processed by local carriers; can include DMEPOS services)","system":"https://bluebutton.cms.gov/resources/variables/nch_near_line_rec_ident_cd"}]}}},{"resource":{"billablePeriod":{"end":"2004-09-05T08:39:53-04:00","extension":[{"url":"https://bluebutton.cms.gov/assets/ig/StructureDefinition-bluebutton-inpatient-claim-query-cd-extension","valueCoding":{"code":"3","display":"Final Bill","system":"https://bluebutton.cms.gov/assets/ig/ValueSet-claim-query-cd"}}],"start":"2003-09-05T08:39:53-04:00"},"careTeam":[{"provider":{"identifier":{"system":"http://hl7.org/fhir/sid/us-npi","value":"99999999"}},"role":{"coding":[{"code":"primary","display":"Primary Care Practitioner","system":"http://hl7.org/fhir/claimcareteamrole"}]},"sequence":1}],"contained":[{"id":"coverage","resourceType":"Coverage","type":{"text":"medicare"}}],"extension":[{"url":"https://bluebutton.cms.gov/assets/ig/StructureDefinition-bluebutton-inpatient-ime-op-clm-val-amt-extension","valueMoney":{"code":"USD","system":"urn:iso:std:iso:4217","value":400}},{"url":"https://bluebutton.cms.gov/assets/ig/StructureDefinition-bluebutton-inpatient-dsh-op-clm-val-amt-extension","valueMoney":{"code":"USD","system":"urn:iso:std:iso:4217","value":0}},{"url":"https://bluebutton.cms.gov/assets/ig/StructureDefinition-bluebutton-inpatient-clm-pass-thru-per-diem-amt-extension","valueMoney":{"code":"USD","system":"urn:iso:std:iso:4217","value":0}},{"url":"https://bluebutton.cms.gov/assets/ig/StructureDefinition-bluebutton-inpatient-nch-profnl-cmpnt-chrg-amt-extension","valueMoney":{"code":"USD","system":"urn:iso:std:iso:4217","value":0}},{"url":"https://bluebutton.cms.gov/assets/ig/StructureDefinition-bluebutton-inpatient-clm-tot-pps-cptl-amt-extension","valueMoney":{"code":"USD","system":"urn:iso:std:iso:4217","value":0}},{"url":"https://bluebutton.cms.gov/assets/ig/StructureDefinition-bluebutton-inpatient-nch-bene-ip-ddctbl-amt-extension","valueMoney":{"code":"USD","system":"urn:iso:std:iso:4217","value":0}},{"url":"https://bluebutton.cms.gov/assets/ig/StructureDefinition-bluebutton-inpatient-nch-bene-pta-coinsrnc-lblty-amt-extension","valueMoney":{"code":"USD","system":"urn:iso:std:iso:4217","value":0}},{"url":"https://bluebutton.cms.gov/assets/ig/StructureDefinition-bluebutton-inpatient-nch-ip-ncvrd-chrg-amt-extension","valueMoney":{"code":"USD","system":"urn:iso:std:iso:4217","value":0}},{"url":"https://bluebutton.cms.gov/assets/ig/StructureDefinition-bluebutton-inpatient-nch-ip-tot-ddctn-amt-extension","valueMoney":{"code":"USD","system":"urn:iso:std:iso:4217","value":0}},{"url":"https://bluebutton.cms.gov/assets/ig/StructureDefinition-bluebutton-inpatient-clm-pps-cptl-dsprprtnt-shr-amt-extension","valueMoney":{"code":"USD","system":"urn:iso:std:iso:4217","value":0}},{"url":"https://bluebutton.cms.gov/assets/ig/StructureDefinition-bluebutton-inpatient-clm-pps-cptl-excptn-amt-extension","valueMoney":{"code":"USD","system":"urn:iso:std:iso:4217","value":0}},{"url":"https://bluebutton.cms.gov/assets/ig/StructureDefinition-bluebutton-inpatient-clm-pps-cptl-fsp-amt-extension","valueMoney":{"code":"USD","system":"urn:iso:std:iso:4217","value":0}},{"url":"https://bluebutton.cms.gov/assets/ig/StructureDefinition-bluebutton-inpatient-clm-pps-cptl-ime-amt-extension","valueMoney":{"code":"USD","system":"urn:iso:std:iso:4217","value":400}},{"url":"https://bluebutton.cms.gov/assets/ig/StructureDefinition-bluebutton-inpatient-clm-pps-cptl-outlier-amt-extension","valueMoney":{"code":"USD","system":"urn:iso:std:iso:4217","value":0}},{"url":"https://bluebutton.cms.gov/assets/ig/StructureDefinition-bluebutton-inpatient-clm-pps-old-cptl-hld-hrmls-amt-extension","valueMoney":{"code":"USD","system":"urn:iso:std:iso:4217","value":0}},{"url":"https://bluebutton.cms.gov/assets/ig/StructureDefinition-bluebutton-inpatient-nch-drg-outlier-aprvd-pmt-amt-extension","valueMoney":{"code":"USD","system":"urn:iso:std:iso:4217","value":0}},{"url":"https://bluebutton.cms.gov/assets/ig/StructureDefinition-bluebutton-inpatient-nch-bene-blood-ddctbl-lblty-am-extension","valueMoney":{"code":"USD","system":"urn:iso:std:iso:4217","value":0}},{"url":"https://bluebutton.cms.gov/assets/ig/StructureDefinition-bluebutton-inpatient-clm-mdcr-non-pmt-rsn-cd-extension","valueCoding":{"code":"N","display":"All other reasons for non-payment","system":"https://bluebutton.cms.gov/assets/ig/CodeSystem-clm-mdcr-non-pmt-rsn-cd"}},{"url":"https://bluebutton.cms.gov/assets/ig/StructureDefinition-bluebutton-inpatient-prpayamt-extension","valueMoney":{"code":"USD","system":"urn:iso:std:iso:4217","value":0}},{"url":"https://bluebutton.cms.gov/assets/ig/StructureDefinition-bluebutton-inpatient-fi-num-extension","valueIdentifier":{"system":"https://bluebutton.cms.gov/assets/ig/CodeSystem-fi-num","value":"002000"}}],"id":"ff1824c1-8de5-4650-8f48-a35445057f56","identifier":[{"system":"https://bluebutton.cms.gov/resources/variables/clm_id","value":"06f5c0ce-193f-4091-8877-2d2bbbc518c0"},{"system":"https://bluebutton.cms.gov/resources/identifier/claim-group","value":"99999999999"}],"insurance":{"coverage":{"reference":"#coverage"}},"item":[{"extension":[{"url":"https://bluebutton.cms.gov/assets/ig/StructureDefinition-bluebutton-inpatient-rev-cntr-ndc-qty-extension","valueQuantity":{"value":0}}],"locationCodeableConcept":{"coding":[{"code":"21","display":"Inpatient Hospital","system":"https://bluebutton.cms.gov/resources/variables/line_place_of_srvc_cd"}]},"sequence":1}],"meta":{"lastUpdated":"2019-04-09T11:38:32.327303+00:00","profile":["https://bluebutton.cms.gov/assets/ig/StructureDefinition-bluebutton-inpatient-claim"],"versionId":"MTU1NDgwOTkxMjMyNzMwMzAwMA"},"organization":{"identifier":{"value":"915f9f66-75d8-46c2-8da4-04b35046240b"}},"patient":{"reference":"Patient/00ba2d77-4512-45d0-b58c-82ee3161b00e"},"payment":{"amount":{"code":"USD","system":"urn:iso:std:iso:4217","value":0}},"provider":{"identifier":{"value":"ebd27f21-bb93-4416-bdf8-84490ae394cc"}},"resourceType":"ExplanationOfBenefit","status":"active","totalCost":{"code":"USD","system":"urn:iso:std:iso:4217","value":125},"type":{"coding":[{"code":"71","display":"Local carrier non-durable medical equipment, prosthetics, orthotics, and supplies (DMEPOS) claim","system":"https://bluebutton.cms.gov/resources/variables/nch_clm_type_cd"},{"code":"CARRIER","display":"EOB Type","system":"https://bluebutton.cms.gov/resources/codesystem/eob-type"},{"code":"professional","display":"Claim Type","system":"http://hl7.org/fhir/ex-claimtype"},{"code":"O","display":"Part B physician/supplier claim record (processed by local carriers; can include DMEPOS services)","system":"https://bluebutton.cms.gov/resources/variables/nch_near_line_rec_ident_cd"}]}}},{"resource":{"billablePeriod":{"end":"2017-12-04T07:54:53-05:00","start":"2016-12-04T07:54:53-05:00"},"careTeam":[{"provider":{"identifier":{"system":"http://hl7.org/fhir/sid/us-npi","value":"99999999"}},"role":{"coding":[{"code":"primary","display":"Primary Care Practitioner","system":"http://hl7.org/fhir/claimcareteamrole"}]},"sequence":1}],"claim":{"reference":"Claim/e8b04c4d-7e84-402c-9c8a-120946c8d3ef"},"contained":[{"id":"1","intent":"order","recipient":[{"identifier":{"system":"http://hl7.org/fhir/sid/us-npi","value":"99999999"}}],"requester":{"agent":{"identifier":{"system":"http://hl7.org/fhir/sid/us-npi","value":"99999999"}}},"resourceType":"ReferralRequest","status":"completed","subject":{"reference":"Patient/00ba2d77-4512-45d0-b58c-82ee3161b00e"}},{"id":"coverage","resourceType":"Coverage","type":{"text":"medicare"}}],"created":"2016-12-04T07:54:53-05:00","id":"ffeca297-e5ed-463f-a71a-357d961d4869","identifier":[{"system":"https://bluebutton.cms.gov/resources/variables/clm_id","value":"e8b04c4d-7e84-402c-9c8a-120946c8d3ef"},{"system":"https://bluebutton.cms.gov/resources/identifier/claim-group","value":"99999999999"}],"insurance":{"coverage":{"reference":"#coverage"}},"item":[{"category":{"coding":[{"code":"1","display":"Medical care","system":"https://bluebutton.cms.gov/resources/variables/line_cms_type_srvc_cd"}]},"encounter":[{"reference":"Encounter/83ef2b65-0b42-4872-a505-6b2f9e463831"}],"locationCodeableConcept":{"coding":[{"code":"21","display":"Inpatient Hospital","system":"https://bluebutton.cms.gov/resources/variables/line_place_of_srvc_cd"}]},"sequence":1,"servicedPeriod":{"end":"2016-12-04T07:54:53-05:00","start":"2016-12-04T07:24:53-05:00"}},{"adjudication":[{"amount":{"code":"USD","system":"urn:iso:std:iso:4217","value":28.104000000000003},"category":{"coding":[{"code":"https://bluebutton.cms.gov/resources/variables/line_coinsrnc_amt","display":"Line Beneficiary Coinsurance Amount","system":"https://bluebutton.cms.gov/resources/codesystem/adjudication"}]}},{"amount":{"code":"USD","system":"urn:iso:std:iso:4217","value":112.41600000000001},"category":{"coding":[{"code":"https://bluebutton.cms.gov/resources/variables/line_prvdr_pmt_amt","display":"Line Provider Payment Amount","system":"https://bluebutton.cms.gov/resources/codesystem/adjudication"}]}},{"amount":{"code":"USD","system":"urn:iso:std:iso:4217","value":140.52},"category":{"coding":[{"code":"https://bluebutton.cms.gov/resources/variables/line_sbmtd_chrg_amt","display":"Line Submitted Charge Amount","system":"https://bluebutton.cms.gov/resources/codesystem/adjudication"}]}},{"amount":{"code":"USD","system":"urn:iso:std:iso:4217","value":140.52},"category":{"coding":[{"code":"https://bluebutton.cms.gov/resources/variables/line_alowd_chrg_amt","display":"Line Allowed Charge Amount","system":"https://bluebutton.cms.gov/resources/codesystem/adjudication"}]}},{"amount":{"code":"USD","system":"urn:iso:std:iso:4217","value":0},"category":{"coding":[{"code":"https://bluebutton.cms.gov/resources/variables/line_bene_ptb_ddctbl_amt","display":"Line Beneficiary Part B Deductible Amount","system":"https://bluebutton.cms.gov/resources/codesystem/adjudication"}]}},{"category":{"coding":[{"code":"https://bluebutton.cms.gov/resources/variables/line_prcsg_ind_cd","display":"Line Processing Indicator Code","system":"https://bluebutton.cms.gov/resources/codesystem/adjudication"}]},"reason":{"coding":[{"code":"A","display":"Allowed","system":"https://bluebutton.cms.gov/resources/variables/line_prcsg_ind_cd"}]}}],"category":{"coding":[{"code":"1","display":"Medical care","system":"https://bluebutton.cms.gov/resources/variables/line_cms_type_srvc_cd"}]},"informationLinkId":[1],"locationCodeableConcept":{"coding":[{"code":"21","display":"Inpatient Hospital","system":"https://bluebutton.cms.gov/resources/variables/line_place_of_srvc_cd"}]},"net":{"code":"USD","system":"urn:iso:std:iso:4217","value":140.52},"sequence":2,"servicedPeriod":{"end":"2016-12-04T07:54:53-05:00","start":"2016-12-04T07:24:53-05:00"}},{"adjudication":[{"amount":{"code":"USD","system":"urn:iso:std:iso:4217","value":28.104000000000003},"category":{"coding":[{"code":"https://bluebutton.cms.gov/resources/variables/line_coinsrnc_amt","display":"Line Beneficiary Coinsurance Amount","system":"https://bluebutton.cms.gov/resources/codesystem/adjudication"}]}},{"amount":{"code":"USD","system":"urn:iso:std:iso:4217","value":112.41600000000001},"category":{"coding":[{"code":"https://bluebutton.cms.gov/resources/variables/line_prvdr_pmt_amt","display":"Line Provider Payment Amount","system":"https://bluebutton.cms.gov/resources/codesystem/adjudication"}]}},{"amount":{"code":"USD","system":"urn:iso:std:iso:4217","value":140.52},"category":{"coding":[{"code":"https://bluebutton.cms.gov/resources/variables/line_sbmtd_chrg_amt","display":"Line Submitted Charge Amount","system":"https://bluebutton.cms.gov/resources/codesystem/adjudication"}]}},{"amount":{"code":"USD","system":"urn:iso:std:iso:4217","value":140.52},"category":{"coding":[{"code":"https://bluebutton.cms.gov/resources/variables/line_alowd_chrg_amt","display":"Line Allowed Charge Amount","system":"https://bluebutton.cms.gov/resources/codesystem/adjudication"}]}},{"amount":{"code":"USD","system":"urn:iso:std:iso:4217","value":0},"category":{"coding":[{"code":"https://bluebutton.cms.gov/resources/variables/line_bene_ptb_ddctbl_amt","display":"Line Beneficiary Part B Deductible Amount","system":"https://bluebutton.cms.gov/resources/codesystem/adjudication"}]}},{"category":{"coding":[{"code":"https://bluebutton.cms.gov/resources/variables/line_prcsg_ind_cd","display":"Line Processing Indicator Code","system":"https://bluebutton.cms.gov/resources/codesystem/adjudication"}]},"reason":{"coding":[{"code":"A","display":"Allowed","system":"https://bluebutton.cms.gov/resources/variables/line_prcsg_ind_cd"}]}}],"category":{"coding":[{"code":"1","display":"Medical care","system":"https://bluebutton.cms.gov/resources/variables/line_cms_type_srvc_cd"}]},"informationLinkId":[2],"locationCodeableConcept":{"coding":[{"code":"21","display":"Inpatient Hospital","system":"https://bluebutton.cms.gov/resources/variables/line_place_of_srvc_cd"}]},"net":{"code":"USD","system":"urn:iso:std:iso:4217","value":140.52},"sequence":3,"servicedPeriod":{"end":"2016-12-04T07:54:53-05:00","start":"2016-12-04T07:24:53-05:00"}},{"adjudication":[{"amount":{"code":"USD","system":"urn:iso:std:iso:4217","value":88.08200000000001},"category":{"coding":[{"code":"https://bluebutton.cms.gov/resources/variables/line_coinsrnc_amt","display":"Line Beneficiary Coinsurance Amount","system":"https://bluebutton.cms.gov/resources/codesystem/adjudication"}]}},{"amount":{"code":"USD","system":"urn:iso:std:iso:4217","value":352.32800000000003},"category":{"coding":[{"code":"https://bluebutton.cms.gov/resources/variables/line_prvdr_pmt_amt","display":"Line Provider Payment Amount","system":"https://bluebutton.cms.gov/resources/codesystem/adjudication"}]}},{"amount":{"code":"USD","system":"urn:iso:std:iso:4217","value":440.41},"category":{"coding":[{"code":"https://bluebutton.cms.gov/resources/variables/line_sbmtd_chrg_amt","display":"Line Submitted Charge Amount","system":"https://bluebutton.cms.gov/resources/codesystem/adjudication"}]}},{"amount":{"code":"USD","system":"urn:iso:std:iso:4217","value":440.41},"category":{"coding":[{"code":"https://bluebutton.cms.gov/resources/variables/line_alowd_chrg_amt","display":"Line Allowed Charge Amount","system":"https://bluebutton.cms.gov/resources/codesystem/adjudication"}]}},{"amount":{"code":"USD","system":"urn:iso:std:iso:4217","value":0},"category":{"coding":[{"code":"https://bluebutton.cms.gov/resources/variables/line_bene_ptb_ddctbl_amt","display":"Line Beneficiary Part B Deductible Amount","system":"https://bluebutton.cms.gov/resources/codesystem/adjudication"}]}},{"category":{"coding":[{"code":"https://bluebutton.cms.gov/resources/variables/line_prcsg_ind_cd","display":"Line Processing Indicator Code","system":"https://bluebutton.cms.gov/resources/codesystem/adjudication"}]},"reason":{"coding":[{"code":"A","display":"Allowed","system":"https://bluebutton.cms.gov/resources/variables/line_prcsg_ind_cd"}]}}],"category":{"coding":[{"code":"1","display":"Medical care","system":"https://bluebutton.cms.gov/resources/variables/line_cms_type_srvc_cd"}]},"locationCodeableConcept":{"coding":[{"code":"21","display":"Inpatient Hospital","system":"https://bluebutton.cms.gov/resources/variables/line_place_of_srvc_cd"}]},"net":{"code":"USD","system":"urn:iso:std:iso:4217","value":440.41},"sequence":4,"service":{"coding":[{"code":"428191000124101","system":"http://snomed.info/sct","version":"v1"}]},"servicedPeriod":{"end":"2016-12-04T07:54:53-05:00","start":"2016-12-04T07:24:53-05:00"}}],"meta":{"lastUpdated":"2019-04-09T11:38:45.674779+00:00","versionId":"MTU1NDgwOTkyNTY3NDc3OTAwMA"},"organization":{"identifier":{"value":"915f9f66-75d8-46c2-8da4-04b35046240b"}},"patient":{"reference":"Patient/00ba2d77-4512-45d0-b58c-82ee3161b00e"},"payment":{"amount":{"code":"USD","system":"urn:iso:std:iso:4217","value":577.1600000000001}},"provider":{"identifier":{"value":"ebd27f21-bb93-4416-bdf8-84490ae394cc"}},"referral":{"reference":"#1"},"resourceType":"ExplanationOfBenefit","status":"active","totalCost":{"code":"USD","system":"urn:iso:std:iso:4217","value":846.45},"type":{"coding":[{"code":"71","display":"Local carrier non-durable medical equipment, prosthetics, orthotics, and supplies (DMEPOS) claim","system":"https://bluebutton.cms.gov/resources/variables/nch_clm_type_cd"},{"code":"CARRIER","display":"EOB Type","system":"https://bluebutton.cms.gov/resources/codesystem/eob-type"},{"code":"professional","display":"Claim Type","system":"http://hl7.org/fhir/ex-claimtype"},{"code":"O","display":"Part B physician/supplier claim record (processed by local carriers; can include DMEPOS services)","system":"https://bluebutton.cms.gov/resources/variables/nch_near_line_rec_ident_cd"}]}}},{"resource":{"context":{"reference":"Encounter/49733f21-b3ab-4560-abc5-ec3ae9e2c39c"},"id":"cb627591-a3ec-467e-8fda-a29b68a4066f","meta":{"lastUpdated":"2019-04-09T11:38:38.474844+00:00","versionId":"MTU1NDgwOTkxODQ3NDg0NDAwMA"},"numberOfInstances":1,"numberOfSeries":1,"patient":{"reference":"Patient/00ba2d77-4512-45d0-b58c-82ee3161b00e"},"resourceType":"ImagingStudy","series":[{"availability":"UNAVAILABLE","bodySite":{"code":"51299004","display":"Clavicle","system":"http://snomed.info/sct"},"instance":[{"number":1,"sopClass":"urn:oid:1.2.840.10008.5.1.4.1.1.1.1","title":"Image of clavicle","uid":"urn:oid:1.2.840.99999999.1.1.80873272.1546964741628"}],"modality":{"code":"DX","display":"Digital Radiography","system":"http://dicom.nema.org/resources/ontology/DCM"},"number":1,"numberOfInstances":1,"started":"2013-08-02T08:24:53-04:00","uid":"urn:oid:1.2.840.99999999.1.98287266.1546964741628"}],"started":"2013-08-02T08:24:53-04:00","uid":"urn:oid:1.2.840.99999999.89280024.1546964741628"}},{"resource":{"date":"2018-12-16T07:24:53-05:00","encounter":{"reference":"Encounter/d040d467-55a8-4786-93e9-52cff99788a9"},"id":"1b903539-fc2f-4b05-82bc-0460a2673bee","meta":{"lastUpdated":"2019-04-09T11:38:48.812583+00:00","versionId":"MTU1NDgwOTkyODgxMjU4MzAwMA"},"notGiven":false,"patient":{"reference":"Patient/00ba2d77-4512-45d0-b58c-82ee3161b00e"},"primarySource":true,"resourceType":"Immunization","status":"completed","vaccineCode":{"coding":[{"code":"140","display":"Influenza, seasonal, injectable, preservative free","system":"http://hl7.org/fhir/sid/cvx"}],"text":"Influenza, seasonal, injectable, preservative free"}}},{"resource":{"date":"2017-12-10T07:24:53-05:00","encounter":{"reference":"Encounter/e9be45b5-7c71-4054-ad2e-5ff3cd35550d"},"id":"2502e0b3-4385-43df-96ff-3dba259341a9","meta":{"lastUpdated":"2019-04-09T11:38:46.690305+00:00","versionId":"MTU1NDgwOTkyNjY5MDMwNTAwMA"},"notGiven":false,"patient":{"reference":"Patient/00ba2d77-4512-45d0-b58c-82ee3161b00e"},"primarySource":true,"resourceType":"Immunization","status":"completed","vaccineCode":{"coding":[{"code":"140","display":"Influenza, seasonal, injectable, preservative free","system":"http://hl7.org/fhir/sid/cvx"}],"text":"Influenza, seasonal, injectable, preservative free"}}},{"resource":{"date":"2013-11-10T07:24:53-05:00","encounter":{"reference":"Encounter/78c0926a-2466-4c84-aee0-4e649adb2479"},"id":"3273a193-2506-47d1-b76a-9ab2892e6888","meta":{"lastUpdated":"2019-04-09T11:38:40.536883+00:00","versionId":"MTU1NDgwOTkyMDUzNjg4MzAwMA"},"notGiven":false,"patient":{"reference":"Patient/00ba2d77-4512-45d0-b58c-82ee3161b00e"},"primarySource":true,"resourceType":"Immunization","status":"completed","vaccineCode":{"coding":[{"code":"140","display":"Influenza, seasonal, injectable, preservative free","system":"http://hl7.org/fhir/sid/cvx"}],"text":"Influenza, seasonal, injectable, preservative free"}}},{"resource":{"date":"2015-11-22T07:24:53-05:00","encounter":{"reference":"Encounter/94408aae-49da-47a9-924c-c478d16c998b"},"id":"35a0535e-8883-402e-b37d-7dbc694a4923","meta":{"lastUpdated":"2019-04-09T11:38:43.641503+00:00","versionId":"MTU1NDgwOTkyMzY0MTUwMzAwMA"},"notGiven":false,"patient":{"reference":"Patient/00ba2d77-4512-45d0-b58c-82ee3161b00e"},"primarySource":true,"resourceType":"Immunization","status":"completed","vaccineCode":{"coding":[{"code":"140","display":"Influenza, seasonal, injectable, preservative free","system":"http://hl7.org/fhir/sid/cvx"}],"text":"Influenza, seasonal, injectable, preservative free"}}},{"resource":{"date":"2011-10-30T08:24:53-04:00","encounter":{"reference":"Encounter/ca571824-6b9a-4c33-95c5-aa82391dd88a"},"id":"47a722dc-65ac-4f8a-9275-70ad9cd53681","meta":{"lastUpdated":"2019-04-09T11:38:36.414802+00:00","versionId":"MTU1NDgwOTkxNjQxNDgwMjAwMA"},"notGiven":false,"patient":{"reference":"Patient/00ba2d77-4512-45d0-b58c-82ee3161b00e"},"primarySource":true,"resourceType":"Immunization","status":"completed","vaccineCode":{"coding":[{"code":"140","display":"Influenza, seasonal, injectable, preservative free","system":"http://hl7.org/fhir/sid/cvx"}],"text":"Influenza, seasonal, injectable, preservative free"}}},{"resource":{"date":"2010-10-24T08:24:53-04:00","encounter":{"reference":"Encounter/f5ca8abf-3836-4a23-a11a-b093cee82ad6"},"id":"7808cf24-2976-46df-86ab-e405abe5d75e","meta":{"lastUpdated":"2019-04-09T11:38:35.410443+00:00","versionId":"MTU1NDgwOTkxNTQxMDQ0MzAwMA"},"notGiven":false,"patient":{"reference":"Patient/00ba2d77-4512-45d0-b58c-82ee3161b00e"},"primarySource":true,"resourceType":"Immunization","status":"completed","vaccineCode":{"coding":[{"code":"140","display":"Influenza, seasonal, injectable, preservative free","system":"http://hl7.org/fhir/sid/cvx"}],"text":"Influenza, seasonal, injectable, preservative free"}}},{"resource":{"date":"2012-11-04T07:24:53-05:00","encounter":{"reference":"Encounter/4676d33b-5ac6-499e-97bf-3ac76b65e626"},"id":"8c3e282f-a6bd-49b0-affe-d55ed22a9816","meta":{"lastUpdated":"2019-04-09T11:38:38.474839+00:00","versionId":"MTU1NDgwOTkxODQ3NDgzOTAwMA"},"notGiven":false,"patient":{"reference":"Patient/00ba2d77-4512-45d0-b58c-82ee3161b00e"},"primarySource":true,"resourceType":"Immunization","status":"completed","vaccineCode":{"coding":[{"code":"140","display":"Influenza, seasonal, injectable, preservative free","system":"http://hl7.org/fhir/sid/cvx"}],"text":"Influenza, seasonal, injectable, preservative free"}}},{"resource":{"date":"2009-10-18T08:24:53-04:00","encounter":{"reference":"Encounter/7d401114-351e-4b6f-a04c-9e9d0104e90a"},"id":"c1f75abf-0d00-4909-8f85-122f89e040a5","meta":{"lastUpdated":"2019-04-09T11:38:34.392240+00:00","versionId":"MTU1NDgwOTkxNDM5MjI0MDAwMA"},"notGiven":false,"patient":{"reference":"Patient/00ba2d77-4512-45d0-b58c-82ee3161b00e"},"primarySource":true,"resourceType":"Immunization","status":"completed","vaccineCode":{"coding":[{"code":"140","display":"Influenza, seasonal, injectable, preservative free","system":"http://hl7.org/fhir/sid/cvx"}],"text":"Influenza, seasonal, injectable, preservative free"}}},{"resource":{"date":"2016-12-04T07:24:53-05:00","encounter":{"reference":"Encounter/83ef2b65-0b42-4872-a505-6b2f9e463831"},"id":"e8f04ad7-8b01-427c-8868-4d344f918439","meta":{"lastUpdated":"2019-04-09T11:38:45.674770+00:00","versionId":"MTU1NDgwOTkyNTY3NDc3MDAwMA"},"notGiven":false,"patient":{"reference":"Patient/00ba2d77-4512-45d0-b58c-82ee3161b00e"},"primarySource":true,"resourceType":"Immunization","status":"completed","vaccineCode":{"coding":[{"code":"113","display":"Td (adult) preservative free","system":"http://hl7.org/fhir/sid/cvx"}],"text":"Td (adult) preservative free"}}},{"resource":{"date":"2016-12-04T07:24:53-05:00","encounter":{"reference":"Encounter/83ef2b65-0b42-4872-a505-6b2f9e463831"},"id":"f5c6649c-9367-408d-a3e8-64baeb8ace1b","meta":{"lastUpdated":"2019-04-09T11:38:45.655602+00:00","versionId":"MTU1NDgwOTkyNTY1NTYwMjAwMA"},"notGiven":false,"patient":{"reference":"Patient/00ba2d77-4512-45d0-b58c-82ee3161b00e"},"primarySource":true,"resourceType":"Immunization","status":"completed","vaccineCode":{"coding":[{"code":"140","display":"Influenza, seasonal, injectable, preservative free","system":"http://hl7.org/fhir/sid/cvx"}],"text":"Influenza, seasonal, injectable, preservative free"}}},{"resource":{"date":"2014-11-16T07:24:53-05:00","encounter":{"reference":"Encounter/62615645-67d2-4d99-aa3c-9c8af4e1f21d"},"id":"fa14f2f3-2989-446a-88c2-a6f6b865ea16","meta":{"lastUpdated":"2019-04-09T11:38:41.590613+00:00","versionId":"MTU1NDgwOTkyMTU5MDYxMzAwMA"},"notGiven":false,"patient":{"reference":"Patient/00ba2d77-4512-45d0-b58c-82ee3161b00e"},"primarySource":true,"resourceType":"Immunization","status":"completed","vaccineCode":{"coding":[{"code":"140","display":"Influenza, seasonal, injectable, preservative free","system":"http://hl7.org/fhir/sid/cvx"}],"text":"Influenza, seasonal, injectable, preservative free"}}},{"resource":{"authoredOn":"2001-12-16T07:24:53-05:00","context":{"reference":"Encounter/1055070f-8142-4ff9-98f2-7648c286f1b3"},"id":"065315ad-2b2b-42e3-955f-89650ad99db6","intent":"order","medicationCodeableConcept":{"coding":[{"code":"1736776","display":"10 ML oxaliplatin 5 MG/ML Injection","system":"http://www.nlm.nih.gov/research/umls/rxnorm"}],"text":"10 ML oxaliplatin 5 MG/ML Injection"},"meta":{"lastUpdated":"2019-04-09T11:38:31.314552+00:00","versionId":"MTU1NDgwOTkxMTMxNDU1MjAwMA"},"requester":{"agent":{"reference":"Practitioner/ebd27f21-bb93-4416-bdf8-84490ae394cc"},"onBehalfOf":{"reference":"Organization/915f9f66-75d8-46c2-8da4-04b35046240b"}},"resourceType":"MedicationRequest","status":"active","subject":{"reference":"Patient/00ba2d77-4512-45d0-b58c-82ee3161b00e"}}},{"resource":{"authoredOn":"1996-09-06T08:24:53-04:00","context":{"reference":"Encounter/bc40cf21-3ed7-4df0-bf5f-41baa83fbf46"},"dosageInstruction":[{"asNeededBoolean":false,"doseQuantity":{"value":1},"sequence":1,"timing":{"repeat":{"frequency":1,"period":1,"periodUnit":"d"}}}],"id":"0c365701-dd6a-48a5-81ec-2979da0576f6","intent":"order","medicationCodeableConcept":{"coding":[{"code":"316672","display":"Simvistatin 10 MG","system":"http://www.nlm.nih.gov/research/umls/rxnorm"}],"text":"Simvistatin 10 MG"},"meta":{"lastUpdated":"2019-04-09T11:38:30.291427+00:00","versionId":"MTU1NDgwOTkxMDI5MTQyNzAwMA"},"reasonReference":[{"reference":"Condition/311dcd38-5569-4f33-aa8b-b93844077a19"}],"requester":{"agent":{"reference":"Practitioner/ebd27f21-bb93-4416-bdf8-84490ae394cc"},"onBehalfOf":{"reference":"Organization/915f9f66-75d8-46c2-8da4-04b35046240b"}},"resourceType":"MedicationRequest","status":"stopped","subject":{"reference":"Patient/00ba2d77-4512-45d0-b58c-82ee3161b00e"}}},{"resource":{"authoredOn":"2014-09-02T08:24:53-04:00","context":{"reference":"Encounter/f36513cc-cff9-4935-9ccb-cead1baf1f52"},"dosageInstruction":[{"asNeededBoolean":false,"doseQuantity":{"value":1},"sequence":1,"timing":{"repeat":{"frequency":1,"period":1,"periodUnit":"d"}}}],"id":"19e6cbae-648b-4ae8-99df-ad7e9d19200e","intent":"order","medicationCodeableConcept":{"coding":[{"code":"316672","display":"Simvistatin 10 MG","system":"http://www.nlm.nih.gov/research/umls/rxnorm"}],"text":"Simvistatin 10 MG"},"meta":{"lastUpdated":"2019-04-09T11:38:41.590334+00:00","versionId":"MTU1NDgwOTkyMTU5MDMzNDAwMA"},"reasonReference":[{"reference":"Condition/311dcd38-5569-4f33-aa8b-b93844077a19"}],"requester":{"agent":{"reference":"Practitioner/ebd27f21-bb93-4416-bdf8-84490ae394cc"},"onBehalfOf":{"reference":"Organization/915f9f66-75d8-46c2-8da4-04b35046240b"}},"resourceType":"MedicationRequest","status":"stopped","subject":{"reference":"Patient/00ba2d77-4512-45d0-b58c-82ee3161b00e"}}},{"resource":{"authoredOn":"1992-09-07T08:24:53-04:00","context":{"reference":"Encounter/c9f81c77-44c3-44b8-a2d5-4d0118da72ad"},"dosageInstruction":[{"asNeededBoolean":false,"doseQuantity":{"value":1},"sequence":1,"timing":{"repeat":{"frequency":1,"period":1,"periodUnit":"d"}}}],"id":"1fd3e427-b565-4ebe-9e78-b77739cfc825","intent":"order","medicationCodeableConcept":{"coding":[{"code":"316672","display":"Simvistatin 10 MG","system":"http://www.nlm.nih.gov/research/umls/rxnorm"}],"text":"Simvistatin 10 MG"},"meta":{"lastUpdated":"2019-04-09T11:38:30.287032+00:00","versionId":"MTU1NDgwOTkxMDI4NzAzMjAwMA"},"reasonReference":[{"reference":"Condition/311dcd38-5569-4f33-aa8b-b93844077a19"}],"requester":{"agent":{"reference":"Practitioner/ebd27f21-bb93-4416-bdf8-84490ae394cc"},"onBehalfOf":{"reference":"Organization/915f9f66-75d8-46c2-8da4-04b35046240b"}},"resourceType":"MedicationRequest","status":"stopped","subject":{"reference":"Patient/00ba2d77-4512-45d0-b58c-82ee3161b00e"}}},{"resource":{"authoredOn":"2015-09-02T08:24:53-04:00","context":{"reference":"Encounter/3111236c-b934-4ba5-8d2b-28d71c7366b9"},"dosageInstruction":[{"asNeededBoolean":false,"doseQuantity":{"value":1},"sequence":1,"timing":{"repeat":{"frequency":1,"period":1,"periodUnit":"d"}}}],"id":"200eb90c-fb7f-43e5-919a-b25ff3785d37","intent":"order","medicationCodeableConcept":{"coding":[{"code":"316672","display":"Simvistatin 10 MG","system":"http://www.nlm.nih.gov/research/umls/rxnorm"}],"text":"Simvistatin 10 MG"},"meta":{"lastUpdated":"2019-04-09T11:38:42.640188+00:00","versionId":"MTU1NDgwOTkyMjY0MDE4ODAwMA"},"reasonReference":[{"reference":"Condition/311dcd38-5569-4f33-aa8b-b93844077a19"}],"requester":{"agent":{"reference":"Practitioner/ebd27f21-bb93-4416-bdf8-84490ae394cc"},"onBehalfOf":{"reference":"Organization/915f9f66-75d8-46c2-8da4-04b35046240b"}},"resourceType":"MedicationRequest","status":"stopped","subject":{"reference":"Patient/00ba2d77-4512-45d0-b58c-82ee3161b00e"}}},{"resource":{"authoredOn":"2012-09-02T08:24:53-04:00","context":{"reference":"Encounter/4e75ac48-3637-4a18-ac38-586107dde84a"},"dosageInstruction":[{"asNeededBoolean":false,"doseQuantity":{"value":1},"sequence":1,"timing":{"repeat":{"frequency":1,"period":1,"periodUnit":"d"}}}],"id":"28b06876-adfa-4962-9ba1-ae8a268c067a","intent":"order","medicationCodeableConcept":{"coding":[{"code":"316672","display":"Simvistatin 10 MG","system":"http://www.nlm.nih.gov/research/umls/rxnorm"}],"text":"Simvistatin 10 MG"},"meta":{"lastUpdated":"2019-04-09T11:38:37.439192+00:00","versionId":"MTU1NDgwOTkxNzQzOTE5MjAwMA"},"reasonReference":[{"reference":"Condition/311dcd38-5569-4f33-aa8b-b93844077a19"}],"requester":{"agent":{"reference":"Practitioner/ebd27f21-bb93-4416-bdf8-84490ae394cc"},"onBehalfOf":{"reference":"Organization/915f9f66-75d8-46c2-8da4-04b35046240b"}},"resourceType":"MedicationRequest","status":"stopped","subject":{"reference":"Patient/00ba2d77-4512-45d0-b58c-82ee3161b00e"}}},{"resource":{"authoredOn":"2016-09-01T08:24:53-04:00","context":{"reference":"Encounter/b5cada8a-f282-40db-a8e9-71c5dd3a33f7"},"dosageInstruction":[{"asNeededBoolean":false,"doseQuantity":{"value":1},"sequence":1,"timing":{"repeat":{"frequency":1,"period":1,"periodUnit":"d"}}}],"id":"2b67014b-b681-4a9b-80d9-c6cb733d7c0c","intent":"order","medicationCodeableConcept":{"coding":[{"code":"316672","display":"Simvistatin 10 MG","system":"http://www.nlm.nih.gov/research/umls/rxnorm"}],"text":"Simvistatin 10 MG"},"meta":{"lastUpdated":"2019-04-09T11:38:44.648364+00:00","versionId":"MTU1NDgwOTkyNDY0ODM2NDAwMA"},"reasonReference":[{"reference":"Condition/311dcd38-5569-4f33-aa8b-b93844077a19"}],"requester":{"agent":{"reference":"Practitioner/ebd27f21-bb93-4416-bdf8-84490ae394cc"},"onBehalfOf":{"reference":"Organization/915f9f66-75d8-46c2-8da4-04b35046240b"}},"resourceType":"MedicationRequest","status":"stopped","subject":{"reference":"Patient/00ba2d77-4512-45d0-b58c-82ee3161b00e"}}},{"resource":{"authoredOn":"2002-09-05T08:24:53-04:00","context":{"reference":"Encounter/0d8293b5-2dc9-4bb5-8a48-5cd12fd5fba7"},"dosageInstruction":[{"asNeededBoolean":false,"doseQuantity":{"value":1},"sequence":1,"timing":{"repeat":{"frequency":1,"period":1,"periodUnit":"d"}}}],"id":"2e0fcb61-1684-4986-a97f-100342a8e574","intent":"order","medicationCodeableConcept":{"coding":[{"code":"316672","display":"Simvistatin 10 MG","system":"http://www.nlm.nih.gov/research/umls/rxnorm"}],"text":"Simvistatin 10 MG"},"meta":{"lastUpdated":"2019-04-09T11:38:31.325103+00:00","versionId":"MTU1NDgwOTkxMTMyNTEwMzAwMA"},"reasonReference":[{"reference":"Condition/311dcd38-5569-4f33-aa8b-b93844077a19"}],"requester":{"agent":{"reference":"Practitioner/ebd27f21-bb93-4416-bdf8-84490ae394cc"},"onBehalfOf":{"reference":"Organization/915f9f66-75d8-46c2-8da4-04b35046240b"}},"resourceType":"MedicationRequest","status":"stopped","subject":{"reference":"Patient/00ba2d77-4512-45d0-b58c-82ee3161b00e"}}},{"resource":{"authoredOn":"2013-08-02T08:24:53-04:00","context":{"reference":"Encounter/49733f21-b3ab-4560-abc5-ec3ae9e2c39c"},"dosageInstruction":[{"asNeededBoolean":true,"sequence":1}],"id":"300649c7-9480-4457-abdd-55eeb274f7b7","intent":"order","medicationCodeableConcept":{"coding":[{"code":"313782","display":"Acetaminophen 325 MG Oral Tablet","system":"http://www.nlm.nih.gov/research/umls/rxnorm"}],"text":"Acetaminophen 325 MG Oral Tablet"},"meta":{"lastUpdated":"2019-04-09T11:38:38.471321+00:00","versionId":"MTU1NDgwOTkxODQ3MTMyMTAwMA"},"requester":{"agent":{"reference":"Practitioner/ebd27f21-bb93-4416-bdf8-84490ae394cc"},"onBehalfOf":{"reference":"Organization/915f9f66-75d8-46c2-8da4-04b35046240b"}},"resourceType":"MedicationRequest","status":"stopped","subject":{"reference":"Patient/00ba2d77-4512-45d0-b58c-82ee3161b00e"}}},{"resource":{"authoredOn":"1999-09-06T08:24:53-04:00","context":{"reference":"Encounter/d2525501-a8f1-4491-9bd5-d42adbbaace0"},"dosageInstruction":[{"asNeededBoolean":false,"doseQuantity":{"value":1},"sequence":1,"timing":{"repeat":{"frequency":1,"period":1,"periodUnit":"d"}}}],"id":"3433e527-a815-4301-9d5f-2e3c85b9b943","intent":"order","medicationCodeableConcept":{"coding":[{"code":"316672","display":"Simvistatin 10 MG","system":"http://www.nlm.nih.gov/research/umls/rxnorm"}],"text":"Simvistatin 10 MG"},"meta":{"lastUpdated":"2019-04-09T11:38:30.290089+00:00","versionId":"MTU1NDgwOTkxMDI5MDA4OTAwMA"},"reasonReference":[{"reference":"Condition/311dcd38-5569-4f33-aa8b-b93844077a19"}],"requester":{"agent":{"reference":"Practitioner/ebd27f21-bb93-4416-bdf8-84490ae394cc"},"onBehalfOf":{"reference":"Organization/915f9f66-75d8-46c2-8da4-04b35046240b"}},"resourceType":"MedicationRequest","status":"stopped","subject":{"reference":"Patient/00ba2d77-4512-45d0-b58c-82ee3161b00e"}}},{"resource":{"authoredOn":"2000-09-05T08:24:53-04:00","context":{"reference":"Encounter/31c42b56-87cd-4277-bfb9-062cd02a07d9"},"dosageInstruction":[{"asNeededBoolean":false,"doseQuantity":{"value":1},"sequence":1,"timing":{"repeat":{"frequency":1,"period":1,"periodUnit":"d"}}}],"id":"45f3718c-69ee-4bea-bc0a-ac0a31c976e6","intent":"order","medicationCodeableConcept":{"coding":[{"code":"316672","display":"Simvistatin 10 MG","system":"http://www.nlm.nih.gov/research/umls/rxnorm"}],"text":"Simvistatin 10 MG"},"meta":{"lastUpdated":"2019-04-09T11:38:30.287356+00:00","versionId":"MTU1NDgwOTkxMDI4NzM1NjAwMA"},"reasonReference":[{"reference":"Condition/311dcd38-5569-4f33-aa8b-b93844077a19"}],"requester":{"agent":{"reference":"Practitioner/ebd27f21-bb93-4416-bdf8-84490ae394cc"},"onBehalfOf":{"reference":"Organization/915f9f66-75d8-46c2-8da4-04b35046240b"}},"resourceType":"MedicationRequest","status":"stopped","subject":{"reference":"Patient/00ba2d77-4512-45d0-b58c-82ee3161b00e"}}},{"resource":{"authoredOn":"2018-09-01T08:24:53-04:00","context":{"reference":"Encounter/f8f745a5-8c77-425e-a529-ad16ef5873f6"},"dosageInstruction":[{"asNeededBoolean":false,"doseQuantity":{"value":1},"sequence":1,"timing":{"repeat":{"frequency":1,"period":1,"periodUnit":"d"}}}],"id":"50ecae2b-266e-495d-a9fd-9f6ce1f4330a","intent":"order","medicationCodeableConcept":{"coding":[{"code":"316672","display":"Simvistatin 10 MG","system":"http://www.nlm.nih.gov/research/umls/rxnorm"}],"text":"Simvistatin 10 MG"},"meta":{"lastUpdated":"2019-04-09T11:38:47.768586+00:00","versionId":"MTU1NDgwOTkyNzc2ODU4NjAwMA"},"reasonReference":[{"reference":"Condition/311dcd38-5569-4f33-aa8b-b93844077a19"}],"requester":{"agent":{"reference":"Practitioner/ebd27f21-bb93-4416-bdf8-84490ae394cc"},"onBehalfOf":{"reference":"Organization/915f9f66-75d8-46c2-8da4-04b35046240b"}},"resourceType":"MedicationRequest","status":"active","subject":{"reference":"Patient/00ba2d77-4512-45d0-b58c-82ee3161b00e"}}},{"resource":{"authoredOn":"1997-09-06T08:24:53-04:00","context":{"reference":"Encounter/4606b094-c6ca-45ce-a3a8-e15ff62099ef"},"dosageInstruction":[{"asNeededBoolean":false,"doseQuantity":{"value":1},"sequence":1,"timing":{"repeat":{"frequency":1,"period":1,"periodUnit":"d"}}}],"id":"55a39f17-515e-4b43-9642-089ff73e2019","intent":"order","medicationCodeableConcept":{"coding":[{"code":"316672","display":"Simvistatin 10 MG","system":"http://www.nlm.nih.gov/research/umls/rxnorm"}],"text":"Simvistatin 10 MG"},"meta":{"lastUpdated":"2019-04-09T11:38:30.291428+00:00","versionId":"MTU1NDgwOTkxMDI5MTQyODAwMA"},"reasonReference":[{"reference":"Condition/311dcd38-5569-4f33-aa8b-b93844077a19"}],"requester":{"agent":{"reference":"Practitioner/ebd27f21-bb93-4416-bdf8-84490ae394cc"},"onBehalfOf":{"reference":"Organization/915f9f66-75d8-46c2-8da4-04b35046240b"}},"resourceType":"MedicationRequest","status":"stopped","subject":{"reference":"Patient/00ba2d77-4512-45d0-b58c-82ee3161b00e"}}},{"resource":{"authoredOn":"2004-09-04T08:24:53-04:00","context":{"reference":"Encounter/ff04c40a-0229-4572-aff2-16fd7c372fc4"},"dosageInstruction":[{"asNeededBoolean":false,"doseQuantity":{"value":1},"sequence":1,"timing":{"repeat":{"frequency":1,"period":1,"periodUnit":"d"}}}],"id":"6a9ee8dd-c2e0-417a-9a56-0c11d2936074","intent":"order","medicationCodeableConcept":{"coding":[{"code":"316672","display":"Simvistatin 10 MG","system":"http://www.nlm.nih.gov/research/umls/rxnorm"}],"text":"Simvistatin 10 MG"},"meta":{"lastUpdated":"2019-04-09T11:38:32.338113+00:00","versionId":"MTU1NDgwOTkxMjMzODExMzAwMA"},"reasonReference":[{"reference":"Condition/311dcd38-5569-4f33-aa8b-b93844077a19"}],"requester":{"agent":{"reference":"Practitioner/ebd27f21-bb93-4416-bdf8-84490ae394cc"},"onBehalfOf":{"reference":"Organization/915f9f66-75d8-46c2-8da4-04b35046240b"}},"resourceType":"MedicationRequest","status":"stopped","subject":{"reference":"Patient/00ba2d77-4512-45d0-b58c-82ee3161b00e"}}},{"resource":{"authoredOn":"1991-09-08T08:24:53-04:00","context":{"reference":"Encounter/dfebcd97-0ee8-4beb-ba27-3ef28c810bbf"},"dosageInstruction":[{"asNeededBoolean":false,"doseQuantity":{"value":1},"sequence":1,"timing":{"repeat":{"frequency":1,"period":1,"periodUnit":"d"}}}],"id":"6e749e41-bfbf-4b7d-af00-23b01e3dc572","intent":"order","medicationCodeableConcept":{"coding":[{"code":"316672","display":"Simvistatin 10 MG","system":"http://www.nlm.nih.gov/research/umls/rxnorm"}],"text":"Simvistatin 10 MG"},"meta":{"lastUpdated":"2019-04-09T11:38:30.286462+00:00","versionId":"MTU1NDgwOTkxMDI4NjQ2MjAwMA"},"reasonReference":[{"reference":"Condition/311dcd38-5569-4f33-aa8b-b93844077a19"}],"requester":{"agent":{"reference":"Practitioner/ebd27f21-bb93-4416-bdf8-84490ae394cc"},"onBehalfOf":{"reference":"Organization/915f9f66-75d8-46c2-8da4-04b35046240b"}},"resourceType":"MedicationRequest","status":"stopped","subject":{"reference":"Patient/00ba2d77-4512-45d0-b58c-82ee3161b00e"}}},{"resource":{"authoredOn":"2007-09-04T08:24:53-04:00","context":{"reference":"Encounter/c1e23301-ed16-445a-8d1e-b1dca5af7fb9"},"dosageInstruction":[{"asNeededBoolean":false,"doseQuantity":{"value":1},"sequence":1,"timing":{"repeat":{"frequency":1,"period":1,"periodUnit":"d"}}}],"id":"729d0d49-954d-490d-b689-e838b8aebcbd","intent":"order","medicationCodeableConcept":{"coding":[{"code":"316672","display":"Simvistatin 10 MG","system":"http://www.nlm.nih.gov/research/umls/rxnorm"}],"text":"Simvistatin 10 MG"},"meta":{"lastUpdated":"2019-04-09T11:38:32.341450+00:00","versionId":"MTU1NDgwOTkxMjM0MTQ1MDAwMA"},"reasonReference":[{"reference":"Condition/311dcd38-5569-4f33-aa8b-b93844077a19"}],"requester":{"agent":{"reference":"Practitioner/ebd27f21-bb93-4416-bdf8-84490ae394cc"},"onBehalfOf":{"reference":"Organization/915f9f66-75d8-46c2-8da4-04b35046240b"}},"resourceType":"MedicationRequest","status":"stopped","subject":{"reference":"Patient/00ba2d77-4512-45d0-b58c-82ee3161b00e"}}},{"resource":{"authoredOn":"2015-11-13T07:24:53-05:00","context":{"reference":"Encounter/e16d9654-5aa5-4158-b3b4-1654c9871a14"},"id":"8196e3ec-204a-4d3f-bf41-244a1a46fb72","intent":"order","medicationCodeableConcept":{"coding":[{"code":"313782","display":"Acetaminophen 325 MG Oral Tablet","system":"http://www.nlm.nih.gov/research/umls/rxnorm"}],"text":"Acetaminophen 325 MG Oral Tablet"},"meta":{"lastUpdated":"2019-04-09T11:38:42.640189+00:00","versionId":"MTU1NDgwOTkyMjY0MDE4OTAwMA"},"reasonReference":[{"reference":"Condition/7539b57b-282e-49be-a9e3-ccfe47c46f43"}],"requester":{"agent":{"reference":"Practitioner/ebd27f21-bb93-4416-bdf8-84490ae394cc"},"onBehalfOf":{"reference":"Organization/915f9f66-75d8-46c2-8da4-04b35046240b"}},"resourceType":"MedicationRequest","status":"stopped","subject":{"reference":"Patient/00ba2d77-4512-45d0-b58c-82ee3161b00e"}}},{"resource":{"authoredOn":"2017-09-01T08:24:53-04:00","context":{"reference":"Encounter/853e4d39-4587-4b1c-b969-4dd2b78aea65"},"dosageInstruction":[{"asNeededBoolean":false,"doseQuantity":{"value":1},"sequence":1,"timing":{"repeat":{"frequency":1,"period":1,"periodUnit":"d"}}}],"id":"81ed03f0-400c-49e8-9025-02a30157b501","intent":"order","medicationCodeableConcept":{"coding":[{"code":"316672","display":"Simvistatin 10 MG","system":"http://www.nlm.nih.gov/research/umls/rxnorm"}],"text":"Simvistatin 10 MG"},"meta":{"lastUpdated":"2019-04-09T11:38:45.677400+00:00","versionId":"MTU1NDgwOTkyNTY3NzQwMDAwMA"},"reasonReference":[{"reference":"Condition/311dcd38-5569-4f33-aa8b-b93844077a19"}],"requester":{"agent":{"reference":"Practitioner/ebd27f21-bb93-4416-bdf8-84490ae394cc"},"onBehalfOf":{"reference":"Organization/915f9f66-75d8-46c2-8da4-04b35046240b"}},"resourceType":"MedicationRequest","status":"stopped","subject":{"reference":"Patient/00ba2d77-4512-45d0-b58c-82ee3161b00e"}}},{"resource":{"authoredOn":"1994-09-07T08:24:53-04:00","context":{"reference":"Encounter/be71e711-45ea-4113-a400-5e989454c857"},"dosageInstruction":[{"asNeededBoolean":false,"doseQuantity":{"value":1},"sequence":1,"timing":{"repeat":{"frequency":1,"period":1,"periodUnit":"d"}}}],"id":"84f3dcfd-ef6b-4e70-82af-becf5a264959","intent":"order","medicationCodeableConcept":{"coding":[{"code":"316672","display":"Simvistatin 10 MG","system":"http://www.nlm.nih.gov/research/umls/rxnorm"}],"text":"Simvistatin 10 MG"},"meta":{"lastUpdated":"2019-04-09T11:38:30.293174+00:00","versionId":"MTU1NDgwOTkxMDI5MzE3NDAwMA"},"reasonReference":[{"reference":"Condition/311dcd38-5569-4f33-aa8b-b93844077a19"}],"requester":{"agent":{"reference":"Practitioner/ebd27f21-bb93-4416-bdf8-84490ae394cc"},"onBehalfOf":{"reference":"Organization/915f9f66-75d8-46c2-8da4-04b35046240b"}},"resourceType":"MedicationRequest","status":"stopped","subject":{"reference":"Patient/00ba2d77-4512-45d0-b58c-82ee3161b00e"}}},{"resource":{"authoredOn":"2006-09-04T08:24:53-04:00","context":{"reference":"Encounter/6bee969a-01fa-4189-b715-b5e4ae43bf49"},"dosageInstruction":[{"asNeededBoolean":false,"doseQuantity":{"value":1},"sequence":1,"timing":{"repeat":{"frequency":1,"period":1,"periodUnit":"d"}}}],"id":"85e44eb3-dcdc-488b-a7b6-230201ebb85c","intent":"order","medicationCodeableConcept":{"coding":[{"code":"316672","display":"Simvistatin 10 MG","system":"http://www.nlm.nih.gov/research/umls/rxnorm"}],"text":"Simvistatin 10 MG"},"meta":{"lastUpdated":"2019-04-09T11:38:32.333838+00:00","versionId":"MTU1NDgwOTkxMjMzMzgzODAwMA"},"reasonReference":[{"reference":"Condition/311dcd38-5569-4f33-aa8b-b93844077a19"}],"requester":{"agent":{"reference":"Practitioner/ebd27f21-bb93-4416-bdf8-84490ae394cc"},"onBehalfOf":{"reference":"Organization/915f9f66-75d8-46c2-8da4-04b35046240b"}},"resourceType":"MedicationRequest","status":"stopped","subject":{"reference":"Patient/00ba2d77-4512-45d0-b58c-82ee3161b00e"}}},{"resource":{"authoredOn":"2013-09-02T08:24:53-04:00","context":{"reference":"Encounter/f0fba7d8-7c37-4e8f-bb83-b0a88440e054"},"dosageInstruction":[{"asNeededBoolean":false,"doseQuantity":{"value":1},"sequence":1,"timing":{"repeat":{"frequency":1,"period":1,"periodUnit":"d"}}}],"id":"87298310-d940-490d-866b-0efff290347e","intent":"order","medicationCodeableConcept":{"coding":[{"code":"316672","display":"Simvistatin 10 MG","system":"http://www.nlm.nih.gov/research/umls/rxnorm"}],"text":"Simvistatin 10 MG"},"meta":{"lastUpdated":"2019-04-09T11:38:39.514576+00:00","versionId":"MTU1NDgwOTkxOTUxNDU3NjAwMA"},"reasonReference":[{"reference":"Condition/311dcd38-5569-4f33-aa8b-b93844077a19"}],"requester":{"agent":{"reference":"Practitioner/ebd27f21-bb93-4416-bdf8-84490ae394cc"},"onBehalfOf":{"reference":"Organization/915f9f66-75d8-46c2-8da4-04b35046240b"}},"resourceType":"MedicationRequest","status":"stopped","subject":{"reference":"Patient/00ba2d77-4512-45d0-b58c-82ee3161b00e"}}},{"resource":{"authoredOn":"2011-09-03T08:24:53-04:00","context":{"reference":"Encounter/824ce325-e5ab-443f-9ce8-4c014da6fe36"},"dosageInstruction":[{"asNeededBoolean":false,"doseQuantity":{"value":1},"sequence":1,"timing":{"repeat":{"frequency":1,"period":1,"periodUnit":"d"}}}],"id":"88d857cf-8caa-483e-8259-a56a2111763d","intent":"order","medicationCodeableConcept":{"coding":[{"code":"316672","display":"Simvistatin 10 MG","system":"http://www.nlm.nih.gov/research/umls/rxnorm"}],"text":"Simvistatin 10 MG"},"meta":{"lastUpdated":"2019-04-09T11:38:35.412518+00:00","versionId":"MTU1NDgwOTkxNTQxMjUxODAwMA"},"reasonReference":[{"reference":"Condition/311dcd38-5569-4f33-aa8b-b93844077a19"}],"requester":{"agent":{"reference":"Practitioner/ebd27f21-bb93-4416-bdf8-84490ae394cc"},"onBehalfOf":{"reference":"Organization/915f9f66-75d8-46c2-8da4-04b35046240b"}},"resourceType":"MedicationRequest","status":"stopped","subject":{"reference":"Patient/00ba2d77-4512-45d0-b58c-82ee3161b00e"}}},{"resource":{"authoredOn":"1995-09-07T08:24:53-04:00","context":{"reference":"Encounter/1c0d93ba-ec42-4b5c-a069-272d8275bb76"},"dosageInstruction":[{"asNeededBoolean":false,"doseQuantity":{"value":1},"sequence":1,"timing":{"repeat":{"frequency":1,"period":1,"periodUnit":"d"}}}],"id":"8a45e43f-cecb-45f9-a815-26b8dcd2d343","intent":"order","medicationCodeableConcept":{"coding":[{"code":"316672","display":"Simvistatin 10 MG","system":"http://www.nlm.nih.gov/research/umls/rxnorm"}],"text":"Simvistatin 10 MG"},"meta":{"lastUpdated":"2019-04-09T11:38:30.293173+00:00","versionId":"MTU1NDgwOTkxMDI5MzE3MzAwMA"},"reasonReference":[{"reference":"Condition/311dcd38-5569-4f33-aa8b-b93844077a19"}],"requester":{"agent":{"reference":"Practitioner/ebd27f21-bb93-4416-bdf8-84490ae394cc"},"onBehalfOf":{"reference":"Organization/915f9f66-75d8-46c2-8da4-04b35046240b"}},"resourceType":"MedicationRequest","status":"stopped","subject":{"reference":"Patient/00ba2d77-4512-45d0-b58c-82ee3161b00e"}}},{"resource":{"authoredOn":"2001-12-16T07:24:53-05:00","context":{"reference":"Encounter/1055070f-8142-4ff9-98f2-7648c286f1b3"},"id":"8fcb9217-b176-4cce-8a5c-4af30b230436","intent":"order","medicationCodeableConcept":{"coding":[{"code":"1803932","display":"Leucovorin 100 MG Injection","system":"http://www.nlm.nih.gov/research/umls/rxnorm"}],"text":"Leucovorin 100 MG Injection"},"meta":{"lastUpdated":"2019-04-09T11:38:31.314553+00:00","versionId":"MTU1NDgwOTkxMTMxNDU1MzAwMA"},"requester":{"agent":{"reference":"Practitioner/ebd27f21-bb93-4416-bdf8-84490ae394cc"},"onBehalfOf":{"reference":"Organization/915f9f66-75d8-46c2-8da4-04b35046240b"}},"resourceType":"MedicationRequest","status":"active","subject":{"reference":"Patient/00ba2d77-4512-45d0-b58c-82ee3161b00e"}}},{"resource":{"authoredOn":"2001-09-05T08:24:53-04:00","context":{"reference":"Encounter/b15a50b3-182e-45b6-b622-37c4eb8b60f8"},"dosageInstruction":[{"asNeededBoolean":false,"doseQuantity":{"value":1},"sequence":1,"timing":{"repeat":{"frequency":1,"period":1,"periodUnit":"d"}}}],"id":"90d93767-a1bc-473d-857f-e28ad511b241","intent":"order","medicationCodeableConcept":{"coding":[{"code":"316672","display":"Simvistatin 10 MG","system":"http://www.nlm.nih.gov/research/umls/rxnorm"}],"text":"Simvistatin 10 MG"},"meta":{"lastUpdated":"2019-04-09T11:38:31.321870+00:00","versionId":"MTU1NDgwOTkxMTMyMTg3MDAwMA"},"reasonReference":[{"reference":"Condition/311dcd38-5569-4f33-aa8b-b93844077a19"}],"requester":{"agent":{"reference":"Practitioner/ebd27f21-bb93-4416-bdf8-84490ae394cc"},"onBehalfOf":{"reference":"Organization/915f9f66-75d8-46c2-8da4-04b35046240b"}},"resourceType":"MedicationRequest","status":"stopped","subject":{"reference":"Patient/00ba2d77-4512-45d0-b58c-82ee3161b00e"}}},{"resource":{"authoredOn":"2003-09-05T08:24:53-04:00","context":{"reference":"Encounter/1b62ca3d-9cfc-4d94-842c-52d8fe6d9120"},"dosageInstruction":[{"asNeededBoolean":false,"doseQuantity":{"value":1},"sequence":1,"timing":{"repeat":{"frequency":1,"period":1,"periodUnit":"d"}}}],"id":"9112bda5-d0b9-484c-bec5-01e460db4018","intent":"order","medicationCodeableConcept":{"coding":[{"code":"316672","display":"Simvistatin 10 MG","system":"http://www.nlm.nih.gov/research/umls/rxnorm"}],"text":"Simvistatin 10 MG"},"meta":{"lastUpdated":"2019-04-09T11:38:31.319799+00:00","versionId":"MTU1NDgwOTkxMTMxOTc5OTAwMA"},"reasonReference":[{"reference":"Condition/311dcd38-5569-4f33-aa8b-b93844077a19"}],"requester":{"agent":{"reference":"Practitioner/ebd27f21-bb93-4416-bdf8-84490ae394cc"},"onBehalfOf":{"reference":"Organization/915f9f66-75d8-46c2-8da4-04b35046240b"}},"resourceType":"MedicationRequest","status":"stopped","subject":{"reference":"Patient/00ba2d77-4512-45d0-b58c-82ee3161b00e"}}},{"resource":{"authoredOn":"2010-09-03T08:24:53-04:00","context":{"reference":"Encounter/84c1d4a3-ee6b-4b09-bf77-6841e8c8e908"},"dosageInstruction":[{"asNeededBoolean":false,"doseQuantity":{"value":1},"sequence":1,"timing":{"repeat":{"frequency":1,"period":1,"periodUnit":"d"}}}],"id":"a638b354-adfa-4f98-8adf-642c55bc066c","intent":"order","medicationCodeableConcept":{"coding":[{"code":"316672","display":"Simvistatin 10 MG","system":"http://www.nlm.nih.gov/research/umls/rxnorm"}],"text":"Simvistatin 10 MG"},"meta":{"lastUpdated":"2019-04-09T11:38:34.396596+00:00","versionId":"MTU1NDgwOTkxNDM5NjU5NjAwMA"},"reasonReference":[{"reference":"Condition/311dcd38-5569-4f33-aa8b-b93844077a19"}],"requester":{"agent":{"reference":"Practitioner/ebd27f21-bb93-4416-bdf8-84490ae394cc"},"onBehalfOf":{"reference":"Organization/915f9f66-75d8-46c2-8da4-04b35046240b"}},"resourceType":"MedicationRequest","status":"stopped","subject":{"reference":"Patient/00ba2d77-4512-45d0-b58c-82ee3161b00e"}}},{"resource":{"authoredOn":"2008-09-03T08:24:53-04:00","context":{"reference":"Encounter/17392ac7-c63c-4c1b-9fa1-d0284c0872d8"},"dosageInstruction":[{"asNeededBoolean":false,"doseQuantity":{"value":1},"sequence":1,"timing":{"repeat":{"frequency":1,"period":1,"periodUnit":"d"}}}],"id":"b9b3a459-8dad-4dd5-bfb4-47b8a578b75a","intent":"order","medicationCodeableConcept":{"coding":[{"code":"316672","display":"Simvistatin 10 MG","system":"http://www.nlm.nih.gov/research/umls/rxnorm"}],"text":"Simvistatin 10 MG"},"meta":{"lastUpdated":"2019-04-09T11:38:32.333840+00:00","versionId":"MTU1NDgwOTkxMjMzMzg0MDAwMA"},"reasonReference":[{"reference":"Condition/311dcd38-5569-4f33-aa8b-b93844077a19"}],"requester":{"agent":{"reference":"Practitioner/ebd27f21-bb93-4416-bdf8-84490ae394cc"},"onBehalfOf":{"reference":"Organization/915f9f66-75d8-46c2-8da4-04b35046240b"}},"resourceType":"MedicationRequest","status":"stopped","subject":{"reference":"Patient/00ba2d77-4512-45d0-b58c-82ee3161b00e"}}},{"resource":{"authoredOn":"2005-09-04T08:24:53-04:00","context":{"reference":"Encounter/4b680064-17f9-4e21-8bf5-d7c1e3d48da7"},"dosageInstruction":[{"asNeededBoolean":false,"doseQuantity":{"value":1},"sequence":1,"timing":{"repeat":{"frequency":1,"period":1,"periodUnit":"d"}}}],"id":"c0befa54-409d-4c3e-bbc3-d68a9a4bd4c4","intent":"order","medicationCodeableConcept":{"coding":[{"code":"316672","display":"Simvistatin 10 MG","system":"http://www.nlm.nih.gov/research/umls/rxnorm"}],"text":"Simvistatin 10 MG"},"meta":{"lastUpdated":"2019-04-09T11:38:32.341903+00:00","versionId":"MTU1NDgwOTkxMjM0MTkwMzAwMA"},"reasonReference":[{"reference":"Condition/311dcd38-5569-4f33-aa8b-b93844077a19"}],"requester":{"agent":{"reference":"Practitioner/ebd27f21-bb93-4416-bdf8-84490ae394cc"},"onBehalfOf":{"reference":"Organization/915f9f66-75d8-46c2-8da4-04b35046240b"}},"resourceType":"MedicationRequest","status":"stopped","subject":{"reference":"Patient/00ba2d77-4512-45d0-b58c-82ee3161b00e"}}},{"resource":{"authoredOn":"1990-09-08T08:24:53-04:00","context":{"reference":"Encounter/3382e9bd-114c-4154-a68a-6798b73f49de"},"dosageInstruction":[{"asNeededBoolean":false,"doseQuantity":{"value":1},"sequence":1,"timing":{"repeat":{"frequency":1,"period":1,"periodUnit":"d"}}}],"id":"c6d34e57-76dd-4c88-86f3-0409bd843147","intent":"order","medicationCodeableConcept":{"coding":[{"code":"316672","display":"Simvistatin 10 MG","system":"http://www.nlm.nih.gov/research/umls/rxnorm"}],"text":"Simvistatin 10 MG"},"meta":{"lastUpdated":"2019-04-09T11:38:29.199089+00:00","versionId":"MTU1NDgwOTkwOTE5OTA4OTAwMA"},"reasonReference":[{"reference":"Condition/311dcd38-5569-4f33-aa8b-b93844077a19"}],"requester":{"agent":{"reference":"Practitioner/ebd27f21-bb93-4416-bdf8-84490ae394cc"},"onBehalfOf":{"reference":"Organization/915f9f66-75d8-46c2-8da4-04b35046240b"}},"resourceType":"MedicationRequest","status":"stopped","subject":{"reference":"Patient/00ba2d77-4512-45d0-b58c-82ee3161b00e"}}},{"resource":{"authoredOn":"1998-09-06T08:24:53-04:00","context":{"reference":"Encounter/d324f119-159f-4549-a73d-718bcf71f183"},"dosageInstruction":[{"asNeededBoolean":false,"doseQuantity":{"value":1},"sequence":1,"timing":{"repeat":{"frequency":1,"period":1,"periodUnit":"d"}}}],"id":"d9bf0179-dd79-4049-a797-14d84e734caa","intent":"order","medicationCodeableConcept":{"coding":[{"code":"316672","display":"Simvistatin 10 MG","system":"http://www.nlm.nih.gov/research/umls/rxnorm"}],"text":"Simvistatin 10 MG"},"meta":{"lastUpdated":"2019-04-09T11:38:30.297395+00:00","versionId":"MTU1NDgwOTkxMDI5NzM5NTAwMA"},"reasonReference":[{"reference":"Condition/311dcd38-5569-4f33-aa8b-b93844077a19"}],"requester":{"agent":{"reference":"Practitioner/ebd27f21-bb93-4416-bdf8-84490ae394cc"},"onBehalfOf":{"reference":"Organization/915f9f66-75d8-46c2-8da4-04b35046240b"}},"resourceType":"MedicationRequest","status":"stopped","subject":{"reference":"Patient/00ba2d77-4512-45d0-b58c-82ee3161b00e"}}},{"resource":{"authoredOn":"2013-08-02T08:24:53-04:00","context":{"reference":"Encounter/49733f21-b3ab-4560-abc5-ec3ae9e2c39c"},"dosageInstruction":[{"asNeededBoolean":false,"doseQuantity":{"value":1},"sequence":1,"timing":{"repeat":{"frequency":1,"period":6,"periodUnit":"h"}}}],"id":"da5e03c8-c45b-4c52-b4b4-f6254716c9b2","intent":"order","medicationCodeableConcept":{"coding":[{"code":"1049221","display":"Acetaminophen 325 MG / oxyCODONE Hydrochloride 5 MG Oral Tablet","system":"http://www.nlm.nih.gov/research/umls/rxnorm"}],"text":"Acetaminophen 325 MG / oxyCODONE Hydrochloride 5 MG Oral Tablet"},"meta":{"lastUpdated":"2019-04-09T11:38:38.472488+00:00","versionId":"MTU1NDgwOTkxODQ3MjQ4ODAwMA"},"requester":{"agent":{"reference":"Practitioner/ebd27f21-bb93-4416-bdf8-84490ae394cc"},"onBehalfOf":{"reference":"Organization/915f9f66-75d8-46c2-8da4-04b35046240b"}},"resourceType":"MedicationRequest","status":"stopped","subject":{"reference":"Patient/00ba2d77-4512-45d0-b58c-82ee3161b00e"}}},{"resource":{"authoredOn":"1993-09-07T08:24:53-04:00","context":{"reference":"Encounter/7f844d5f-ab1e-4d15-9d4d-37439a2ece2b"},"dosageInstruction":[{"asNeededBoolean":false,"doseQuantity":{"value":1},"sequence":1,"timing":{"repeat":{"frequency":1,"period":1,"periodUnit":"d"}}}],"id":"db9928a8-e9df-4038-a9f2-5fc02020f6fa","intent":"order","medicationCodeableConcept":{"coding":[{"code":"316672","display":"Simvistatin 10 MG","system":"http://www.nlm.nih.gov/research/umls/rxnorm"}],"text":"Simvistatin 10 MG"},"meta":{"lastUpdated":"2019-04-09T11:38:30.294033+00:00","versionId":"MTU1NDgwOTkxMDI5NDAzMzAwMA"},"reasonReference":[{"reference":"Condition/311dcd38-5569-4f33-aa8b-b93844077a19"}],"requester":{"agent":{"reference":"Practitioner/ebd27f21-bb93-4416-bdf8-84490ae394cc"},"onBehalfOf":{"reference":"Organization/915f9f66-75d8-46c2-8da4-04b35046240b"}},"resourceType":"MedicationRequest","status":"stopped","subject":{"reference":"Patient/00ba2d77-4512-45d0-b58c-82ee3161b00e"}}},{"resource":{"authoredOn":"2009-09-03T08:24:53-04:00","context":{"reference":"Encounter/662be9d8-a254-4540-b569-716a1b080de8"},"dosageInstruction":[{"asNeededBoolean":false,"doseQuantity":{"value":1},"sequence":1,"timing":{"repeat":{"frequency":1,"period":1,"periodUnit":"d"}}}],"id":"dca02f7c-f1f6-488d-b46c-790b07b12328","intent":"order","medicationCodeableConcept":{"coding":[{"code":"316672","display":"Simvistatin 10 MG","system":"http://www.nlm.nih.gov/research/umls/rxnorm"}],"text":"Simvistatin 10 MG"},"meta":{"lastUpdated":"2019-04-09T11:38:33.392658+00:00","versionId":"MTU1NDgwOTkxMzM5MjY1ODAwMA"},"reasonReference":[{"reference":"Condition/311dcd38-5569-4f33-aa8b-b93844077a19"}],"requester":{"agent":{"reference":"Practitioner/ebd27f21-bb93-4416-bdf8-84490ae394cc"},"onBehalfOf":{"reference":"Organization/915f9f66-75d8-46c2-8da4-04b35046240b"}},"resourceType":"MedicationRequest","status":"stopped","subject":{"reference":"Patient/00ba2d77-4512-45d0-b58c-82ee3161b00e"}}},{"resource":{"category":[{"coding":[{"code":"laboratory","display":"laboratory","system":"http://hl7.org/fhir/observation-category"}]}],"code":{"coding":[{"code":"785-6","display":"MCH [Entitic mass] by Automated count","system":"http://loinc.org"}],"text":"MCH [Entitic mass] by Automated count"},"context":{"reference":"Encounter/4676d33b-5ac6-499e-97bf-3ac76b65e626"},"effectiveDateTime":"2012-11-04T07:24:53-05:00","id":"017a702a-117e-4292-a9cb-0ba84a6d66ba","issued":"2012-11-04T07:24:53.240-05:00","meta":{"lastUpdated":"2019-04-09T11:38:37.444316+00:00","versionId":"MTU1NDgwOTkxNzQ0NDMxNjAwMA"},"resourceType":"Observation","status":"final","subject":{"reference":"Patient/00ba2d77-4512-45d0-b58c-82ee3161b00e"},"valueQuantity":{"code":"pg","system":"http://unitsofmeasure.org","unit":"pg","value":30.04863464258317}}},{"resource":{"category":[{"coding":[{"code":"laboratory","display":"laboratory","system":"http://hl7.org/fhir/observation-category"}]}],"code":{"coding":[{"code":"6298-4","display":"Potassium","system":"http://loinc.org"}],"text":"Potassium"},"context":{"reference":"Encounter/e9be45b5-7c71-4054-ad2e-5ff3cd35550d"},"effectiveDateTime":"2017-12-10T07:24:53-05:00","id":"01bb5d24-9101-4602-a5b5-bfdd14980b45","issued":"2017-12-10T07:24:53.240-05:00","meta":{"lastUpdated":"2019-04-09T11:38:46.699868+00:00","versionId":"MTU1NDgwOTkyNjY5OTg2ODAwMA"},"resourceType":"Observation","status":"final","subject":{"reference":"Patient/00ba2d77-4512-45d0-b58c-82ee3161b00e"},"valueQuantity":{"code":"mmol/L","system":"http://unitsofmeasure.org","unit":"mmol/L","value":4.33552797289574}}},{"resource":{"category":[{"coding":[{"code":"laboratory","display":"laboratory","system":"http://hl7.org/fhir/observation-category"}]}],"code":{"coding":[{"code":"1742-6","display":"Alanine aminotransferase [Enzymatic activity/volume] in Serum or Plasma","system":"http://loinc.org"}],"text":"Alanine aminotransferase [Enzymatic activity/volume] in Serum or Plasma"},"context":{"reference":"Encounter/662be9d8-a254-4540-b569-716a1b080de8"},"effectiveDateTime":"2009-09-03T08:24:53-04:00","id":"01fd5760-bdc2-45cf-8921-41fcd1a636b2","issued":"2009-09-03T08:24:53.240-04:00","meta":{"lastUpdated":"2019-04-09T11:38:33.383306+00:00","versionId":"MTU1NDgwOTkxMzM4MzMwNjAwMA"},"resourceType":"Observation","status":"final","subject":{"reference":"Patient/00ba2d77-4512-45d0-b58c-82ee3161b00e"},"valueQuantity":{"code":"U/L","system":"http://unitsofmeasure.org","unit":"U/L","value":35.60949222635328}}},{"resource":{"category":[{"coding":[{"code":"laboratory","display":"laboratory","system":"http://hl7.org/fhir/observation-category"}]}],"code":{"coding":[{"code":"1975-2","display":"Bilirubin.total [Mass/volume] in Serum or Plasma","system":"http://loinc.org"}],"text":"Bilirubin.total [Mass/volume] in Serum or Plasma"},"context":{"reference":"Encounter/3111236c-b934-4ba5-8d2b-28d71c7366b9"},"effectiveDateTime":"2015-09-02T08:24:53-04:00","id":"025bd33a-11d9-4ce8-81df-b261d76ce5cd","issued":"2015-09-02T08:24:53.240-04:00","meta":{"lastUpdated":"2019-04-09T11:38:42.625111+00:00","versionId":"MTU1NDgwOTkyMjYyNTExMTAwMA"},"resourceType":"Observation","status":"final","subject":{"reference":"Patient/00ba2d77-4512-45d0-b58c-82ee3161b00e"},"valueQuantity":{"code":"mg/dL","system":"http://unitsofmeasure.org","unit":"mg/dL","value":0.7308813544401566}}},{"resource":{"category":[{"coding":[{"code":"laboratory","display":"laboratory","system":"http://hl7.org/fhir/observation-category"}]}],"code":{"coding":[{"code":"2571-8","display":"Triglycerides","system":"http://loinc.org"}],"text":"Triglycerides"},"context":{"reference":"Encounter/662be9d8-a254-4540-b569-716a1b080de8"},"effectiveDateTime":"2009-09-03T08:24:53-04:00","id":"03281625-72ed-4d24-be5c-0bd2e9c8f099","issued":"2009-09-03T08:24:53.240-04:00","meta":{"lastUpdated":"2019-04-09T11:38:33.383308+00:00","versionId":"MTU1NDgwOTkxMzM4MzMwODAwMA"},"resourceType":"Observation","status":"final","subject":{"reference":"Patient/00ba2d77-4512-45d0-b58c-82ee3161b00e"},"valueQuantity":{"code":"mg/dL","system":"http://unitsofmeasure.org","unit":"mg/dL","value":173.3556274571007}}},{"resource":{"category":[{"coding":[{"code":"laboratory","display":"laboratory","system":"http://hl7.org/fhir/observation-category"}]}],"code":{"coding":[{"code":"6299-2","display":"Urea Nitrogen","system":"http://loinc.org"}],"text":"Urea Nitrogen"},"context":{"reference":"Encounter/e9be45b5-7c71-4054-ad2e-5ff3cd35550d"},"effectiveDateTime":"2017-12-10T07:24:53-05:00","id":"03672b49-57b5-45f3-986b-c36857bd44d9","issued":"2017-12-10T07:24:53.240-05:00","meta":{"lastUpdated":"2019-04-09T11:38:46.683281+00:00","versionId":"MTU1NDgwOTkyNjY4MzI4MTAwMA"},"resourceType":"Observation","status":"final","subject":{"reference":"Patient/00ba2d77-4512-45d0-b58c-82ee3161b00e"},"valueQuantity":{"code":"mg/dL","system":"http://unitsofmeasure.org","unit":"mg/dL","value":16.600868614280976}}},{"resource":{"category":[{"coding":[{"code":"laboratory","display":"laboratory","system":"http://hl7.org/fhir/observation-category"}]}],"code":{"coding":[{"code":"49765-1","display":"Calcium","system":"http://loinc.org"}],"text":"Calcium"},"context":{"reference":"Encounter/d040d467-55a8-4786-93e9-52cff99788a9"},"effectiveDateTime":"2018-12-16T07:24:53-05:00","id":"0370df55-07c0-4888-a6b1-14143dfe4873","issued":"2018-12-16T07:24:53.240-05:00","meta":{"lastUpdated":"2019-04-09T11:38:47.762789+00:00","versionId":"MTU1NDgwOTkyNzc2Mjc4OTAwMA"},"resourceType":"Observation","status":"final","subject":{"reference":"Patient/00ba2d77-4512-45d0-b58c-82ee3161b00e"},"valueQuantity":{"code":"mg/dL","system":"http://unitsofmeasure.org","unit":"mg/dL","value":9.73971225692017}}},{"resource":{"category":[{"coding":[{"code":"laboratory","display":"laboratory","system":"http://hl7.org/fhir/observation-category"}]}],"code":{"coding":[{"code":"2947-0","display":"Sodium","system":"http://loinc.org"}],"text":"Sodium"},"context":{"reference":"Encounter/662be9d8-a254-4540-b569-716a1b080de8"},"effectiveDateTime":"2009-09-03T08:24:53-04:00","id":"03a02a44-85b3-447b-8f0a-c852e636961c","issued":"2009-09-03T08:24:53.240-04:00","meta":{"lastUpdated":"2019-04-09T11:38:33.383307+00:00","versionId":"MTU1NDgwOTkxMzM4MzMwNzAwMA"},"resourceType":"Observation","status":"final","subject":{"reference":"Patient/00ba2d77-4512-45d0-b58c-82ee3161b00e"},"valueQuantity":{"code":"mmol/L","system":"http://unitsofmeasure.org","unit":"mmol/L","value":140.182416848437}}},{"resource":{"category":[{"coding":[{"code":"vital-signs","display":"vital-signs","system":"http://hl7.org/fhir/observation-category"}]}],"code":{"coding":[{"code":"29463-7","display":"Body Weight","system":"http://loinc.org"}],"text":"Body Weight"},"context":{"reference":"Encounter/7d401114-351e-4b6f-a04c-9e9d0104e90a"},"effectiveDateTime":"2009-10-18T08:24:53-04:00","id":"0430d82f-4642-4f7f-bffe-931789652d46","issued":"2009-10-18T08:24:53.240-04:00","meta":{"lastUpdated":"2019-04-09T11:38:33.392575+00:00","versionId":"MTU1NDgwOTkxMzM5MjU3NTAwMA"},"resourceType":"Observation","status":"final","subject":{"reference":"Patient/00ba2d77-4512-45d0-b58c-82ee3161b00e"},"valueQuantity":{"code":"kg","system":"http://unitsofmeasure.org","unit":"kg","value":70.7752340576478}}},{"resource":{"category":[{"coding":[{"code":"laboratory","display":"laboratory","system":"http://hl7.org/fhir/observation-category"}]}],"code":{"coding":[{"code":"2947-0","display":"Sodium","system":"http://loinc.org"}],"text":"Sodium"},"context":{"reference":"Encounter/7d401114-351e-4b6f-a04c-9e9d0104e90a"},"effectiveDateTime":"2009-10-18T08:24:53-04:00","id":"043fa475-cc78-4121-8eb3-23140fb7058c","issued":"2009-10-18T08:24:53.240-04:00","meta":{"lastUpdated":"2019-04-09T11:38:34.391950+00:00","versionId":"MTU1NDgwOTkxNDM5MTk1MDAwMA"},"resourceType":"Observation","status":"final","subject":{"reference":"Patient/00ba2d77-4512-45d0-b58c-82ee3161b00e"},"valueQuantity":{"code":"mmol/L","system":"http://unitsofmeasure.org","unit":"mmol/L","value":143.2701811480107}}},{"resource":{"category":[{"coding":[{"code":"laboratory","display":"laboratory","system":"http://hl7.org/fhir/observation-category"}]}],"code":{"coding":[{"code":"2339-0","display":"Glucose","system":"http://loinc.org"}],"text":"Glucose"},"context":{"reference":"Encounter/e9be45b5-7c71-4054-ad2e-5ff3cd35550d"},"effectiveDateTime":"2017-12-10T07:24:53-05:00","id":"045f3ea0-04c5-463c-9060-7907bd7f8d5f","issued":"2017-12-10T07:24:53.240-05:00","meta":{"lastUpdated":"2019-04-09T11:38:45.674086+00:00","versionId":"MTU1NDgwOTkyNTY3NDA4NjAwMA"},"resourceType":"Observation","status":"final","subject":{"reference":"Patient/00ba2d77-4512-45d0-b58c-82ee3161b00e"},"valueQuantity":{"code":"mg/dL","system":"http://unitsofmeasure.org","unit":"mg/dL","value":94.92451795685638}}},{"resource":{"category":[{"coding":[{"code":"laboratory","display":"laboratory","system":"http://hl7.org/fhir/observation-category"}]}],"code":{"coding":[{"code":"6299-2","display":"Urea Nitrogen","system":"http://loinc.org"}],"text":"Urea Nitrogen"},"context":{"reference":"Encounter/ca571824-6b9a-4c33-95c5-aa82391dd88a"},"effectiveDateTime":"2011-10-30T08:24:53-04:00","id":"0467bb77-2cfe-4c69-b86d-9cd65d51cff9","issued":"2011-10-30T08:24:53.240-04:00","meta":{"lastUpdated":"2019-04-09T11:38:36.425830+00:00","versionId":"MTU1NDgwOTkxNjQyNTgzMDAwMA"},"resourceType":"Observation","status":"final","subject":{"reference":"Patient/00ba2d77-4512-45d0-b58c-82ee3161b00e"},"valueQuantity":{"code":"mg/dL","system":"http://unitsofmeasure.org","unit":"mg/dL","value":18.681268122122766}}},{"resource":{"category":[{"coding":[{"code":"laboratory","display":"laboratory","system":"http://hl7.org/fhir/observation-category"}]}],"code":{"coding":[{"code":"2085-9","display":"High Density Lipoprotein Cholesterol","system":"http://loinc.org"}],"text":"High Density Lipoprotein Cholesterol"},"context":{"reference":"Encounter/3111236c-b934-4ba5-8d2b-28d71c7366b9"},"effectiveDateTime":"2015-09-02T08:24:53-04:00","id":"048ea60e-a5d2-40f6-90f9-3cffcb160eaf","issued":"2015-09-02T08:24:53.240-04:00","meta":{"lastUpdated":"2019-04-09T11:38:42.615750+00:00","versionId":"MTU1NDgwOTkyMjYxNTc1MDAwMA"},"resourceType":"Observation","status":"final","subject":{"reference":"Patient/00ba2d77-4512-45d0-b58c-82ee3161b00e"},"valueQuantity":{"code":"mg/dL","system":"http://unitsofmeasure.org","unit":"mg/dL","value":48.039842237191195}}},{"resource":{"category":[{"coding":[{"code":"laboratory","display":"laboratory","system":"http://hl7.org/fhir/observation-category"}]}],"code":{"coding":[{"code":"2069-3","display":"Chloride","system":"http://loinc.org"}],"text":"Chloride"},"context":{"reference":"Encounter/e9be45b5-7c71-4054-ad2e-5ff3cd35550d"},"effectiveDateTime":"2017-12-10T07:24:53-05:00","id":"04a86fcc-f1ba-47ab-9df5-bf8e5296d898","issued":"2017-12-10T07:24:53.240-05:00","meta":{"lastUpdated":"2019-04-09T11:38:46.683284+00:00","versionId":"MTU1NDgwOTkyNjY4MzI4NDAwMA"},"resourceType":"Observation","status":"final","subject":{"reference":"Patient/00ba2d77-4512-45d0-b58c-82ee3161b00e"},"valueQuantity":{"code":"mmol/L","system":"http://unitsofmeasure.org","unit":"mmol/L","value":104.40152018745607}}},{"resource":{"category":[{"coding":[{"code":"laboratory","display":"laboratory","system":"http://hl7.org/fhir/observation-category"}]}],"code":{"coding":[{"code":"2339-0","display":"Glucose","system":"http://loinc.org"}],"text":"Glucose"},"context":{"reference":"Encounter/d040d467-55a8-4786-93e9-52cff99788a9"},"effectiveDateTime":"2018-12-16T07:24:53-05:00","id":"04dfdb57-454f-472d-9d40-eadd6d7d2556","issued":"2018-12-16T07:24:53.240-05:00","meta":{"lastUpdated":"2019-04-09T11:38:47.768587+00:00","versionId":"MTU1NDgwOTkyNzc2ODU4NzAwMA"},"resourceType":"Observation","status":"final","subject":{"reference":"Patient/00ba2d77-4512-45d0-b58c-82ee3161b00e"},"valueQuantity":{"code":"mg/dL","system":"http://unitsofmeasure.org","unit":"mg/dL","value":68.36764439534554}}},{"resource":{"category":[{"coding":[{"code":"laboratory","display":"laboratory","system":"http://hl7.org/fhir/observation-category"}]}],"code":{"coding":[{"code":"2339-0","display":"Glucose","system":"http://loinc.org"}],"text":"Glucose"},"context":{"reference":"Encounter/b5cada8a-f282-40db-a8e9-71c5dd3a33f7"},"effectiveDateTime":"2016-09-01T08:24:53-04:00","id":"050d6a18-dd85-44ca-9a74-2ce305e58886","issued":"2016-09-01T08:24:53.240-04:00","meta":{"lastUpdated":"2019-04-09T11:38:44.648448+00:00","versionId":"MTU1NDgwOTkyNDY0ODQ0ODAwMA"},"resourceType":"Observation","status":"final","subject":{"reference":"Patient/00ba2d77-4512-45d0-b58c-82ee3161b00e"},"valueQuantity":{"code":"mg/dL","system":"http://unitsofmeasure.org","unit":"mg/dL","value":67.24219622998841}}},{"resource":{"category":[{"coding":[{"code":"laboratory","display":"laboratory","system":"http://hl7.org/fhir/observation-category"}]}],"code":{"coding":[{"code":"2885-2","display":"Protein [Mass/volume] in Serum or Plasma","system":"http://loinc.org"}],"text":"Protein [Mass/volume] in Serum or Plasma"},"context":{"reference":"Encounter/824ce325-e5ab-443f-9ce8-4c014da6fe36"},"effectiveDateTime":"2011-09-03T08:24:53-04:00","id":"05cf1aa4-19be-4ce4-930b-fec9548ea7c2","issued":"2011-09-03T08:24:53.240-04:00","meta":{"lastUpdated":"2019-04-09T11:38:35.405173+00:00","versionId":"MTU1NDgwOTkxNTQwNTE3MzAwMA"},"resourceType":"Observation","status":"final","subject":{"reference":"Patient/00ba2d77-4512-45d0-b58c-82ee3161b00e"},"valueQuantity":{"code":"g/dL","system":"http://unitsofmeasure.org","unit":"g/dL","value":66.55234528425831}}},{"resource":{"category":[{"coding":[{"code":"laboratory","display":"laboratory","system":"http://hl7.org/fhir/observation-category"}]}],"code":{"coding":[{"code":"49765-1","display":"Calcium","system":"http://loinc.org"}],"text":"Calcium"},"context":{"reference":"Encounter/f36513cc-cff9-4935-9ccb-cead1baf1f52"},"effectiveDateTime":"2014-09-02T08:24:53-04:00","id":"062f35df-4c91-4ca7-a988-b5fe6bd8b599","issued":"2014-09-02T08:24:53.240-04:00","meta":{"lastUpdated":"2019-04-09T11:38:40.545955+00:00","versionId":"MTU1NDgwOTkyMDU0NTk1NTAwMA"},"resourceType":"Observation","status":"final","subject":{"reference":"Patient/00ba2d77-4512-45d0-b58c-82ee3161b00e"},"valueQuantity":{"code":"mg/dL","system":"http://unitsofmeasure.org","unit":"mg/dL","value":9.52788561249757}}},{"resource":{"category":[{"coding":[{"code":"laboratory","display":"laboratory","system":"http://hl7.org/fhir/observation-category"}]}],"code":{"coding":[{"code":"18262-6","display":"Low Density Lipoprotein Cholesterol","system":"http://loinc.org"}],"text":"Low Density Lipoprotein Cholesterol"},"context":{"reference":"Encounter/3111236c-b934-4ba5-8d2b-28d71c7366b9"},"effectiveDateTime":"2015-09-02T08:24:53-04:00","id":"064ac574-28fe-4206-b8a3-06cb08bdc199","issued":"2015-09-02T08:24:53.240-04:00","meta":{"lastUpdated":"2019-04-09T11:38:42.615749+00:00","versionId":"MTU1NDgwOTkyMjYxNTc0OTAwMA"},"resourceType":"Observation","status":"final","subject":{"reference":"Patient/00ba2d77-4512-45d0-b58c-82ee3161b00e"},"valueQuantity":{"code":"mg/dL","system":"http://unitsofmeasure.org","unit":"mg/dL","value":86.28058746182731}}},{"resource":{"category":[{"coding":[{"code":"laboratory","display":"laboratory","system":"http://hl7.org/fhir/observation-category"}]}],"code":{"coding":[{"code":"38483-4","display":"Creatinine","system":"http://loinc.org"}],"text":"Creatinine"},"context":{"reference":"Encounter/f36513cc-cff9-4935-9ccb-cead1baf1f52"},"effectiveDateTime":"2014-09-02T08:24:53-04:00","id":"06ad3c65-830c-48f1-8ee8-2a7b562f3c16","issued":"2014-09-02T08:24:53.240-04:00","meta":{"lastUpdated":"2019-04-09T11:38:40.545954+00:00","versionId":"MTU1NDgwOTkyMDU0NTk1NDAwMA"},"resourceType":"Observation","status":"final","subject":{"reference":"Patient/00ba2d77-4512-45d0-b58c-82ee3161b00e"},"valueQuantity":{"code":"mg/dL","system":"http://unitsofmeasure.org","unit":"mg/dL","value":2.7124166241903627}}},{"resource":{"category":[{"coding":[{"code":"laboratory","display":"laboratory","system":"http://hl7.org/fhir/observation-category"}]}],"code":{"coding":[{"code":"4548-4","display":"Hemoglobin A1c/Hemoglobin.total in Blood","system":"http://loinc.org"}],"text":"Hemoglobin A1c/Hemoglobin.total in Blood"},"context":{"reference":"Encounter/62615645-67d2-4d99-aa3c-9c8af4e1f21d"},"effectiveDateTime":"2014-11-16T07:24:53-05:00","id":"0764ebf3-a9ee-4994-95fb-d7092b98287a","issued":"2014-11-16T07:24:53.240-05:00","meta":{"lastUpdated":"2019-04-09T11:38:41.590609+00:00","versionId":"MTU1NDgwOTkyMTU5MDYwOTAwMA"},"resourceType":"Observation","status":"final","subject":{"reference":"Patient/00ba2d77-4512-45d0-b58c-82ee3161b00e"},"valueQuantity":{"code":"%","system":"http://unitsofmeasure.org","unit":"%","value":6.39024966144053}}},{"resource":{"category":[{"coding":[{"code":"laboratory","display":"laboratory","system":"http://hl7.org/fhir/observation-category"}]}],"code":{"coding":[{"code":"1920-8","display":"Aspartate aminotransferase [Enzymatic activity/volume] in Serum or Plasma","system":"http://loinc.org"}],"text":"Aspartate aminotransferase [Enzymatic activity/volume] in Serum or Plasma"},"context":{"reference":"Encounter/853e4d39-4587-4b1c-b969-4dd2b78aea65"},"effectiveDateTime":"2017-09-01T08:24:53-04:00","id":"07ed84ae-e681-4f1a-a063-5978e7c0eb88","issued":"2017-09-01T08:24:53.240-04:00","meta":{"lastUpdated":"2019-04-09T11:38:45.674780+00:00","versionId":"MTU1NDgwOTkyNTY3NDc4MDAwMA"},"resourceType":"Observation","status":"final","subject":{"reference":"Patient/00ba2d77-4512-45d0-b58c-82ee3161b00e"},"valueQuantity":{"code":"U/L","system":"http://unitsofmeasure.org","unit":"U/L","value":33.318115043334416}}},{"resource":{"category":[{"coding":[{"code":"laboratory","display":"laboratory","system":"http://hl7.org/fhir/observation-category"}]}],"code":{"coding":[{"code":"20565-8","display":"Carbon Dioxide","system":"http://loinc.org"}],"text":"Carbon Dioxide"},"context":{"reference":"Encounter/b5cada8a-f282-40db-a8e9-71c5dd3a33f7"},"effectiveDateTime":"2016-09-01T08:24:53-04:00","id":"082cd32f-c207-4e74-9872-873510adb75b","issued":"2016-09-01T08:24:53.240-04:00","meta":{"lastUpdated":"2019-04-09T11:38:44.648720+00:00","versionId":"MTU1NDgwOTkyNDY0ODcyMDAwMA"},"resourceType":"Observation","status":"final","subject":{"reference":"Patient/00ba2d77-4512-45d0-b58c-82ee3161b00e"},"valueQuantity":{"code":"mmol/L","system":"http://unitsofmeasure.org","unit":"mmol/L","value":23.255142553522333}}},{"resource":{"category":[{"coding":[{"code":"laboratory","display":"laboratory","system":"http://hl7.org/fhir/observation-category"}]}],"code":{"coding":[{"code":"20565-8","display":"Carbon Dioxide","system":"http://loinc.org"}],"text":"Carbon Dioxide"},"context":{"reference":"Encounter/f8f745a5-8c77-425e-a529-ad16ef5873f6"},"effectiveDateTime":"2018-09-01T08:24:53-04:00","id":"08343fff-0b44-4b0b-9d87-b1277ae0f55a","issued":"2018-09-01T08:24:53.240-04:00","meta":{"lastUpdated":"2019-04-09T11:38:47.767070+00:00","versionId":"MTU1NDgwOTkyNzc2NzA3MDAwMA"},"resourceType":"Observation","status":"final","subject":{"reference":"Patient/00ba2d77-4512-45d0-b58c-82ee3161b00e"},"valueQuantity":{"code":"mmol/L","system":"http://unitsofmeasure.org","unit":"mmol/L","value":20.40396762105817}}},{"resource":{"category":[{"coding":[{"code":"vital-signs","display":"vital-signs","system":"http://hl7.org/fhir/observation-category"}]}],"code":{"coding":[{"code":"8302-2","display":"Body Height","system":"http://loinc.org"}],"text":"Body Height"},"context":{"reference":"Encounter/83ef2b65-0b42-4872-a505-6b2f9e463831"},"effectiveDateTime":"2016-12-04T07:24:53-05:00","id":"08b1193e-a997-47b0-b528-fce2eac178a3","issued":"2016-12-04T07:24:53.240-05:00","meta":{"lastUpdated":"2019-04-09T11:38:44.649061+00:00","versionId":"MTU1NDgwOTkyNDY0OTA2MTAwMA"},"resourceType":"Observation","status":"final","subject":{"reference":"Patient/00ba2d77-4512-45d0-b58c-82ee3161b00e"},"valueQuantity":{"code":"cm","system":"http://unitsofmeasure.org","unit":"cm","value":169.7360511804604}}},{"resource":{"category":[{"coding":[{"code":"laboratory","display":"laboratory","system":"http://hl7.org/fhir/observation-category"}]}],"code":{"coding":[{"code":"38483-4","display":"Creatinine","system":"http://loinc.org"}],"text":"Creatinine"},"context":{"reference":"Encounter/2a7e0665-ae76-4a43-949d-9e68f5a92f8c"},"effectiveDateTime":"2015-11-29T07:24:53-05:00","id":"08b7e88c-4b30-485c-8fda-7d77905bc201","issued":"2015-11-29T07:24:53.240-05:00","meta":{"lastUpdated":"2019-04-09T11:38:43.635910+00:00","versionId":"MTU1NDgwOTkyMzYzNTkxMDAwMA"},"resourceType":"Observation","status":"final","subject":{"reference":"Patient/00ba2d77-4512-45d0-b58c-82ee3161b00e"},"valueQuantity":{"code":"mg/dL","system":"http://unitsofmeasure.org","unit":"mg/dL","value":0.4395584274123478}}},{"resource":{"category":[{"coding":[{"code":"vital-signs","display":"vital-signs","system":"http://hl7.org/fhir/observation-category"}]}],"code":{"coding":[{"code":"29463-7","display":"Body Weight","system":"http://loinc.org"}],"text":"Body Weight"},"context":{"reference":"Encounter/d040d467-55a8-4786-93e9-52cff99788a9"},"effectiveDateTime":"2018-12-16T07:24:53-05:00","id":"08e5cad2-4084-4294-a9fd-d9c2ed17e589","issued":"2018-12-16T07:24:53.240-05:00","meta":{"lastUpdated":"2019-04-09T11:38:47.768589+00:00","versionId":"MTU1NDgwOTkyNzc2ODU4OTAwMA"},"resourceType":"Observation","status":"final","subject":{"reference":"Patient/00ba2d77-4512-45d0-b58c-82ee3161b00e"},"valueQuantity":{"code":"kg","system":"http://unitsofmeasure.org","unit":"kg","value":58.358367376129365}}},{"resource":{"category":[{"coding":[{"code":"survey","display":"survey","system":"http://hl7.org/fhir/observation-category"}]}],"code":{"coding":[{"code":"72166-2","display":"Tobacco smoking status NHIS","system":"http://loinc.org"}],"text":"Tobacco smoking status NHIS"},"context":{"reference":"Encounter/7d401114-351e-4b6f-a04c-9e9d0104e90a"},"effectiveDateTime":"2009-10-18T08:24:53-04:00","id":"0a9091a9-eb19-41fe-bb37-9763883e0d6a","issued":"2009-10-18T08:24:53.240-04:00","meta":{"lastUpdated":"2019-04-09T11:38:34.391834+00:00","versionId":"MTU1NDgwOTkxNDM5MTgzNDAwMA"},"resourceType":"Observation","status":"final","subject":{"reference":"Patient/00ba2d77-4512-45d0-b58c-82ee3161b00e"},"valueCodeableConcept":{"coding":[{"code":"266919005","display":"Never smoker","system":"http://snomed.info/sct"}],"text":"Never smoker"}}},{"resource":{"category":[{"coding":[{"code":"vital-signs","display":"vital-signs","system":"http://hl7.org/fhir/observation-category"}]}],"code":{"coding":[{"code":"29463-7","display":"Body Weight","system":"http://loinc.org"}],"text":"Body Weight"},"context":{"reference":"Encounter/94408aae-49da-47a9-924c-c478d16c998b"},"effectiveDateTime":"2015-11-22T07:24:53-05:00","id":"0b7a5ee9-1aba-4685-8662-0f6994802d47","issued":"2015-11-22T07:24:53.240-05:00","meta":{"lastUpdated":"2019-04-09T11:38:42.641170+00:00","versionId":"MTU1NDgwOTkyMjY0MTE3MDAwMA"},"resourceType":"Observation","status":"final","subject":{"reference":"Patient/00ba2d77-4512-45d0-b58c-82ee3161b00e"},"valueQuantity":{"code":"kg","system":"http://unitsofmeasure.org","unit":"kg","value":62.05530739939028}}}],"link":[{"url":"https://syntheticmass.mitre.org/v1/fhir/Patient/00ba2d77-4512-45d0-b58c-82ee3161b00e/$everything?_count=100&page_token=CoIBcHJvamVjdHMvc3ludGhlYS9sb2NhdGlvbnMvdXMtY2VudHJhbDEvZGF0YXNldHMvMjAxOTAyL2ZoaXJTdG9yZXMvc3ludGhldGljLW1hc3MvZmhpci9QYXRpZW50LzAwYmEyZDc3LTQ1MTItNDVkMC1iNThjLTgyZWUzMTYxYjAwZSBk","relation":"previous"},{"url":"https://syntheticmass.mitre.org/v1/fhir/Patient/00ba2d77-4512-45d0-b58c-82ee3161b00e/$everything?_count=100&page_token=CoIBcHJvamVjdHMvc3ludGhlYS9sb2NhdGlvbnMvdXMtY2VudHJhbDEvZGF0YXNldHMvMjAxOTAyL2ZoaXJTdG9yZXMvc3ludGhldGljLW1hc3MvZmhpci9QYXRpZW50LzAwYmEyZDc3LTQ1MTItNDVkMC1iNThjLTgyZWUzMTYxYjAwZSCsAg%3D%3D","relation":"next"}],"total":682}
