{"resourceType":"Bundle","type":"searchset","entry":[{"resource":{"billablePeriod":{"end":"2018-02-08T18:50:28-05:00","start":"2018-02-08T18:35:28-05:00"},"diagnosis":[{"diagnosisReference":{"reference":"Condition/1fff36f6-9432-421b-80a3-0df2f8180872"},"sequence":1}],"id":"e25cfaa7-e4d7-439e-b941-6af5ca8eb934","item":[{"encounter":[{"reference":"Encounter/410c0564-5669-4492-981e-c002031844f3"}],"sequence":1},{"diagnosisLinkId":[1],"sequence":2}],"meta":{"lastUpdated":"2019-04-09T11:16:27.927819+00:00","versionId":"MTU1NDgwODU4NzkyNzgxOTAwMA"},"organization":{"reference":"Organization/c5136ece-f137-44f5-b4b4-62510a27899f"},"patient":{"reference":"Patient/00a5d6b5-eb25-4554-a65e-afc2a82a238d"},"resourceType":"Claim","status":"active","total":{"code":"USD","system":"urn:iso:std:iso:4217","value":125},"use":"complete"}},{"resource":{"billablePeriod":{"end":"1992-07-26T19:50:28-04:00","start":"1992-07-26T19:35:28-04:00"},"id":"e584a93b-3bb4-4eb1-88c7-35c334b51424","item":[{"encounter":[{"reference":"Encounter/b6dc4623-cd9c-4e24-af5e-61e602889fb2"}],"sequence":1}],"meta":{"lastUpdated":"2019-04-09T11:16:22.813929+00:00","versionId":"MTU1NDgwODU4MjgxMzkyOTAwMA"},"organization":{"reference":"Organization/c5136ece-f137-44f5-b4b4-62510a27899f"},"patient":{"reference":"Patient/00a5d6b5-eb25-4554-a65e-afc2a82a238d"},"resourceType":"Claim","status":"active","total":{"code":"USD","system":"urn:iso:std:iso:4217","value":125},"use":"complete"}},{"resource":{"billablePeriod":{"end":"2013-07-21T19:50:28-04:00","start":"2013-07-21T19:35:28-04:00"},"id":"e6a30018-105b-428f-aa62-96a3207076fc","item":[{"encounter":[{"reference":"Encounter/d717ea92-727a-4913-9813-a450a67fdd84"}],"sequence":1}],"meta":{"lastUpdated":"2019-04-09T11:16:25.877118+00:00","versionId":"MTU1NDgwODU4NTg3NzExODAwMA"},"organization":{"reference":"Organization/c5136ece-f137-44f5-b4b4-62510a27899f"},"patient":{"reference":"Patient/00a5d6b5-eb25-4554-a65e-afc2a82a238d"},"resourceType":"Claim","status":"active","total":{"code":"USD","system":"urn:iso:std:iso:4217","value":125},"use":"complete"}},{"resource":{"billablePeriod":{"end":"1997-07-25T19:50:28-04:00","start":"1997-07-25T19:35:28-04:00"},"id":"e85b7011-f227-43bc-89a4-82f95d288a11","item":[{"encounter":[{"reference":"Encounter/3251ba0b-7357-42e9-8cd0-e1101c83af70"}],"sequence":1}],"meta":{"lastUpdated":"2019-04-09T11:16:22.812542+00:00","versionId":"MTU1NDgwODU4MjgxMjU0MjAwMA"},"organization":{"reference":"Organization/c5136ece-f137-44f5-b4b4-62510a27899f"},"patient":{"reference":"Patient/00a5d6b5-eb25-4554-a65e-afc2a82a238d"},"prescription":{"reference":"MedicationRequest/fb71497b-ba4a-4427-94a2-968792a13ae5"},"resourceType":"Claim","status":"active","total":{"code":"USD","system":"urn:iso:std:iso:4217","value":255},"use":"complete"}},{"resource":{"billablePeriod":{"end":"1978-07-24T20:35:28-04:00","start":"1978-07-24T19:35:28-04:00"},"diagnosis":[{"diagnosisReference":{"reference":"Condition/b2a6d541-48a2-4477-b4aa-2a20c9a8f2f7"},"sequence":1}],"id":"e9682232-1cdb-477e-bc32-1cd56d350891","item":[{"encounter":[{"reference":"Encounter/0e05b0ef-c06e-4b01-91c6-8828933ec85f"}],"sequence":1},{"diagnosisLinkId":[1],"sequence":2}],"meta":{"lastUpdated":"2019-04-09T11:16:22.813923+00:00","versionId":"MTU1NDgwODU4MjgxMzkyMzAwMA"},"organization":{"reference":"Organization/c5136ece-f137-44f5-b4b4-62510a27899f"},"patient":{"reference":"Patient/00a5d6b5-eb25-4554-a65e-afc2a82a238d"},"resourceType":"Claim","status":"active","total":{"code":"USD","system":"urn:iso:std:iso:4217","value":125},"use":"complete"}},{"resource":{"billablePeriod":{"end":"2016-07-20T19:50:28-04:00","start":"2016-07-20T19:35:28-04:00"},"id":"e98c4851-38b1-4d5a-bd1d-ab5dbb47619e","item":[{"encounter":[{"reference":"Encounter/2d9aed29-c0f5-4cb9-9e96-0a7eea95c854"}],"sequence":1}],"meta":{"lastUpdated":"2019-04-09T11:16:26.878237+00:00","versionId":"MTU1NDgwODU4Njg3ODIzNzAwMA"},"organization":{"reference":"Organization/c5136ece-f137-44f5-b4b4-62510a27899f"},"patient":{"reference":"Patient/00a5d6b5-eb25-4554-a65e-afc2a82a238d"},"resourceType":"Claim","status":"active","total":{"code":"USD","system":"urn:iso:std:iso:4217","value":125},"use":"complete"}},{"resource":{"billablePeriod":{"end":"2002-07-24T19:50:28-04:00","start":"2002-07-24T19:35:28-04:00"},"id":"f32cdd9a-9aaa-4432-86af-a0c7c4d24075","item":[{"encounter":[{"reference":"Encounter/9e5c17ab-ff56-4a6a-85a6-01d5c1c2cf71"}],"sequence":1}],"meta":{"lastUpdated":"2019-04-09T11:16:22.839498+00:00","versionId":"MTU1NDgwODU4MjgzOTQ5ODAwMA"},"organization":{"reference":"Organization/c5136ece-f137-44f5-b4b4-62510a27899f"},"patient":{"reference":"Patient/00a5d6b5-eb25-4554-a65e-afc2a82a238d"},"resourceType":"Claim","status":"active","total":{"code":"USD","system":"urn:iso:std:iso:4217","value":125},"use":"complete"}},{"resource":{"billablePeriod":{"end":"2012-08-19T19:50:28-04:00","start":"2012-08-19T19:35:28-04:00"},"id":"f3feeb8e-cdbe-4516-b42d-ed03a3cacf17","item":[{"encounter":[{"reference":"Encounter/29ad8815-aece-482b-aa38-a02058bbbbf8"}],"sequence":1}],"meta":{"lastUpdated":"2019-04-09T11:16:24.888039+00:00","versionId":"MTU1NDgwODU4NDg4ODAzOTAwMA"},"organization":{"reference":"Organization/c5136ece-f137-44f5-b4b4-62510a27899f"},"patient":{"reference":"Patient/00a5d6b5-eb25-4554-a65e-afc2a82a238d"},"prescription":{"reference":"MedicationRequest/d3823426-d830-4211-affa-53fc2f96315c"},"resourceType":"Claim","status":"active","total":{"code":"USD","system":"urn:iso:std:iso:4217","value":255},"use":"complete"}},{"resource":{"billablePeriod":{"end":"1973-05-05T20:48:28-04:00","start":"1973-05-05T19:35:28-04:00"},"diagnosis":[{"diagnosisReference":{"reference":"Condition/f89f10d2-8a46-4023-8963-3873ede5996a"},"sequence":1}],"id":"f9cce7dc-7560-4e8d-8242-16c8f2555982","item":[{"encounter":[{"reference":"Encounter/d681837f-50de-4217-9763-feb8efd84802"}],"sequence":1},{"diagnosisLinkId":[1],"sequence":2}],"meta":{"lastUpdated":"2019-04-09T11:16:22.823650+00:00","versionId":"MTU1NDgwODU4MjgyMzY1MDAwMA"},"organization":{"reference":"Organization/c5136ece-f137-44f5-b4b4-62510a27899f"},"patient":{"reference":"Patient/00a5d6b5-eb25-4554-a65e-afc2a82a238d"},"resourceType":"Claim","status":"active","total":{"code":"USD","system":"urn:iso:std:iso:4217","value":125},"use":"complete"}},{"resource":{"billablePeriod":{"end":"2010-11-22T19:20:28-05:00","start":"2010-11-22T18:35:28-05:00"},"id":"fc0c3583-a835-4a51-a0b5-7e8500f09352","information":[{"category":{"coding":[{"code":"info","system":"http://hl7.org/fhir/claiminformationcategory"}]},"sequence":1,"valueReference":{"reference":"Immunization/50738289-fe00-4af5-aa36-b04b27d01943"}}],"item":[{"encounter":[{"reference":"Encounter/7603de6f-8715-420f-b770-1b52aa7903b3"}],"sequence":1},{"net":{"code":"USD","system":"urn:iso:std:iso:4217","value":45012.22},"procedureLinkId":[1],"sequence":2,"service":{"coding":[{"code":"180325003","system":"http://snomed.info/sct","version":"v1"}]}},{"informationLinkId":[1],"net":{"code":"USD","system":"urn:iso:std:iso:4217","value":140.52},"sequence":3},{"net":{"code":"USD","system":"urn:iso:std:iso:4217","value":797.91},"procedureLinkId":[2],"sequence":4,"service":{"coding":[{"code":"428191000124101","system":"http://snomed.info/sct","version":"v1"}]}}],"meta":{"lastUpdated":"2019-04-09T11:16:23.980876+00:00","versionId":"MTU1NDgwODU4Mzk4MDg3NjAwMA"},"organization":{"reference":"Organization/c5136ece-f137-44f5-b4b4-62510a27899f"},"patient":{"reference":"Patient/00a5d6b5-eb25-4554-a65e-afc2a82a238d"},"procedure":[{"procedureReference":{"reference":"Procedure/c1713287-108e-4404-b840-ddd46003edb2"},"sequence":1},{"procedureReference":{"reference":"Procedure/1c392259-f546-43a9-ad63-a1bfc427a033"},"sequence":2}],"resourceType":"Claim","status":"active","total":{"code":"USD","system":"urn:iso:std:iso:4217","value":46075.65},"use":"complete"}},{"resource":{"billablePeriod":{"end":"2005-07-23T19:50:28-04:00","start":"2005-07-23T19:35:28-04:00"},"id":"fe052c51-9ee1-45cb-86e3-4c1122041d8f","item":[{"encounter":[{"reference":"Encounter/8078c34c-66b2-4d5a-a5cc-62bee4d9c2bf"}],"sequence":1}],"meta":{"lastUpdated":"2019-04-09T11:16:23.909631+00:00","versionId":"MTU1NDgwODU4MzkwOTYzMTAwMA"},"organization":{"reference":"Organization/c5136ece-f137-44f5-b4b4-62510a27899f"},"patient":{"reference":"Patient/00a5d6b5-eb25-4554-a65e-afc2a82a238d"},"prescription":{"reference":"MedicationRequest/20f4f0a4-27e8-4b45-b3d0-8570852747bb"},"resourceType":"Claim","status":"active","total":{"code":"USD","system":"urn:iso:std:iso:4217","value":255},"use":"complete"}},{"resource":{"assertedDate":"1962-04-25T18:35:28-05:00","clinicalStatus":"active","code":{"coding":[{"code":"239873007","display":"Osteoarthritis of knee","system":"http://snomed.info/sct"}],"text":"Osteoarthritis of knee"},"context":{"reference":"Encounter/e86a7cd2-c01f-4665-88d8-a9330dcc2679"},"id":"0e559060-caa8-4405-a29e-a32873562f23","meta":{"lastUpdated":"2019-04-09T11:16:22.817568+00:00","versionId":"MTU1NDgwODU4MjgxNzU2ODAwMA"},"onsetDateTime":"1962-04-25T18:35:28-05:00","resourceType":"Condition","subject":{"reference":"Patient/00a5d6b5-eb25-4554-a65e-afc2a82a238d"},"verificationStatus":"confirmed"}},{"resource":{"assertedDate":"1963-09-30T19:35:28-04:00","clinicalStatus":"active","code":{"coding":[{"code":"408512008","display":"Body mass index 40+ - severely obese (finding)","system":"http://snomed.info/sct"}],"text":"Body mass index 40+ - severely obese (finding)"},"context":{"reference":"Encounter/67973657-2949-440a-a092-d11a84f40814"},"id":"1944fd74-03bd-4099-be0c-5fadea5f870a","meta":{"lastUpdated":"2019-04-09T11:16:22.809065+00:00","versionId":"MTU1NDgwODU4MjgwOTA2NTAwMA"},"onsetDateTime":"1963-09-30T19:35:28-04:00","resourceType":"Condition","subject":{"reference":"Patient/00a5d6b5-eb25-4554-a65e-afc2a82a238d"},"verificationStatus":"confirmed"}},{"resource":{"abatementDateTime":"2018-02-21T18:35:28-05:00","assertedDate":"2018-02-08T18:35:28-05:00","clinicalStatus":"resolved","code":{"coding":[{"code":"195662009","display":"Acute viral pharyngitis (disorder)","system":"http://snomed.info/sct"}],"text":"Acute viral pharyngitis (disorder)"},"context":{"reference":"Encounter/410c0564-5669-4492-981e-c002031844f3"},"id":"1fff36f6-9432-421b-80a3-0df2f8180872","meta":{"lastUpdated":"2019-04-09T11:16:27.926184+00:00","versionId":"MTU1NDgwODU4NzkyNjE4NDAwMA"},"onsetDateTime":"2018-02-08T18:35:28-05:00","resourceType":"Condition","subject":{"reference":"Patient/00a5d6b5-eb25-4554-a65e-afc2a82a238d"},"verificationStatus":"confirmed"}},{"resource":{"assertedDate":"1986-07-07T19:35:28-04:00","clinicalStatus":"active","code":{"coding":[{"code":"55822004","display":"Hyperlipidemia","system":"http://snomed.info/sct"}],"text":"Hyperlipidemia"},"context":{"reference":"Encounter/544b096b-7f14-4a98-a6f4-d871041cf15f"},"id":"2ee892e2-736a-4c96-849a-c6db373b856a","meta":{"lastUpdated":"2019-04-09T11:16:22.813920+00:00","versionId":"MTU1NDgwODU4MjgxMzkyMDAwMA"},"onsetDateTime":"1986-07-07T19:35:28-04:00","resourceType":"Condition","subject":{"reference":"Patient/00a5d6b5-eb25-4554-a65e-afc2a82a238d"},"verificationStatus":"confirmed"}},{"resource":{"assertedDate":"1974-07-29T19:35:28-04:00","clinicalStatus":"active","code":{"coding":[{"code":"713197008","display":"Recurrent rectal polyp","system":"http://snomed.info/sct"}],"text":"Recurrent rectal polyp"},"context":{"reference":"Encounter/349b67ea-b879-418b-a43e-42856b687f9c"},"id":"3aa5b2df-86cb-4b6d-ba38-9a8bd4953e7a","meta":{"lastUpdated":"2019-04-09T11:16:22.813910+00:00","versionId":"MTU1NDgwODU4MjgxMzkxMDAwMA"},"onsetDateTime":"1974-07-29T19:35:28-04:00","resourceType":"Condition","subject":{"reference":"Patient/00a5d6b5-eb25-4554-a65e-afc2a82a238d"},"verificationStatus":"confirmed"}},{"resource":{"assertedDate":"1970-03-30T18:35:28-05:00","clinicalStatus":"active","code":{"coding":[{"code":"15777000","display":"Prediabetes","system":"http://snomed.info/sct"}],"text":"Prediabetes"},"context":{"reference":"Encounter/131fd8de-3fcb-4c0f-a130-5daa3f565339"},"id":"43e3d1d6-c826-4561-a06d-9138a80e7fa8","meta":{"lastUpdated":"2019-04-09T11:16:22.813916+00:00","versionId":"MTU1NDgwODU4MjgxMzkxNjAwMA"},"onsetDateTime":"1970-03-30T18:35:28-05:00","resourceType":"Condition","subject":{"reference":"Patient/00a5d6b5-eb25-4554-a65e-afc2a82a238d"},"verificationStatus":"confirmed"}},{"resource":{"abatementDateTime":"2013-05-01T19:35:28-04:00","assertedDate":"2013-04-19T19:35:28-04:00","clinicalStatus":"resolved","code":{"coding":[{"code":"43878008","display":"Streptococcal sore throat (disorder)","system":"http://snomed.info/sct"}],"text":"Streptococcal sore throat (disorder)"},"context":{"reference":"Encounter/1878fe52-d478-4a23-a3f9-c656583f1869"},"id":"79b525d4-ca3a-4234-8fcf-e408fd193320","meta":{"lastUpdated":"2019-04-09T11:16:24.881299+00:00","versionId":"MTU1NDgwODU4NDg4MTI5OTAwMA"},"onsetDateTime":"2013-04-19T19:35:28-04:00","resourceType":"Condition","subject":{"reference":"Patient/00a5d6b5-eb25-4554-a65e-afc2a82a238d"},"verificationStatus":"confirmed"}},{"resource":{"assertedDate":"1978-07-24T19:35:28-04:00","clinicalStatus":"active","code":{"coding":[{"code":"64859006","display":"Osteoporosis (disorder)","system":"http://snomed.info/sct"}],"text":"Osteoporosis (disorder)"},"context":{"reference":"Encounter/0e05b0ef-c06e-4b01-91c6-8828933ec85f"},"id":"b2a6d541-48a2-4477-b4aa-2a20c9a8f2f7","meta":{"lastUpdated":"2019-04-09T11:16:22.817858+00:00","versionId":"MTU1NDgwODU4MjgxNzg1ODAwMA"},"onsetDateTime":"1978-07-24T19:35:28-04:00","resourceType":"Condition","subject":{"reference":"Patient/00a5d6b5-eb25-4554-a65e-afc2a82a238d"},"verificationStatus":"confirmed"}},{"resource":{"abatementDateTime":"2010-10-31T19:35:28-04:00","assertedDate":"2010-10-22T19:35:28-04:00","clinicalStatus":"resolved","code":{"coding":[{"code":"43878008","display":"Streptococcal sore throat (disorder)","system":"http://snomed.info/sct"}],"text":"Streptococcal sore throat (disorder)"},"context":{"reference":"Encounter/18985bee-93d6-4ddf-a1f7-a2957c8c2e96"},"id":"c0ecf4da-00ae-440a-a416-060cc7b347ba","meta":{"lastUpdated":"2019-04-09T11:16:23.955282+00:00","versionId":"MTU1NDgwODU4Mzk1NTI4MjAwMA"},"onsetDateTime":"2010-10-22T19:35:28-04:00","resourceType":"Condition","subject":{"reference":"Patient/00a5d6b5-eb25-4554-a65e-afc2a82a238d"},"verificationStatus":"confirmed"}},{"resource":{"abatementDateTime":"2012-09-02T19:35:28-04:00","assertedDate":"2012-08-19T19:35:28-04:00","clinicalStatus":"resolved","code":{"coding":[{"code":"444814009","display":"Viral sinusitis (disorder)","system":"http://snomed.info/sct"}],"text":"Viral sinusitis (disorder)"},"context":{"reference":"Encounter/29ad8815-aece-482b-aa38-a02058bbbbf8"},"id":"c969e3ff-5bf9-4e29-97d5-be5391444268","meta":{"lastUpdated":"2019-04-09T11:16:24.883365+00:00","versionId":"MTU1NDgwODU4NDg4MzM2NTAwMA"},"onsetDateTime":"2012-08-19T19:35:28-04:00","resourceType":"Condition","subject":{"reference":"Patient/00a5d6b5-eb25-4554-a65e-afc2a82a238d"},"verificationStatus":"confirmed"}},{"resource":{"assertedDate":"1972-04-10T18:35:28-05:00","clinicalStatus":"active","code":{"coding":[{"code":"49436004","display":"Atrial Fibrillation","system":"http://snomed.info/sct"}],"text":"Atrial Fibrillation"},"context":{"reference":"Encounter/e800a6d9-b504-415c-a7f2-e859214e3228"},"id":"d1036413-52ee-427b-bbad-d3ba5d8aee9b","meta":{"lastUpdated":"2019-04-09T11:16:22.813918+00:00","versionId":"MTU1NDgwODU4MjgxMzkxODAwMA"},"onsetDateTime":"1972-04-10T18:35:28-05:00","resourceType":"Condition","subject":{"reference":"Patient/00a5d6b5-eb25-4554-a65e-afc2a82a238d"},"verificationStatus":"confirmed"}},{"resource":{"assertedDate":"1949-05-30T19:35:28-04:00","clinicalStatus":"active","code":{"coding":[{"code":"162864005","display":"Body mass index 30+ - obesity (finding)","system":"http://snomed.info/sct"}],"text":"Body mass index 30+ - obesity (finding)"},"context":{"reference":"Encounter/55e81d4b-ede3-4550-8119-af8ec7311663"},"id":"e2c1ec78-c216-4334-b790-6b12e67cb81b","meta":{"lastUpdated":"2019-04-09T11:16:22.794621+00:00","versionId":"MTU1NDgwODU4Mjc5NDYyMTAwMA"},"onsetDateTime":"1949-05-30T19:35:28-04:00","resourceType":"Condition","subject":{"reference":"Patient/00a5d6b5-eb25-4554-a65e-afc2a82a238d"},"verificationStatus":"confirmed"}},{"resource":{"assertedDate":"1998-06-01T19:35:28-04:00","clinicalStatus":"active","code":{"coding":[{"code":"230690007","display":"Stroke","system":"http://snomed.info/sct"}],"text":"Stroke"},"context":{"reference":"Encounter/9ed4d690-9f60-4c99-abe0-26a5399544c1"},"id":"e337451f-8a3f-4fb7-8b9c-f207330ff8e9","meta":{"lastUpdated":"2019-04-09T11:16:22.810942+00:00","versionId":"MTU1NDgwODU4MjgxMDk0MjAwMA"},"onsetDateTime":"1998-06-01T19:35:28-04:00","resourceType":"Condition","subject":{"reference":"Patient/00a5d6b5-eb25-4554-a65e-afc2a82a238d"},"verificationStatus":"confirmed"}},{"resource":{"assertedDate":"1973-05-05T19:35:28-04:00","clinicalStatus":"active","code":{"coding":[{"code":"68496003","display":"Polyp of colon","system":"http://snomed.info/sct"}],"text":"Polyp of colon"},"context":{"reference":"Encounter/d681837f-50de-4217-9763-feb8efd84802"},"id":"f89f10d2-8a46-4023-8963-3873ede5996a","meta":{"lastUpdated":"2019-04-09T11:16:22.813912+00:00","versionId":"MTU1NDgwODU4MjgxMzkxMjAwMA"},"onsetDateTime":"1973-05-05T19:35:28-04:00","resourceType":"Condition","subject":{"reference":"Patient/00a5d6b5-eb25-4554-a65e-afc2a82a238d"},"verificationStatus":"confirmed"}},{"resource":{"abatementDateTime":"2018-06-28T19:35:28-04:00","assertedDate":"2018-06-07T19:35:28-04:00","clinicalStatus":"resolved","code":{"coding":[{"code":"284551006","display":"Laceration of foot","system":"http://snomed.info/sct"}],"text":"Laceration of foot"},"context":{"reference":"Encounter/92f71a58-ba56-4841-86c9-a7d3642cc44b"},"id":"f9ae0e74-d7f5-4277-81c3-039c34c6cdb1","meta":{"lastUpdated":"2019-04-09T11:16:27.927459+00:00","versionId":"MTU1NDgwODU4NzkyNzQ1OTAwMA"},"onsetDateTime":"2018-06-07T19:35:28-04:00","resourceType":"Condition","subject":{"reference":"Patient/00a5d6b5-eb25-4554-a65e-afc2a82a238d"},"verificationStatus":"confirmed"}},{"resource":{"code":{"coding":[{"code":"57698-3","display":"Lipid Panel","system":"http://loinc.org"}],"text":"Lipid Panel"},"context":{"reference":"Encounter/2d9aed29-c0f5-4cb9-9e96-0a7eea95c854"},"effectiveDateTime":"2016-07-20T19:35:28-04:00","id":"02edc86d-c8eb-45d3-aa0b-ab7b722820d9","issued":"2016-07-20T19:35:28.486-04:00","meta":{"lastUpdated":"2019-04-09T11:16:26.898092+00:00","versionId":"MTU1NDgwODU4Njg5ODA5MjAwMA"},"resourceType":"DiagnosticReport","result":[{"display":"Total Cholesterol","reference":"Observation/b7877f14-f717-46e6-8344-2c642f9b6e76"},{"display":"Triglycerides","reference":"Observation/db63138b-533a-4047-9eeb-1b78f45eb5f6"},{"display":"Low Density Lipoprotein Cholesterol","reference":"Observation/a2df52a9-48e7-4bbb-bc6a-882ea961e797"},{"display":"High Density Lipoprotein Cholesterol","reference":"Observation/a7d742b0-25bd-4614-87dc-8701573d5f1b"}],"status":"final","subject":{"reference":"Patient/00a5d6b5-eb25-4554-a65e-afc2a82a238d"}}},{"resource":{"code":{"coding":[{"code":"57698-3","display":"Lipid Panel","system":"http://loinc.org"}],"text":"Lipid Panel"},"context":{"reference":"Encounter/48a7aa3e-e663-4ddf-afde-7dae717cc4fa"},"effectiveDateTime":"2018-05-28T19:35:28-04:00","id":"0a777d8f-a764-43ca-a601-d3940a8d44a2","issued":"2018-05-28T19:35:28.486-04:00","meta":{"lastUpdated":"2019-04-09T11:16:27.931579+00:00","versionId":"MTU1NDgwODU4NzkzMTU3OTAwMA"},"resourceType":"DiagnosticReport","result":[{"display":"Total Cholesterol","reference":"Observation/1e9fad66-7cc1-418b-93c1-c9c63496aaeb"},{"display":"Triglycerides","reference":"Observation/61a051aa-554b-4a80-be04-75409b7b22e4"},{"display":"Low Density Lipoprotein Cholesterol","reference":"Observation/4dbbb025-4358-4e94-8668-b529ca2dc5ac"},{"display":"High Density Lipoprotein Cholesterol","reference":"Observation/7d46eb37-de56-480d-b6aa-d525aee13072"}],"status":"final","subject":{"reference":"Patient/00a5d6b5-eb25-4554-a65e-afc2a82a238d"}}},{"resource":{"code":{"coding":[{"code":"57698-3","display":"Lipid Panel","system":"http://loinc.org"}],"text":"Lipid Panel"},"context":{"reference":"Encounter/0b32c236-8008-4ee5-9710-b40c1a66a9e6"},"effectiveDateTime":"2015-07-21T19:35:28-04:00","id":"0c1926ce-29fa-4e15-9db2-93598eef8a69","issued":"2015-07-21T19:35:28.486-04:00","meta":{"lastUpdated":"2019-04-09T11:16:26.891741+00:00","versionId":"MTU1NDgwODU4Njg5MTc0MTAwMA"},"resourceType":"DiagnosticReport","result":[{"display":"Total Cholesterol","reference":"Observation/e5227ca6-dfcc-4859-b633-3b8c6947f78d"},{"display":"Triglycerides","reference":"Observation/e8c36c39-452c-4185-af7a-3e659e32a469"},{"display":"Low Density Lipoprotein Cholesterol","reference":"Observation/9b6193d4-7969-414c-b336-139c6ff6ff81"},{"display":"High Density Lipoprotein Cholesterol","reference":"Observation/04b5ddfa-aaf5-4c54-806e-1d3b02f09b02"}],"status":"final","subject":{"reference":"Patient/00a5d6b5-eb25-4554-a65e-afc2a82a238d"}}},{"resource":{"code":{"coding":[{"code":"57698-3","display":"Lipid Panel","system":"http://loinc.org"}],"text":"Lipid Panel"},"context":{"reference":"Encounter/dde8043f-5141-4fcd-a12d-cc64332c1cb6"},"effectiveDateTime":"2009-07-22T19:35:28-04:00","id":"0f37e5b2-0592-4d45-a74e-b4dbc9ac1aa1","issued":"2009-07-22T19:35:28.486-04:00","meta":{"lastUpdated":"2019-04-09T11:16:23.976840+00:00","versionId":"MTU1NDgwODU4Mzk3Njg0MDAwMA"},"resourceType":"DiagnosticReport","result":[{"display":"Total Cholesterol","reference":"Observation/42790369-7968-4f98-922e-705e7818821c"},{"display":"Triglycerides","reference":"Observation/f8076e5d-b26f-48de-9a5d-fae0259aa5d9"},{"display":"Low Density Lipoprotein Cholesterol","reference":"Observation/70ed643c-4a7c-4e5e-989b-8d24fa67e69a"},{"display":"High Density Lipoprotein Cholesterol","reference":"Observation/72c89dbd-bed8-439e-8fca-d0b140d41781"}],"status":"final","subject":{"reference":"Patient/00a5d6b5-eb25-4554-a65e-afc2a82a238d"}}},{"resource":{"code":{"coding":[{"code":"51990-0","display":"Basic Metabolic Panel","system":"http://loinc.org"}],"text":"Basic Metabolic Panel"},"context":{"reference":"Encounter/0ecd3895-1159-4f28-aba3-db555617d277"},"effectiveDateTime":"2011-11-28T18:35:28-05:00","id":"10753a7a-ac8a-42eb-b0b6-72454e0de323","issued":"2011-11-28T18:35:28.486-05:00","meta":{"lastUpdated":"2019-04-09T11:16:24.884635+00:00","versionId":"MTU1NDgwODU4NDg4NDYzNTAwMA"},"resourceType":"DiagnosticReport","result":[{"display":"Glucose","reference":"Observation/5610eefd-f8af-485e-9dc8-fa1a2ddd01a4"},{"display":"Urea Nitrogen","reference":"Observation/2e9433cf-ac99-4f49-9473-ec65d99890ca"},{"display":"Creatinine","reference":"Observation/8a504a37-a733-4777-80a8-9f02b5234bc9"},{"display":"Calcium","reference":"Observation/23425b7f-85d9-4ade-a552-11b5a2ba91ca"},{"display":"Sodium","reference":"Observation/7a5c3ea4-84e5-45f6-b305-f3368165fea2"},{"display":"Potassium","reference":"Observation/e12f204c-cae2-4271-92fc-6b6309cf4997"},{"display":"Chloride","reference":"Observation/68e22cc4-6aaa-4342-9bc6-9234c85d513d"},{"display":"Carbon Dioxide","reference":"Observation/fc7a3e60-0d6d-4806-b86a-6c5012993d9e"}],"status":"final","subject":{"reference":"Patient/00a5d6b5-eb25-4554-a65e-afc2a82a238d"}}},{"resource":{"code":{"coding":[{"code":"51990-0","display":"Basic Metabolic Panel","system":"http://loinc.org"}],"text":"Basic Metabolic Panel"},"context":{"reference":"Encounter/8c9aab98-c826-41ee-b946-0cd380f058e8"},"effectiveDateTime":"2016-05-16T19:35:28-04:00","id":"10dd75ee-b443-449a-b785-fc581e2fe0a3","issued":"2016-05-16T19:35:28.486-04:00","meta":{"lastUpdated":"2019-04-09T11:16:26.901991+00:00","versionId":"MTU1NDgwODU4NjkwMTk5MTAwMA"},"resourceType":"DiagnosticReport","result":[{"display":"Glucose","reference":"Observation/18d77871-b48f-45e8-a2c2-e468fb3d6697"},{"display":"Urea Nitrogen","reference":"Observation/c55e12ed-a9cb-443a-876f-cefc23f801ab"},{"display":"Creatinine","reference":"Observation/a1c990fa-88b9-4c8a-9524-8a2a3378b24f"},{"display":"Calcium","reference":"Observation/65516a38-01d0-46fa-861e-aca2ce43a914"},{"display":"Sodium","reference":"Observation/f16deab0-1241-4c20-ae1c-f13f07769dd3"},{"display":"Potassium","reference":"Observation/5613d6cb-0005-4903-89a9-82b1d831f512"},{"display":"Chloride","reference":"Observation/b3499012-f754-4754-949e-fb49c2ac145c"},{"display":"Carbon Dioxide","reference":"Observation/3e2ae67d-b70c-4567-905f-1d47ff3fc27c"}],"status":"final","subject":{"reference":"Patient/00a5d6b5-eb25-4554-a65e-afc2a82a238d"}}},{"resource":{"code":{"coding":[{"code":"51990-0","display":"Basic Metabolic Panel","system":"http://loinc.org"}],"text":"Basic Metabolic Panel"},"context":{"reference":"Encounter/7a3864ed-dabe-40d7-8fbe-27bccd667efc"},"effectiveDateTime":"2013-04-29T19:35:28-04:00","id":"1fca4dfc-d826-494f-9f85-a1048f2f42f6","issued":"2013-04-29T19:35:28.486-04:00","meta":{"lastUpdated":"2019-04-09T11:16:25.887031+00:00","versionId":"MTU1NDgwODU4NTg4NzAzMTAwMA"},"resourceType":"DiagnosticReport","result":[{"display":"Glucose","reference":"Observation/365aa3e2-c067-4161-a898-62386c93f11e"},{"display":"Urea Nitrogen","reference":"Observation/3477ffbc-23df-40aa-879e-82ce360393c0"},{"display":"Creatinine","reference":"Observation/f3747356-ebce-4b6b-8d9b-31894eb2c4bd"},{"display":"Calcium","reference":"Observation/7e011aa3-409b-4dbd-9f4d-b6dbbe6e081f"},{"display":"Sodium","reference":"Observation/1cd85274-7d40-4479-bcea-cc01977cfa38"},{"display":"Potassium","reference":"Observation/af53ddd1-e571-48f7-af73-0b91c4e56d82"},{"display":"Chloride","reference":"Observation/9d0334b3-e41f-405c-80b8-9ae602265729"},{"display":"Carbon Dioxide","reference":"Observation/9040b27b-bece-4b11-90ab-ee0d19a1fa68"}],"status":"final","subject":{"reference":"Patient/00a5d6b5-eb25-4554-a65e-afc2a82a238d"}}},{"resource":{"code":{"coding":[{"code":"24323-8","display":"Comprehensive metabolic 2000 panel - Serum or Plasma","system":"http://loinc.org"}],"text":"Comprehensive metabolic 2000 panel - Serum or Plasma"},"context":{"reference":"Encounter/4c16586e-b799-490d-86d2-f2850861df46"},"effectiveDateTime":"2017-07-20T19:35:28-04:00","id":"218aaa42-bab2-4567-8130-de67302005bf","issued":"2017-07-20T19:35:28.486-04:00","meta":{"lastUpdated":"2019-04-09T11:16:27.926184+00:00","versionId":"MTU1NDgwODU4NzkyNjE4NDAwMA"},"resourceType":"DiagnosticReport","result":[{"display":"Glucose","reference":"Observation/b7dc51a7-eca4-4e09-bca1-5edd61a12541"},{"display":"Urea Nitrogen","reference":"Observation/1fc69b94-bc12-432a-986c-0c096d0339ea"},{"display":"Creatinine","reference":"Observation/86bc47c1-2205-4af3-94e0-69498c894430"},{"display":"Calcium","reference":"Observation/9e6ac2c2-5c60-4754-8be9-e42287d476aa"},{"display":"Sodium","reference":"Observation/d2ac333f-78cf-4966-8dc9-fc5b3c06adf1"},{"display":"Potassium","reference":"Observation/16c5921e-d25f-44a8-88fb-7a263e5973cc"},{"display":"Chloride","reference":"Observation/5c463451-73b0-47b2-924f-394e2304ba96"},{"display":"Carbon Dioxide","reference":"Observation/4be572d2-0e9b-4178-a5dd-c3801823fbfa"},{"display":"Glomerular filtration rate/1.73 sq M.predicted","reference":"Observation/6fb0b90e-b3a6-47f9-a49b-8739e1b64e10"},{"display":"Protein [Mass/volume] in Serum or Plasma","reference":"Observation/b9c11d6e-ee67-4ef3-a0b6-a89dcacd4292"},{"display":"Albumin [Mass/volume] in Serum or Plasma","reference":"Observation/fa797161-8886-43b3-8d2f-20164dfe5dcd"},{"display":"Globulin [Mass/volume] in Serum by calculation","reference":"Observation/3f885ad1-dd3b-48b5-8e7d-9c16c736c5e0"},{"display":"Bilirubin.total [Mass/volume] in Serum or Plasma","reference":"Observation/114ffd4d-4299-4827-923a-aa44f2692d80"},{"display":"Alkaline phosphatase [Enzymatic activity/volume] in Serum or Plasma","reference":"Observation/534a1d6c-6ff2-4cae-9497-dede5b2b1a11"},{"display":"Alanine aminotransferase [Enzymatic activity/volume] in Serum or Plasma","reference":"Observation/77d9a265-f371-4c47-a6d2-45fd39fdff95"},{"display":"Aspartate aminotransferase [Enzymatic activity/volume] in Serum or Plasma","reference":"Observation/1e42db86-ee8c-49dc-8301-dc6b5a14616f"}],"status":"final","subject":{"reference":"Patient/00a5d6b5-eb25-4554-a65e-afc2a82a238d"}}},{"resource":{"code":{"coding":[{"code":"24323-8","display":"Comprehensive metabolic 2000 panel - Serum or Plasma","system":"http://loinc.org"}],"text":"Comprehensive metabolic 2000 panel - Serum or Plasma"},"context":{"reference":"Encounter/0b32c236-8008-4ee5-9710-b40c1a66a9e6"},"effectiveDateTime":"2015-07-21T19:35:28-04:00","id":"223a2c06-8c1a-476b-bf8a-e4b07eef2015","issued":"2015-07-21T19:35:28.486-04:00","meta":{"lastUpdated":"2019-04-09T11:16:26.891739+00:00","versionId":"MTU1NDgwODU4Njg5MTczOTAwMA"},"resourceType":"DiagnosticReport","result":[{"display":"Glucose","reference":"Observation/3750e88d-e48d-41bf-88a9-405ee4a3c04e"},{"display":"Urea Nitrogen","reference":"Observation/7539ec6b-5c04-4bc4-9461-9d8161ab52db"},{"display":"Creatinine","reference":"Observation/3d1ff587-5a92-46b1-a348-bf11dd73f56b"},{"display":"Calcium","reference":"Observation/791682c9-b888-42c9-af5b-65fc994c55a5"},{"display":"Sodium","reference":"Observation/bb8896b9-7e42-4266-87ec-f55eac79635e"},{"display":"Potassium","reference":"Observation/8bc0552d-9dac-4dbf-a985-4744276aa014"},{"display":"Chloride","reference":"Observation/a482a14a-ab6d-4e92-87a9-6a15ca0a35ec"},{"display":"Carbon Dioxide","reference":"Observation/fea68fff-2d75-4388-9b3d-264ba348d004"},{"display":"Glomerular filtration rate/1.73 sq M.predicted","reference":"Observation/b45628f6-c99a-4a2d-bb65-91d9925815e8"},{"display":"Protein [Mass/volume] in Serum or Plasma","reference":"Observation/640438d8-acb9-480c-a62e-065d6f51b34b"},{"display":"Albumin [Mass/volume] in Serum or Plasma","reference":"Observation/cc535ef3-bce8-4419-be37-34a9e844d78d"},{"display":"Globulin [Mass/volume] in Serum by calculation","reference":"Observation/8c24cdf9-f31a-4fe9-8dbd-440a85f1d871"},{"display":"Bilirubin.total [Mass/volume] in Serum or Plasma","reference":"Observation/9224d2c7-f199-4c90-b50d-e4f80e0f883d"},{"display":"Alkaline phosphatase [Enzymatic activity/volume] in Serum or Plasma","reference":"Observation/efabe6c7-9e02-4abc-b34f-39962ae655d1"},{"display":"Alanine aminotransferase [Enzymatic activity/volume] in Serum or Plasma","reference":"Observation/39f7076c-2698-4844-b88b-52b7342c09e5"},{"display":"Aspartate aminotransferase [Enzymatic activity/volume] in Serum or Plasma","reference":"Observation/452c6d71-d44b-4e1c-80d0-d2f3f00749d6"}],"status":"final","subject":{"reference":"Patient/00a5d6b5-eb25-4554-a65e-afc2a82a238d"}}},{"resource":{"code":{"coding":[{"code":"51990-0","display":"Basic Metabolic Panel","system":"http://loinc.org"}],"text":"Basic Metabolic Panel"},"context":{"reference":"Encounter/21df40f9-0e61-43c7-ade0-9b5defde5200"},"effectiveDateTime":"2009-11-16T18:35:28-05:00","id":"2a470eda-1197-44cd-bda9-39e3f25a5881","issued":"2009-11-16T18:35:28.486-05:00","meta":{"lastUpdated":"2019-04-09T11:16:23.943820+00:00","versionId":"MTU1NDgwODU4Mzk0MzgyMDAwMA"},"resourceType":"DiagnosticReport","result":[{"display":"Glucose","reference":"Observation/57af26d6-b10d-4f92-81c2-8816a313dcaa"},{"display":"Urea Nitrogen","reference":"Observation/1eb7000d-9f17-401b-a2f8-08c444b9b2b2"},{"display":"Creatinine","reference":"Observation/59ff301b-4c31-41d4-9ae8-58596ab78c3e"},{"display":"Calcium","reference":"Observation/c4032d9c-cd89-45ef-81ab-796cddef4586"},{"display":"Sodium","reference":"Observation/7c099045-5730-40c9-a64a-5415da96a8ec"},{"display":"Potassium","reference":"Observation/b7cf96c9-bae3-4619-8cf0-d0ee628bd17c"},{"display":"Chloride","reference":"Observation/5bd70bc5-c0af-40b8-a075-433116d3e686"},{"display":"Carbon Dioxide","reference":"Observation/5d9b926b-e508-4ce8-b3c1-64fdbe2e66d9"}],"status":"final","subject":{"reference":"Patient/00a5d6b5-eb25-4554-a65e-afc2a82a238d"}}},{"resource":{"code":{"coding":[{"code":"24323-8","display":"Comprehensive metabolic 2000 panel - Serum or Plasma","system":"http://loinc.org"}],"text":"Comprehensive metabolic 2000 panel - Serum or Plasma"},"context":{"reference":"Encounter/d717ea92-727a-4913-9813-a450a67fdd84"},"effectiveDateTime":"2013-07-21T19:35:28-04:00","id":"2e3fa52f-3c01-4ff3-9ce8-2ec19b03f80f","issued":"2013-07-21T19:35:28.486-04:00","meta":{"lastUpdated":"2019-04-09T11:16:25.887032+00:00","versionId":"MTU1NDgwODU4NTg4NzAzMjAwMA"},"resourceType":"DiagnosticReport","result":[{"display":"Glucose","reference":"Observation/e70e50a8-acc9-4a2e-9c9f-26be3ba344de"},{"display":"Urea Nitrogen","reference":"Observation/a6145a62-9756-40af-b485-aa77b74a6cde"},{"display":"Creatinine","reference":"Observation/304a2bef-6b53-475d-87a3-4ab8d76623c7"},{"display":"Calcium","reference":"Observation/581f239d-29ec-4689-a82f-b57138018486"},{"display":"Sodium","reference":"Observation/241c5ac0-5e0a-46d3-b76e-8dbf39b76691"},{"display":"Potassium","reference":"Observation/46918159-404d-42e6-9a13-c6649b8d446f"},{"display":"Chloride","reference":"Observation/7da2fc4f-bd6f-4b85-adfb-ffefd90b742d"},{"display":"Carbon Dioxide","reference":"Observation/66d4964d-610a-42dc-9525-bdbbe764f805"},{"display":"Glomerular filtration rate/1.73 sq M.predicted","reference":"Observation/82011fe5-74b9-4eca-9563-4abf72fab7ba"},{"display":"Protein [Mass/volume] in Serum or Plasma","reference":"Observation/90a47501-a256-4d9c-b933-8ac6b8773467"},{"display":"Albumin [Mass/volume] in Serum or Plasma","reference":"Observation/cbf6cca6-6dca-4a89-99bd-0bcd3b092dee"},{"display":"Globulin [Mass/volume] in Serum by calculation","reference":"Observation/df3a9882-b843-458f-b432-84a228023015"},{"display":"Bilirubin.total [Mass/volume] in Serum or Plasma","reference":"Observation/ff7de3d8-3400-4ddf-9b2d-429895fcdbba"},{"display":"Alkaline phosphatase [Enzymatic activity/volume] in Serum or Plasma","reference":"Observation/e0813a95-8360-4b6a-9e33-ef203c386ac2"},{"display":"Alanine aminotransferase [Enzymatic activity/volume] in Serum or Plasma","reference":"Observation/34d3e034-f5b6-4509-99e8-888351fd3c99"},{"display":"Aspartate aminotransferase [Enzymatic activity/volume] in Serum or Plasma","reference":"Observation/44fff6e2-ff0f-4120-a9b4-838a3a9a4434"}],"status":"final","subject":{"reference":"Patient/00a5d6b5-eb25-4554-a65e-afc2a82a238d"}}},{"resource":{"code":{"coding":[{"code":"57698-3","display":"Lipid Panel","system":"http://loinc.org"}],"text":"Lipid Panel"},"context":{"reference":"Encounter/00d72388-5360-4e86-9425-d91e908c288d"},"effectiveDateTime":"2018-07-20T19:35:28-04:00","id":"36717ee7-663f-40cf-b7a4-c9ab5c7fa9ac","issued":"2018-07-20T19:35:28.486-04:00","meta":{"lastUpdated":"2019-04-09T11:16:27.931759+00:00","versionId":"MTU1NDgwODU4NzkzMTc1OTAwMA"},"resourceType":"DiagnosticReport","result":[{"display":"Total Cholesterol","reference":"Observation/35465430-b377-464b-a824-7a07030b0ecd"},{"display":"Triglycerides","reference":"Observation/7e321a81-76cb-4b90-9c34-eff347876a11"},{"display":"Low Density Lipoprotein Cholesterol","reference":"Observation/9457973c-46c9-4cfa-9fe1-d9b71b9a8f69"},{"display":"High Density Lipoprotein Cholesterol","reference":"Observation/2b7f6f66-f3e0-4e54-b03f-c3d447d8e624"}],"status":"final","subject":{"reference":"Patient/00a5d6b5-eb25-4554-a65e-afc2a82a238d"}}},{"resource":{"code":{"coding":[{"code":"51990-0","display":"Basic Metabolic Panel","system":"http://loinc.org"}],"text":"Basic Metabolic Panel"},"context":{"reference":"Encounter/702a2cfe-367e-4d83-9f7c-8f7dee4fb095"},"effectiveDateTime":"2012-12-03T18:35:28-05:00","id":"375d4656-5c76-456f-be85-1984f3793b50","issued":"2012-12-03T18:35:28.486-05:00","meta":{"lastUpdated":"2019-04-09T11:16:24.883090+00:00","versionId":"MTU1NDgwODU4NDg4MzA5MDAwMA"},"resourceType":"DiagnosticReport","result":[{"display":"Glucose","reference":"Observation/7d0155a0-a31c-4690-a4f3-7570da8c9a27"},{"display":"Urea Nitrogen","reference":"Observation/7f101a9a-a4b6-4e40-8322-9acf56ca0d51"},{"display":"Creatinine","reference":"Observation/64ad18d9-c17f-44e7-afcd-a5499b1ab2f8"},{"display":"Calcium","reference":"Observation/d24f0093-5ba3-47a1-961f-6b77fd61cd7f"},{"display":"Sodium","reference":"Observation/17e60e01-1c23-4fc6-b84d-4826041a4bf5"},{"display":"Potassium","reference":"Observation/01e9d140-adb4-4ed9-8418-195d79586c19"},{"display":"Chloride","reference":"Observation/758537d1-2bc3-45ce-a8d0-832efbf5be1a"},{"display":"Carbon Dioxide","reference":"Observation/13dc3a31-2087-4471-b3ee-abdae23ae54f"}],"status":"final","subject":{"reference":"Patient/00a5d6b5-eb25-4554-a65e-afc2a82a238d"}}},{"resource":{"code":{"coding":[{"code":"51990-0","display":"Basic Metabolic Panel","system":"http://loinc.org"}],"text":"Basic Metabolic Panel"},"context":{"reference":"Encounter/a298acdf-06b6-470e-bb5b-df1897c959aa"},"effectiveDateTime":"2014-05-05T19:35:28-04:00","id":"3abb5102-3c61-4b5b-ba3d-3730990de0f1","issued":"2014-05-05T19:35:28.486-04:00","meta":{"lastUpdated":"2019-04-09T11:16:25.887696+00:00","versionId":"MTU1NDgwODU4NTg4NzY5NjAwMA"},"resourceType":"DiagnosticReport","result":[{"display":"Glucose","reference":"Observation/1e20a3b6-577d-4257-b915-b6299bd4e6f4"},{"display":"Urea Nitrogen","reference":"Observation/0e8cdc98-7930-4ed4-902a-6302622dee38"},{"display":"Creatinine","reference":"Observation/93ad653e-1282-499d-b98a-30d179b0f9e5"},{"display":"Calcium","reference":"Observation/b5ad5c4d-e33c-4e00-9be1-e7741fb5606f"},{"display":"Sodium","reference":"Observation/12a1db46-c344-4d73-b7e7-d75843194cb0"},{"display":"Potassium","reference":"Observation/39cc8723-9cd7-4ae9-8b5c-04f2244357a8"},{"display":"Chloride","reference":"Observation/6b53a7f5-c96d-4ad1-aa14-2ff83e1e8dc3"},{"display":"Carbon Dioxide","reference":"Observation/621fa38d-16e3-4500-b85d-bbab8aa13f74"}],"status":"final","subject":{"reference":"Patient/00a5d6b5-eb25-4554-a65e-afc2a82a238d"}}},{"resource":{"code":{"coding":[{"code":"57698-3","display":"Lipid Panel","system":"http://loinc.org"}],"text":"Lipid Panel"},"context":{"reference":"Encounter/0ecd3895-1159-4f28-aba3-db555617d277"},"effectiveDateTime":"2011-11-28T18:35:28-05:00","id":"44d4a815-935b-4f97-8a90-8cd2ad05e6d8","issued":"2011-11-28T18:35:28.486-05:00","meta":{"lastUpdated":"2019-04-09T11:16:24.882739+00:00","versionId":"MTU1NDgwODU4NDg4MjczOTAwMA"},"resourceType":"DiagnosticReport","result":[{"display":"Total Cholesterol","reference":"Observation/473f5991-8874-4a0a-94bf-8a9823b9a411"},{"display":"Triglycerides","reference":"Observation/dae8b0c3-6c6c-42d4-aeb6-e8f0c10ff34d"},{"display":"Low Density Lipoprotein Cholesterol","reference":"Observation/d228d261-cb97-4a95-8aa6-e49151e3bb02"},{"display":"High Density Lipoprotein Cholesterol","reference":"Observation/12002ac1-011c-4898-9145-f3505e96b011"}],"status":"final","subject":{"reference":"Patient/00a5d6b5-eb25-4554-a65e-afc2a82a238d"}}},{"resource":{"code":{"coding":[{"code":"24323-8","display":"Comprehensive metabolic 2000 panel - Serum or Plasma","system":"http://loinc.org"}],"text":"Comprehensive metabolic 2000 panel - Serum or Plasma"},"context":{"reference":"Encounter/dde8043f-5141-4fcd-a12d-cc64332c1cb6"},"effectiveDateTime":"2009-07-22T19:35:28-04:00","id":"5a257fa5-a0f5-4e3e-be92-1d893d76d92b","issued":"2009-07-22T19:35:28.486-04:00","meta":{"lastUpdated":"2019-04-09T11:16:23.945203+00:00","versionId":"MTU1NDgwODU4Mzk0NTIwMzAwMA"},"resourceType":"DiagnosticReport","result":[{"display":"Glucose","reference":"Observation/9bda07a0-a40a-40d2-87f2-060da5aefea4"},{"display":"Urea Nitrogen","reference":"Observation/3a2b120f-c7e4-4705-b6a9-b8e93840ac4c"},{"display":"Creatinine","reference":"Observation/730d117d-927f-4630-bd94-b8381208aaa8"},{"display":"Calcium","reference":"Observation/6058e0a4-8ed1-4d4c-a4f1-c9af8397b574"},{"display":"Sodium","reference":"Observation/a4a4b65c-d6ae-4833-8625-bd800614db17"},{"display":"Potassium","reference":"Observation/8f638439-be27-44cc-9745-11058b958e39"},{"display":"Chloride","reference":"Observation/64873a81-0423-45d7-a09c-f8136de211f4"},{"display":"Carbon Dioxide","reference":"Observation/bbe48916-449e-4fbb-94b3-0e956d8252c7"},{"display":"Glomerular filtration rate/1.73 sq M.predicted","reference":"Observation/910d1abc-dd49-4792-9fd1-a9e356f58cab"},{"display":"Protein [Mass/volume] in Serum or Plasma","reference":"Observation/ce8ae95a-6934-47a9-a503-4c824b2d4cbe"},{"display":"Albumin [Mass/volume] in Serum or Plasma","reference":"Observation/06e423e7-e7b1-4c82-923a-b4629e9e6bce"},{"display":"Globulin [Mass/volume] in Serum by calculation","reference":"Observation/885bc37b-7046-4b65-a797-d6bd6307c071"},{"display":"Bilirubin.total [Mass/volume] in Serum or Plasma","reference":"Observation/b31df4cd-e652-4591-b485-c84b6b1636c1"},{"display":"Alkaline phosphatase [Enzymatic activity/volume] in Serum or Plasma","reference":"Observation/cabc2be1-2490-4f8e-97d5-91e46631390c"},{"display":"Alanine aminotransferase [Enzymatic activity/volume] in Serum or Plasma","reference":"Observation/c4927812-27bc-4bd5-ab81-7353639824df"},{"display":"Aspartate aminotransferase [Enzymatic activity/volume] in Serum or Plasma","reference":"Observation/6e55baad-3859-46b8-b6c4-452b42bd76a0"}],"status":"final","subject":{"reference":"Patient/00a5d6b5-eb25-4554-a65e-afc2a82a238d"}}},{"resource":{"code":{"coding":[{"code":"24323-8","display":"Comprehensive metabolic 2000 panel - Serum or Plasma","system":"http://loinc.org"}],"text":"Comprehensive metabolic 2000 panel - Serum or Plasma"},"context":{"reference":"Encounter/34c74c73-1d87-4e37-8cc9-f83c20a967f3"},"effectiveDateTime":"2011-07-22T19:35:28-04:00","id":"5ce866ee-8ff7-4400-80dd-fe565a528976","issued":"2011-07-22T19:35:28.486-04:00","meta":{"lastUpdated":"2019-04-09T11:16:24.881194+00:00","versionId":"MTU1NDgwODU4NDg4MTE5NDAwMA"},"resourceType":"DiagnosticReport","result":[{"display":"Glucose","reference":"Observation/76cbcecb-2282-444f-bd4e-37435801fdd1"},{"display":"Urea Nitrogen","reference":"Observation/fdca84d5-abc7-4d3d-9ee7-3730d7f55f26"},{"display":"Creatinine","reference":"Observation/d637947a-328e-424c-a36b-68c945027da8"},{"display":"Calcium","reference":"Observation/77b1f71b-3af2-4178-b002-61a2956ad431"},{"display":"Sodium","reference":"Observation/15ccbf72-1f0e-455b-b471-2a7fa55d7d44"},{"display":"Potassium","reference":"Observation/19d5d7d8-73d9-40df-ae4e-50318e63c7e7"},{"display":"Chloride","reference":"Observation/183d3559-31ce-40fe-a245-0b0e1d87e871"},{"display":"Carbon Dioxide","reference":"Observation/d125edd5-36b2-44ba-a6f5-e9b8cf4a5d86"},{"display":"Glomerular filtration rate/1.73 sq M.predicted","reference":"Observation/9001269c-17b2-4874-9b7b-dfb838ae82fc"},{"display":"Protein [Mass/volume] in Serum or Plasma","reference":"Observation/60e3ac0b-a6f0-4ef3-8713-32c29085cc14"},{"display":"Albumin [Mass/volume] in Serum or Plasma","reference":"Observation/0e8223b2-4fd8-4c9f-9105-61f0dc115ef6"},{"display":"Globulin [Mass/volume] in Serum by calculation","reference":"Observation/273c711b-c288-451c-a1bf-51471a6fc009"},{"display":"Bilirubin.total [Mass/volume] in Serum or Plasma","reference":"Observation/93890a42-7cdb-48e8-9e4a-9c75587e98da"},{"display":"Alkaline phosphatase [Enzymatic activity/volume] in Serum or Plasma","reference":"Observation/98334a37-de7d-4369-bb2a-07fb48188cf7"},{"display":"Alanine aminotransferase [Enzymatic activity/volume] in Serum or Plasma","reference":"Observation/e3fa49d2-1667-4f51-8a3a-42459a56d7f3"},{"display":"Aspartate aminotransferase [Enzymatic activity/volume] in Serum or Plasma","reference":"Observation/15aaa5d0-29bc-4dd9-8393-398105442ace"}],"status":"final","subject":{"reference":"Patient/00a5d6b5-eb25-4554-a65e-afc2a82a238d"}}},{"resource":{"code":{"coding":[{"code":"24323-8","display":"Comprehensive metabolic 2000 panel - Serum or Plasma","system":"http://loinc.org"}],"text":"Comprehensive metabolic 2000 panel - Serum or Plasma"},"context":{"reference":"Encounter/14a05218-f756-4f0c-ad5b-cc58f4708f13"},"effectiveDateTime":"2010-07-22T19:35:28-04:00","id":"64cdbd19-ecd6-451d-8d7f-d62fa59cc79a","issued":"2010-07-22T19:35:28.486-04:00","meta":{"lastUpdated":"2019-04-09T11:16:23.968690+00:00","versionId":"MTU1NDgwODU4Mzk2ODY5MDAwMA"},"resourceType":"DiagnosticReport","result":[{"display":"Glucose","reference":"Observation/4981d1f9-9c76-42cf-aa6a-c2fc61478da2"},{"display":"Urea Nitrogen","reference":"Observation/c3574f0c-cd13-439d-9c19-f44c69c3c5f0"},{"display":"Creatinine","reference":"Observation/df86e8fb-8748-4be7-978a-71445de15938"},{"display":"Calcium","reference":"Observation/01c4a8f0-ef34-41d1-a6c4-2b92ef78b2e9"},{"display":"Sodium","reference":"Observation/c7928d9c-95c6-4e76-b798-94a0f081ddcf"},{"display":"Potassium","reference":"Observation/2a675cee-b3ef-42d2-b5a3-ba9b389a27d9"},{"display":"Chloride","reference":"Observation/b0eee085-9e24-4fa3-9797-0bbc5d0f6702"},{"display":"Carbon Dioxide","reference":"Observation/f5272fd7-0c7c-49d9-9da2-c448c7dcc3e3"},{"display":"Glomerular filtration rate/1.73 sq M.predicted","reference":"Observation/bf23a2fd-6f98-4229-be6d-1bdf524ecc14"},{"display":"Protein [Mass/volume] in Serum or Plasma","reference":"Observation/58aa1878-9fda-4e4f-a145-82842ff11777"},{"display":"Albumin [Mass/volume] in Serum or Plasma","reference":"Observation/9e7de7a4-1096-40a6-aae1-930fa555ef9f"},{"display":"Globulin [Mass/volume] in Serum by calculation","reference":"Observation/44a51c6f-f4ed-44d1-8eb8-c0d076a58123"},{"display":"Bilirubin.total [Mass/volume] in Serum or Plasma","reference":"Observation/6f8d4e10-2d84-4d8f-b6f3-84e8ddfa4a6f"},{"display":"Alkaline phosphatase [Enzymatic activity/volume] in Serum or Plasma","reference":"Observation/e1823d83-b270-4172-a42c-3eeba8bd417b"},{"display":"Alanine aminotransferase [Enzymatic activity/volume] in Serum or Plasma","reference":"Observation/292a379c-8b89-4ea3-a764-ea49413715e2"},{"display":"Aspartate aminotransferase [Enzymatic activity/volume] in Serum or Plasma","reference":"Observation/db0cca92-0956-45f2-92cb-825cef0445ec"}],"status":"final","subject":{"reference":"Patient/00a5d6b5-eb25-4554-a65e-afc2a82a238d"}}},{"resource":{"code":{"coding":[{"code":"24323-8","display":"Comprehensive metabolic 2000 panel - Serum or Plasma","system":"http://loinc.org"}],"text":"Comprehensive metabolic 2000 panel - Serum or Plasma"},"context":{"reference":"Encounter/00d72388-5360-4e86-9425-d91e908c288d"},"effectiveDateTime":"2018-07-20T19:35:28-04:00","id":"6ed824c1-1649-482c-ba38-9fc557bb9f29","issued":"2018-07-20T19:35:28.486-04:00","meta":{"lastUpdated":"2019-04-09T11:16:27.937782+00:00","versionId":"MTU1NDgwODU4NzkzNzc4MjAwMA"},"resourceType":"DiagnosticReport","result":[{"display":"Glucose","reference":"Observation/b327b7b6-ac68-4e91-9a71-c91664ea8cd9"},{"display":"Urea Nitrogen","reference":"Observation/6419f8d4-152f-4508-a929-c67978e9d3cc"},{"display":"Creatinine","reference":"Observation/64691150-0a8f-4d62-972f-e806c118ae71"},{"display":"Calcium","reference":"Observation/3b53ca01-d90a-4f92-8ba4-c587189f04bc"},{"display":"Sodium","reference":"Observation/2b9b50dc-4e6d-4933-8a64-28d9cb6d9c6b"},{"display":"Potassium","reference":"Observation/72a19152-b96e-461d-a312-d82c9b28c091"},{"display":"Chloride","reference":"Observation/8bc47817-05b2-460b-9ed3-c80d9cbdd78c"},{"display":"Carbon Dioxide","reference":"Observation/8152b967-eeff-410f-8f4a-1e42638c1238"},{"display":"Glomerular filtration rate/1.73 sq M.predicted","reference":"Observation/35be8812-5f8e-4512-914a-99cab022d303"},{"display":"Protein [Mass/volume] in Serum or Plasma","reference":"Observation/f34d1810-af9b-4582-896b-e3cf51f0e258"},{"display":"Albumin [Mass/volume] in Serum or Plasma","reference":"Observation/fb9c0ec3-1cc4-4d64-8741-2562bfb934e6"},{"display":"Globulin [Mass/volume] in Serum by calculation","reference":"Observation/d411c61c-e14b-48a3-80df-6464dc845029"},{"display":"Bilirubin.total [Mass/volume] in Serum or Plasma","reference":"Observation/bb2f638b-8479-496a-9f88-807aa98a2cf4"},{"display":"Alkaline phosphatase [Enzymatic activity/volume] in Serum or Plasma","reference":"Observation/ed2e8e5e-09e0-4e2a-9bd0-39d2ce4f21f8"},{"display":"Alanine aminotransferase [Enzymatic activity/volume] in Serum or Plasma","reference":"Observation/497e19f9-fe0c-4c59-9827-a5bee6833b7e"},{"display":"Aspartate aminotransferase [Enzymatic activity/volume] in Serum or Plasma","reference":"Observation/457e9d11-b1ef-46e7-a5a3-1f84b4b7cee6"}],"status":"final","subject":{"reference":"Patient/00a5d6b5-eb25-4554-a65e-afc2a82a238d"}}},{"resource":{"code":{"coding":[{"code":"24323-8","display":"Comprehensive metabolic 2000 panel - Serum or Plasma","system":"http://loinc.org"}],"text":"Comprehensive metabolic 2000 panel - Serum or Plasma"},"context":{"reference":"Encounter/5d6d1b2a-67d3-4d5e-b6a1-d953235572d6"},"effectiveDateTime":"2012-07-21T19:35:28-04:00","id":"83318158-b779-4154-9088-216228b20996","issued":"2012-07-21T19:35:28.486-04:00","meta":{"lastUpdated":"2019-04-09T11:16:24.883089+00:00","versionId":"MTU1NDgwODU4NDg4MzA4OTAwMA"},"resourceType":"DiagnosticReport","result":[{"display":"Glucose","reference":"Observation/04673f2d-5d17-4afb-98a9-183ba3737aa8"},{"display":"Urea Nitrogen","reference":"Observation/e8fee230-ce1c-4ecc-8b5d-2df067c90a6a"},{"display":"Creatinine","reference":"Observation/5e543f2a-6dba-4afc-8467-453776ad7520"},{"display":"Calcium","reference":"Observation/1ceb40c4-9f35-4674-92b3-f238998c5039"},{"display":"Sodium","reference":"Observation/48b1fa19-c139-49d4-843f-c192c97d2993"},{"display":"Potassium","reference":"Observation/6ec94a58-5186-4923-9a3e-a767285cf0da"},{"display":"Chloride","reference":"Observation/15931942-6b3e-4594-a2e0-096ec8be1884"},{"display":"Carbon Dioxide","reference":"Observation/c147dc39-03d1-4c1a-827f-12c348dffb9c"},{"display":"Glomerular filtration rate/1.73 sq M.predicted","reference":"Observation/80fc6c91-4326-45a1-804a-a6b74e8c2c63"},{"display":"Protein [Mass/volume] in Serum or Plasma","reference":"Observation/35fa7e49-fcb2-44a0-bad0-723ba1dbc6ab"},{"display":"Albumin [Mass/volume] in Serum or Plasma","reference":"Observation/bd3cdbbd-3af3-4e6c-9a9d-281832a83fe6"},{"display":"Globulin [Mass/volume] in Serum by calculation","reference":"Observation/9b5ed616-f986-4239-ab78-6f438bf06839"},{"display":"Bilirubin.total [Mass/volume] in Serum or Plasma","reference":"Observation/cf2cfa8c-cb6d-42f6-963c-18e88e6c5ad4"},{"display":"Alkaline phosphatase [Enzymatic activity/volume] in Serum or Plasma","reference":"Observation/744e9e9e-1eb0-41e6-af21-1c4865016969"},{"display":"Alanine aminotransferase [Enzymatic activity/volume] in Serum or Plasma","reference":"Observation/4439522e-cd65-4e79-9812-af45dc6af46d"},{"display":"Aspartate aminotransferase [Enzymatic activity/volume] in Serum or Plasma","reference":"Observation/8c7286bd-c262-4619-851a-6b187abe1496"}],"status":"final","subject":{"reference":"Patient/00a5d6b5-eb25-4554-a65e-afc2a82a238d"}}},{"resource":{"code":{"coding":[{"code":"57698-3","display":"Lipid Panel","system":"http://loinc.org"}],"text":"Lipid Panel"},"context":{"reference":"Encounter/4c16586e-b799-490d-86d2-f2850861df46"},"effectiveDateTime":"2017-07-20T19:35:28-04:00","id":"83f0cb2c-9b56-4a23-b687-96d793ccf829","issued":"2017-07-20T19:35:28.486-04:00","meta":{"lastUpdated":"2019-04-09T11:16:27.927092+00:00","versionId":"MTU1NDgwODU4NzkyNzA5MjAwMA"},"resourceType":"DiagnosticReport","result":[{"display":"Total Cholesterol","reference":"Observation/9d84e261-abd1-4e00-9279-27da8ef057d5"},{"display":"Triglycerides","reference":"Observation/94330374-9f06-4a1a-a4aa-96664fee62fe"},{"display":"Low Density Lipoprotein Cholesterol","reference":"Observation/15973cf5-7348-4348-b0e2-f6b02866ea03"},{"display":"High Density Lipoprotein Cholesterol","reference":"Observation/28e64c73-86c3-421b-b0c5-2afbf4ec8a63"}],"status":"final","subject":{"reference":"Patient/00a5d6b5-eb25-4554-a65e-afc2a82a238d"}}},{"resource":{"code":{"coding":[{"code":"57698-3","display":"Lipid Panel","system":"http://loinc.org"}],"text":"Lipid Panel"},"context":{"reference":"Encounter/92ba0a31-0b91-4f49-aeb8-3c72f946e942"},"effectiveDateTime":"2015-05-11T19:35:28-04:00","id":"8d8c4e32-a110-4361-b8fc-1be29f69b090","issued":"2015-05-11T19:35:28.486-04:00","meta":{"lastUpdated":"2019-04-09T11:16:26.890462+00:00","versionId":"MTU1NDgwODU4Njg5MDQ2MjAwMA"},"resourceType":"DiagnosticReport","result":[{"display":"Total Cholesterol","reference":"Observation/21ef8fe0-21c2-4faa-9d01-27de5d3932c3"},{"display":"Triglycerides","reference":"Observation/a3adca60-d68d-4ce5-9193-1fe433ee7c35"},{"display":"Low Density Lipoprotein Cholesterol","reference":"Observation/badade09-03ae-4d14-8678-e9e36b8901ef"},{"display":"High Density Lipoprotein Cholesterol","reference":"Observation/134cb3d9-78b9-468e-abfa-63ee70ccba7b"}],"status":"final","subject":{"reference":"Patient/00a5d6b5-eb25-4554-a65e-afc2a82a238d"}}},{"resource":{"code":{"coding":[{"code":"24323-8","display":"Comprehensive metabolic 2000 panel - Serum or Plasma","system":"http://loinc.org"}],"text":"Comprehensive metabolic 2000 panel - Serum or Plasma"},"context":{"reference":"Encounter/5af36d55-1065-45a9-8371-2dba145e6ed8"},"effectiveDateTime":"2014-07-21T19:35:28-04:00","id":"8fcd098b-5960-4723-ba29-07c5be585223","issued":"2014-07-21T19:35:28.486-04:00","meta":{"lastUpdated":"2019-04-09T11:16:25.885440+00:00","versionId":"MTU1NDgwODU4NTg4NTQ0MDAwMA"},"resourceType":"DiagnosticReport","result":[{"display":"Glucose","reference":"Observation/caf831a8-d338-49d9-a5aa-0031e3e639ab"},{"display":"Urea Nitrogen","reference":"Observation/3e967de2-ed73-4e26-9ff8-38ecf935854e"},{"display":"Creatinine","reference":"Observation/c14826a6-b3db-477b-be2d-d5b095be9ad6"},{"display":"Calcium","reference":"Observation/5d76ab18-6bfd-4dbb-a6e5-29673de60dd7"},{"display":"Sodium","reference":"Observation/47c4a297-0089-4538-8ea5-a2a64783e4f7"},{"display":"Potassium","reference":"Observation/464c26a4-ac6b-42cd-9483-7046581f0477"},{"display":"Chloride","reference":"Observation/ab261a70-9505-4b7d-9e01-fa30da3009b2"},{"display":"Carbon Dioxide","reference":"Observation/a1e33fe0-6d97-404e-ac58-00c4c7d3daa7"},{"display":"Glomerular filtration rate/1.73 sq M.predicted","reference":"Observation/dca81c83-9e34-4790-9d13-666da759b265"},{"display":"Protein [Mass/volume] in Serum or Plasma","reference":"Observation/3df84952-3b84-4104-b229-9dbd63b0ad49"},{"display":"Albumin [Mass/volume] in Serum or Plasma","reference":"Observation/a6a187cb-8083-4291-aaa7-c4881b8ae33b"},{"display":"Globulin [Mass/volume] in Serum by calculation","reference":"Observation/23f409c7-d229-410e-a91e-0ebee1ce1b62"},{"display":"Bilirubin.total [Mass/volume] in Serum or Plasma","reference":"Observation/082fefb8-0fbc-491b-92b2-c291d380b386"},{"display":"Alkaline phosphatase [Enzymatic activity/volume] in Serum or Plasma","reference":"Observation/78324eb9-dbf6-4f10-b04a-e08fc3963ba7"},{"display":"Alanine aminotransferase [Enzymatic activity/volume] in Serum or Plasma","reference":"Observation/d6ac7db3-3155-4158-b52f-2b3cc81efa3d"},{"display":"Aspartate aminotransferase [Enzymatic activity/volume] in Serum or Plasma","reference":"Observation/95ff4aca-4796-4d2f-bccc-ad1d4263797d"}],"status":"final","subject":{"reference":"Patient/00a5d6b5-eb25-4554-a65e-afc2a82a238d"}}},{"resource":{"code":{"coding":[{"code":"57698-3","display":"Lipid Panel","system":"http://loinc.org"}],"text":"Lipid Panel"},"context":{"reference":"Encounter/d717ea92-727a-4913-9813-a450a67fdd84"},"effectiveDateTime":"2013-07-21T19:35:28-04:00","id":"94f49631-0cf2-4d44-a935-5d826376885a","issued":"2013-07-21T19:35:28.486-04:00","meta":{"lastUpdated":"2019-04-09T11:16:25.882827+00:00","versionId":"MTU1NDgwODU4NTg4MjgyNzAwMA"},"resourceType":"DiagnosticReport","result":[{"display":"Total Cholesterol","reference":"Observation/6cf408b6-636e-48ae-9a30-36e0747fa2b6"},{"display":"Triglycerides","reference":"Observation/68e7739d-fbd2-4aff-9468-e3dfd3c487ce"},{"display":"Low Density Lipoprotein Cholesterol","reference":"Observation/b172a071-7c22-47a9-984a-a2d849bd1085"},{"display":"High Density Lipoprotein Cholesterol","reference":"Observation/fc0876b4-0b86-47d1-8e20-53702dde7a53"}],"status":"final","subject":{"reference":"Patient/00a5d6b5-eb25-4554-a65e-afc2a82a238d"}}},{"resource":{"code":{"coding":[{"code":"57698-3","display":"Lipid Panel","system":"http://loinc.org"}],"text":"Lipid Panel"},"context":{"reference":"Encounter/14a05218-f756-4f0c-ad5b-cc58f4708f13"},"effectiveDateTime":"2010-07-22T19:35:28-04:00","id":"9a34f70b-ee48-4205-ab7a-36c27b86480e","issued":"2010-07-22T19:35:28.486-04:00","meta":{"lastUpdated":"2019-04-09T11:16:23.968672+00:00","versionId":"MTU1NDgwODU4Mzk2ODY3MjAwMA"},"resourceType":"DiagnosticReport","result":[{"display":"Total Cholesterol","reference":"Observation/6ee32c27-27bd-4264-b3ee-5fd58c22498e"},{"display":"Triglycerides","reference":"Observation/a6739634-6122-4fbe-aafc-335475d3232f"},{"display":"Low Density Lipoprotein Cholesterol","reference":"Observation/758ece0a-fc1d-4dfa-a76b-88e3e9b7cd51"},{"display":"High Density Lipoprotein Cholesterol","reference":"Observation/7786be9a-ad2a-4c31-8aed-a67fdd17c746"}],"status":"final","subject":{"reference":"Patient/00a5d6b5-eb25-4554-a65e-afc2a82a238d"}}},{"resource":{"code":{"coding":[{"code":"24323-8","display":"Comprehensive metabolic 2000 panel - Serum or Plasma","system":"http://loinc.org"}],"text":"Comprehensive metabolic 2000 panel - Serum or Plasma"},"context":{"reference":"Encounter/2d9aed29-c0f5-4cb9-9e96-0a7eea95c854"},"effectiveDateTime":"2016-07-20T19:35:28-04:00","id":"ac6b7712-b14b-4cf2-b8a8-626fc1d393d1","issued":"2016-07-20T19:35:28.486-04:00","meta":{"lastUpdated":"2019-04-09T11:16:26.898521+00:00","versionId":"MTU1NDgwODU4Njg5ODUyMTAwMA"},"resourceType":"DiagnosticReport","result":[{"display":"Glucose","reference":"Observation/99e05954-0a1f-43b6-9812-ab7b58945ed2"},{"display":"Urea Nitrogen","reference":"Observation/228f8786-9ea7-4f8e-aaee-6aec8e253cdc"},{"display":"Creatinine","reference":"Observation/638354fa-3c2f-430a-9b5b-efdcb4407ecc"},{"display":"Calcium","reference":"Observation/63e73b10-2f2c-4e17-b2d8-4d9d739537ad"},{"display":"Sodium","reference":"Observation/911edbb4-59db-4456-9247-a9bfa2e7d3b3"},{"display":"Potassium","reference":"Observation/a263f1ca-be43-4c3b-ad0b-2b78f0ea2322"},{"display":"Chloride","reference":"Observation/2f7a65cf-470a-48ef-a1dd-3165bf7b54f1"},{"display":"Carbon Dioxide","reference":"Observation/029dd64c-deac-401a-81ac-65aabf25067b"},{"display":"Glomerular filtration rate/1.73 sq M.predicted","reference":"Observation/a15eb5e5-efa2-4c90-82a0-d813bdabd0cc"},{"display":"Protein [Mass/volume] in Serum or Plasma","reference":"Observation/64d9b575-6ac4-49f3-90be-c0e1f6ec1c85"},{"display":"Albumin [Mass/volume] in Serum or Plasma","reference":"Observation/905cfbfd-6865-46b7-9098-cf7c92d92777"},{"display":"Globulin [Mass/volume] in Serum by calculation","reference":"Observation/83458a8c-8439-4fdf-be7c-21c8d329655c"},{"display":"Bilirubin.total [Mass/volume] in Serum or Plasma","reference":"Observation/30708683-e621-47ba-8160-ad437de451d8"},{"display":"Alkaline phosphatase [Enzymatic activity/volume] in Serum or Plasma","reference":"Observation/332555ba-c8db-4ee6-868b-30c291d17425"},{"display":"Alanine aminotransferase [Enzymatic activity/volume] in Serum or Plasma","reference":"Observation/30ff3973-377d-4dbd-8f8e-69a0f11a0a8f"},{"display":"Aspartate aminotransferase [Enzymatic activity/volume] in Serum or Plasma","reference":"Observation/54306e42-330c-48f6-8f85-dd56276b18b1"}],"status":"final","subject":{"reference":"Patient/00a5d6b5-eb25-4554-a65e-afc2a82a238d"}}},{"resource":{"code":{"coding":[{"code":"51990-0","display":"Basic Metabolic Panel","system":"http://loinc.org"}],"text":"Basic Metabolic Panel"},"context":{"reference":"Encounter/7603de6f-8715-420f-b770-1b52aa7903b3"},"effectiveDateTime":"2010-11-22T18:35:28-05:00","id":"b016def6-c688-4a8a-a2be-576848c524cb","issued":"2010-11-22T18:35:28.486-05:00","meta":{"lastUpdated":"2019-04-09T11:16:23.993510+00:00","versionId":"MTU1NDgwODU4Mzk5MzUxMDAwMA"},"resourceType":"DiagnosticReport","result":[{"display":"Glucose","reference":"Observation/532893fc-f493-4786-800f-0e8df168e10a"},{"display":"Urea Nitrogen","reference":"Observation/2637fc54-6a7d-44e4-8bad-64e71af120f9"},{"display":"Creatinine","reference":"Observation/ff081917-6bb7-4677-ad9e-d1ac0baec50a"},{"display":"Calcium","reference":"Observation/fb73a11f-fd79-4435-9ce1-43b29594f0e0"},{"display":"Sodium","reference":"Observation/64fb5d23-5b5f-481b-a31a-330622f146fa"},{"display":"Potassium","reference":"Observation/cb2800c1-d9ee-40eb-b85e-1c18ae9ca48b"},{"display":"Chloride","reference":"Observation/16712cc3-3429-462d-90bb-7632c4c40534"},{"display":"Carbon Dioxide","reference":"Observation/89096a6b-39ec-4625-8070-b14720b11f7d"}],"status":"final","subject":{"reference":"Patient/00a5d6b5-eb25-4554-a65e-afc2a82a238d"}}},{"resource":{"code":{"coding":[{"code":"58410-2","display":"Complete blood count (hemogram) panel - Blood by Automated count","system":"http://loinc.org"}],"text":"Complete blood count (hemogram) panel - Blood by Automated count"},"context":{"reference":"Encounter/8c9aab98-c826-41ee-b946-0cd380f058e8"},"effectiveDateTime":"2016-05-16T19:35:28-04:00","id":"b377a828-6cad-4184-9e40-329c785e8fc7","issued":"2016-05-16T19:35:28.486-04:00","meta":{"lastUpdated":"2019-04-09T11:16:26.901823+00:00","versionId":"MTU1NDgwODU4NjkwMTgyMzAwMA"},"resourceType":"DiagnosticReport","result":[{"display":"Leukocytes [#/volume] in Blood by Automated count","reference":"Observation/447641bd-5732-4114-8ae7-3b12132121a6"},{"display":"Erythrocytes [#/volume] in Blood by Automated count","reference":"Observation/0f50db5e-b82f-45c5-b853-2214a39974d0"},{"display":"Hemoglobin [Mass/volume] in Blood","reference":"Observation/3a5d0ad1-2fe3-4a5f-b7be-c56e3ef5cedc"},{"display":"Hematocrit [Volume Fraction] of Blood by Automated count","reference":"Observation/a0d00ac8-7bd6-496a-8ff9-47faf1ef7284"},{"display":"MCV [Entitic volume] by Automated count","reference":"Observation/1fd2e59c-4629-4f2e-8a75-b27b55e91729"},{"display":"MCH [Entitic mass] by Automated count","reference":"Observation/9217e874-e656-4077-9c94-1b2d3e58423b"},{"display":"MCHC [Mass/volume] by Automated count","reference":"Observation/8b769038-b33c-45c8-ba12-122221c84e9d"},{"display":"Erythrocyte distribution width [Entitic volume] by Automated count","reference":"Observation/b340affa-c0c8-4bcc-9eb4-bae3d4f2bcfb"},{"display":"Platelets [#/volume] in Blood by Automated count","reference":"Observation/879b66e9-0fd2-487a-875b-2c85a89b663d"},{"display":"Platelet distribution width [Entitic volume] in Blood by Automated count","reference":"Observation/a54add62-e78a-4821-b909-acc16988b512"},{"display":"Platelet mean volume [Entitic volume] in Blood by Automated count","reference":"Observation/70dbe9b5-af1e-445a-8322-d7aaea234464"}],"status":"final","subject":{"reference":"Patient/00a5d6b5-eb25-4554-a65e-afc2a82a238d"}}},{"resource":{"code":{"coding":[{"code":"51990-0","display":"Basic Metabolic Panel","system":"http://loinc.org"}],"text":"Basic Metabolic Panel"},"context":{"reference":"Encounter/48a7aa3e-e663-4ddf-afde-7dae717cc4fa"},"effectiveDateTime":"2018-05-28T19:35:28-04:00","id":"c6da70ab-9f40-468b-a134-5c661977e2bb","issued":"2018-05-28T19:35:28.486-04:00","meta":{"lastUpdated":"2019-04-09T11:16:27.936068+00:00","versionId":"MTU1NDgwODU4NzkzNjA2ODAwMA"},"resourceType":"DiagnosticReport","result":[{"display":"Glucose","reference":"Observation/f080fe4c-8b2b-4651-bd6e-869ce4ab6728"},{"display":"Urea Nitrogen","reference":"Observation/21f3f610-f198-4abc-a96c-f3ff65747404"},{"display":"Creatinine","reference":"Observation/dfa23576-0748-481d-996c-a46a99571978"},{"display":"Calcium","reference":"Observation/1cc5a757-e3a6-4f70-b40c-3443546a4eae"},{"display":"Sodium","reference":"Observation/c4cc1d79-16f6-490f-b15a-c22733bb0cf1"},{"display":"Potassium","reference":"Observation/250e9a8a-dba6-4c25-bf58-9039366bcddb"},{"display":"Chloride","reference":"Observation/36519c47-8da6-4559-89bd-82f46f4384b8"},{"display":"Carbon Dioxide","reference":"Observation/a0008d74-6485-49d1-ada9-66c095324aa5"}],"status":"final","subject":{"reference":"Patient/00a5d6b5-eb25-4554-a65e-afc2a82a238d"}}},{"resource":{"code":{"coding":[{"code":"57698-3","display":"Lipid Panel","system":"http://loinc.org"}],"text":"Lipid Panel"},"context":{"reference":"Encounter/34c74c73-1d87-4e37-8cc9-f83c20a967f3"},"effectiveDateTime":"2011-07-22T19:35:28-04:00","id":"cad36caa-8223-4544-9e73-b13d6bbf7e53","issued":"2011-07-22T19:35:28.486-04:00","meta":{"lastUpdated":"2019-04-09T11:16:24.881190+00:00","versionId":"MTU1NDgwODU4NDg4MTE5MDAwMA"},"resourceType":"DiagnosticReport","result":[{"display":"Total Cholesterol","reference":"Observation/32937b15-6c84-4d1c-8bb4-dc1f57de9ae0"},{"display":"Triglycerides","reference":"Observation/72978d56-29fe-4a31-9734-c5dba54b26e2"},{"display":"Low Density Lipoprotein Cholesterol","reference":"Observation/33f00f9a-17b4-4f74-a678-0c6096ff8095"},{"display":"High Density Lipoprotein Cholesterol","reference":"Observation/a97905cb-041b-4129-be31-64c74fbad43e"}],"status":"final","subject":{"reference":"Patient/00a5d6b5-eb25-4554-a65e-afc2a82a238d"}}},{"resource":{"code":{"coding":[{"code":"57698-3","display":"Lipid Panel","system":"http://loinc.org"}],"text":"Lipid Panel"},"context":{"reference":"Encounter/5af36d55-1065-45a9-8371-2dba145e6ed8"},"effectiveDateTime":"2014-07-21T19:35:28-04:00","id":"d355865a-5f32-4a52-9207-0634bfd62a2b","issued":"2014-07-21T19:35:28.486-04:00","meta":{"lastUpdated":"2019-04-09T11:16:25.882149+00:00","versionId":"MTU1NDgwODU4NTg4MjE0OTAwMA"},"resourceType":"DiagnosticReport","result":[{"display":"Total Cholesterol","reference":"Observation/3253ed5e-3b6f-4cbd-911a-bd25089a886b"},{"display":"Triglycerides","reference":"Observation/080c90a9-fa92-41b6-9a86-91a294c8502b"},{"display":"Low Density Lipoprotein Cholesterol","reference":"Observation/65fd45f7-1b5b-40d9-b92d-cc49af341f2f"},{"display":"High Density Lipoprotein Cholesterol","reference":"Observation/d0e53bb9-69f7-4b96-9df8-79fa5119c624"}],"status":"final","subject":{"reference":"Patient/00a5d6b5-eb25-4554-a65e-afc2a82a238d"}}},{"resource":{"code":{"coding":[{"code":"58410-2","display":"Complete blood count (hemogram) panel - Blood by Automated count","system":"http://loinc.org"}],"text":"Complete blood count (hemogram) panel - Blood by Automated count"},"context":{"reference":"Encounter/7603de6f-8715-420f-b770-1b52aa7903b3"},"effectiveDateTime":"2010-11-22T18:35:28-05:00","id":"d7660cbf-8fc4-4ac5-bfa1-a09fb095ac7a","issued":"2010-11-22T18:35:28.486-05:00","meta":{"lastUpdated":"2019-04-09T11:16:23.980850+00:00","versionId":"MTU1NDgwODU4Mzk4MDg1MDAwMA"},"resourceType":"DiagnosticReport","result":[{"display":"Leukocytes [#/volume] in Blood by Automated count","reference":"Observation/f9410789-20c1-45c9-ae76-adbe99b29fa2"},{"display":"Erythrocytes [#/volume] in Blood by Automated count","reference":"Observation/04d4c3da-3e3e-4c5e-8043-1d971fe1cf49"},{"display":"Hemoglobin [Mass/volume] in Blood","reference":"Observation/5d8bb76e-e887-4302-aeda-ff38ba8d77f7"},{"display":"Hematocrit [Volume Fraction] of Blood by Automated count","reference":"Observation/5ab110f4-4d6b-481b-9ba8-65bb7c4013b7"},{"display":"MCV [Entitic volume] by Automated count","reference":"Observation/db5225a0-0730-45d9-bf9c-4d959a913c39"},{"display":"MCH [Entitic mass] by Automated count","reference":"Observation/35b33f32-ae59-4994-b528-2e1217914681"},{"display":"MCHC [Mass/volume] by Automated count","reference":"Observation/afc2c401-d91c-48de-9d88-96387eadc1a6"},{"display":"Erythrocyte distribution width [Entitic volume] by Automated count","reference":"Observation/4a7fd477-3d21-46b7-a338-a71883b918ba"},{"display":"Platelets [#/volume] in Blood by Automated count","reference":"Observation/ca24eb98-9050-4c9e-9ac0-e75868d84f5d"},{"display":"Platelet distribution width [Entitic volume] in Blood by Automated count","reference":"Observation/2543e808-0118-40b2-a6ea-a2ca2bfd324d"},{"display":"Platelet mean volume [Entitic volume] in Blood by Automated count","reference":"Observation/61317093-52b2-4275-aef1-21d7a4582b7e"}],"status":"final","subject":{"reference":"Patient/00a5d6b5-eb25-4554-a65e-afc2a82a238d"}}},{"resource":{"code":{"coding":[{"code":"51990-0","display":"Basic Metabolic Panel","system":"http://loinc.org"}],"text":"Basic Metabolic Panel"},"context":{"reference":"Encounter/929905c9-7843-48d6-a258-02556c4b81e8"},"effectiveDateTime":"2017-05-22T19:35:28-04:00","id":"dd597503-9ddc-48dc-acbe-709dd22dee15","issued":"2017-05-22T19:35:28.486-04:00","meta":{"lastUpdated":"2019-04-09T11:16:26.901992+00:00","versionId":"MTU1NDgwODU4NjkwMTk5MjAwMA"},"resourceType":"DiagnosticReport","result":[{"display":"Glucose","reference":"Observation/3e5c3626-e052-4436-ac56-2ad5fef371e6"},{"display":"Urea Nitrogen","reference":"Observation/cf3d1e09-97fc-4a51-8cde-74531e1043e9"},{"display":"Creatinine","reference":"Observation/920d88c9-a43c-451b-a13e-63d4182d2859"},{"display":"Calcium","reference":"Observation/f77bea68-9801-4f63-a8af-31aa48b0a17c"},{"display":"Sodium","reference":"Observation/f8e3954b-4722-4a07-9318-864cd7d97968"},{"display":"Potassium","reference":"Observation/70b56a02-1147-472f-af2a-d9a0e7f22c82"},{"display":"Chloride","reference":"Observation/1e6264d4-bef5-459a-baa3-8247be010fa1"},{"display":"Carbon Dioxide","reference":"Observation/9b5b5db5-aa7c-49fe-8585-be86664534ae"}],"status":"final","subject":{"reference":"Patient/00a5d6b5-eb25-4554-a65e-afc2a82a238d"}}},{"resource":{"code":{"coding":[{"code":"57698-3","display":"Lipid Panel","system":"http://loinc.org"}],"text":"Lipid Panel"},"context":{"reference":"Encounter/5d6d1b2a-67d3-4d5e-b6a1-d953235572d6"},"effectiveDateTime":"2012-07-21T19:35:28-04:00","id":"eba0cfcc-0469-4fe0-bb17-53b86e8d9fc9","issued":"2012-07-21T19:35:28.486-04:00","meta":{"lastUpdated":"2019-04-09T11:16:24.884501+00:00","versionId":"MTU1NDgwODU4NDg4NDUwMTAwMA"},"resourceType":"DiagnosticReport","result":[{"display":"Total Cholesterol","reference":"Observation/65b1e081-3c2f-47a8-83aa-8eda60768903"},{"display":"Triglycerides","reference":"Observation/6982521a-0d81-49c9-99c3-08a862cd6642"},{"display":"Low Density Lipoprotein Cholesterol","reference":"Observation/4f6ecd88-14e5-4e91-bc6d-6f3b344bc1a8"},{"display":"High Density Lipoprotein Cholesterol","reference":"Observation/e390b961-2707-4a4a-a7c6-9a99c55550ae"}],"status":"final","subject":{"reference":"Patient/00a5d6b5-eb25-4554-a65e-afc2a82a238d"}}},{"resource":{"code":{"coding":[{"code":"51990-0","display":"Basic Metabolic Panel","system":"http://loinc.org"}],"text":"Basic Metabolic Panel"},"context":{"reference":"Encounter/92ba0a31-0b91-4f49-aeb8-3c72f946e942"},"effectiveDateTime":"2015-05-11T19:35:28-04:00","id":"f2738d84-651a-4d53-aca6-ed8354f53f9a","issued":"2015-05-11T19:35:28.486-04:00","meta":{"lastUpdated":"2019-04-09T11:16:26.901567+00:00","versionId":"MTU1NDgwODU4NjkwMTU2NzAwMA"},"resourceType":"DiagnosticReport","result":[{"display":"Glucose","reference":"Observation/bd73617e-ba58-49f7-ab9d-bbf0ff183681"},{"display":"Urea Nitrogen","reference":"Observation/a815d889-8b67-4321-87fa-2e6fa0cfdcf0"},{"display":"Creatinine","reference":"Observation/89c39011-102a-417b-88cd-71feb139644a"},{"display":"Calcium","reference":"Observation/118c5c01-a393-497a-8f69-b22d2544155d"},{"display":"Sodium","reference":"Observation/cdcdecb4-abb9-42e9-a330-3d1264dbbf1f"},{"display":"Potassium","reference":"Observation/55483fe4-9098-489f-ada8-e009d42a17c7"},{"display":"Chloride","reference":"Observation/d9a55cae-147d-4c16-a11c-2140d982fc80"},{"display":"Carbon Dioxide","reference":"Observation/35e774af-2038-47d1-b0a9-b255e7f70592"}],"status":"final","subject":{"reference":"Patient/00a5d6b5-eb25-4554-a65e-afc2a82a238d"}}},{"resource":{"class":{"code":"ambulatory"},"id":"00d72388-5360-4e86-9425-d91e908c288d","meta":{"lastUpdated":"2019-04-09T11:16:27.929170+00:00","versionId":"MTU1NDgwODU4NzkyOTE3MDAwMA"},"participant":[{"individual":{"reference":"Practitioner/51f8e264-a611-42fb-81ed-43af8d5561cf"}}],"period":{"end":"2018-07-20T19:50:28-04:00","start":"2018-07-20T19:35:28-04:00"},"reason":[{"coding":[{"code":"55822004","display":"Hyperlipidemia","system":"http://snomed.info/sct"}]}],"resourceType":"Encounter","serviceProvider":{"reference":"Organization/c5136ece-f137-44f5-b4b4-62510a27899f"},"status":"finished","subject":{"reference":"Patient/00a5d6b5-eb25-4554-a65e-afc2a82a238d"},"type":[{"coding":[{"code":"390906007","display":"Follow-up encounter","system":"http://snomed.info/sct"}],"text":"Follow-up encounter"}]}},{"resource":{"class":{"code":"ambulatory"},"id":"019e7575-4571-4750-94d1-4f036ca626fc","meta":{"lastUpdated":"2019-04-09T11:16:22.813932+00:00","versionId":"MTU1NDgwODU4MjgxMzkzMjAwMA"},"participant":[{"individual":{"reference":"Practitioner/51f8e264-a611-42fb-81ed-43af8d5561cf"}}],"period":{"end":"1989-07-27T19:50:28-04:00","start":"1989-07-27T19:35:28-04:00"},"reason":[{"coding":[{"code":"55822004","display":"Hyperlipidemia","system":"http://snomed.info/sct"}]}],"resourceType":"Encounter","serviceProvider":{"reference":"Organization/c5136ece-f137-44f5-b4b4-62510a27899f"},"status":"finished","subject":{"reference":"Patient/00a5d6b5-eb25-4554-a65e-afc2a82a238d"},"type":[{"coding":[{"code":"390906007","display":"Follow-up encounter","system":"http://snomed.info/sct"}],"text":"Follow-up encounter"}]}},{"resource":{"class":{"code":"ambulatory"},"id":"0716097e-9ed6-4449-96cb-04311110909e","meta":{"lastUpdated":"2019-04-09T11:16:22.817535+00:00","versionId":"MTU1NDgwODU4MjgxNzUzNTAwMA"},"participant":[{"individual":{"reference":"Practitioner/51f8e264-a611-42fb-81ed-43af8d5561cf"}}],"period":{"end":"1988-07-27T19:50:28-04:00","start":"1988-07-27T19:35:28-04:00"},"reason":[{"coding":[{"code":"55822004","display":"Hyperlipidemia","system":"http://snomed.info/sct"}]}],"resourceType":"Encounter","serviceProvider":{"reference":"Organization/c5136ece-f137-44f5-b4b4-62510a27899f"},"status":"finished","subject":{"reference":"Patient/00a5d6b5-eb25-4554-a65e-afc2a82a238d"},"type":[{"coding":[{"code":"390906007","display":"Follow-up encounter","system":"http://snomed.info/sct"}],"text":"Follow-up encounter"}]}},{"resource":{"class":{"code":"ambulatory"},"id":"0b32c236-8008-4ee5-9710-b40c1a66a9e6","meta":{"lastUpdated":"2019-04-09T11:16:26.886455+00:00","versionId":"MTU1NDgwODU4Njg4NjQ1NTAwMA"},"participant":[{"individual":{"reference":"Practitioner/51f8e264-a611-42fb-81ed-43af8d5561cf"}}],"period":{"end":"2015-07-21T19:50:28-04:00","start":"2015-07-21T19:35:28-04:00"},"reason":[{"coding":[{"code":"55822004","display":"Hyperlipidemia","system":"http://snomed.info/sct"}]}],"resourceType":"Encounter","serviceProvider":{"reference":"Organization/c5136ece-f137-44f5-b4b4-62510a27899f"},"status":"finished","subject":{"reference":"Patient/00a5d6b5-eb25-4554-a65e-afc2a82a238d"},"type":[{"coding":[{"code":"390906007","display":"Follow-up encounter","system":"http://snomed.info/sct"}],"text":"Follow-up encounter"}]}},{"resource":{"class":{"code":"WELLNESS"},"id":"0e05b0ef-c06e-4b01-91c6-8828933ec85f","meta":{"lastUpdated":"2019-04-09T11:16:22.817531+00:00","versionId":"MTU1NDgwODU4MjgxNzUzMTAwMA"},"participant":[{"individual":{"reference":"Practitioner/51f8e264-a611-42fb-81ed-43af8d5561cf"}}],"period":{"end":"1978-07-24T20:35:28-04:00","start":"1978-07-24T19:35:28-04:00"},"resourceType":"Encounter","serviceProvider":{"reference":"Organization/c5136ece-f137-44f5-b4b4-62510a27899f"},"status":"finished","subject":{"reference":"Patient/00a5d6b5-eb25-4554-a65e-afc2a82a238d"},"type":[{"coding":[{"code":"185349003","display":"Encounter for check up (procedure)","system":"http://snomed.info/sct"}],"text":"Encounter for check up (procedure)"}]}},{"resource":{"class":{"code":"WELLNESS"},"id":"0ecd3895-1159-4f28-aba3-db555617d277","meta":{"lastUpdated":"2019-04-09T11:16:24.881315+00:00","versionId":"MTU1NDgwODU4NDg4MTMxNTAwMA"},"participant":[{"individual":{"reference":"Practitioner/51f8e264-a611-42fb-81ed-43af8d5561cf"}}],"period":{"end":"2011-11-28T19:20:28-05:00","start":"2011-11-28T18:35:28-05:00"},"resourceType":"Encounter","serviceProvider":{"reference":"Organization/c5136ece-f137-44f5-b4b4-62510a27899f"},"status":"finished","subject":{"reference":"Patient/00a5d6b5-eb25-4554-a65e-afc2a82a238d"},"type":[{"coding":[{"code":"185349003","display":"Encounter for check up (procedure)","system":"http://snomed.info/sct"}],"text":"Encounter for check up (procedure)"}]}},{"resource":{"class":{"code":"WELLNESS"},"id":"131fd8de-3fcb-4c0f-a130-5daa3f565339","meta":{"lastUpdated":"2019-04-09T11:16:22.796965+00:00","versionId":"MTU1NDgwODU4Mjc5Njk2NTAwMA"},"participant":[{"individual":{"reference":"Practitioner/51f8e264-a611-42fb-81ed-43af8d5561cf"}}],"period":{"end":"1970-03-30T18:50:28-05:00","start":"1970-03-30T18:35:28-05:00"},"resourceType":"Encounter","serviceProvider":{"reference":"Organization/c5136ece-f137-44f5-b4b4-62510a27899f"},"status":"finished","subject":{"reference":"Patient/00a5d6b5-eb25-4554-a65e-afc2a82a238d"},"type":[{"coding":[{"code":"185349003","display":"Encounter for check up (procedure)","system":"http://snomed.info/sct"}],"text":"Encounter for check up (procedure)"}]}},{"resource":{"class":{"code":"ambulatory"},"id":"14a05218-f756-4f0c-ad5b-cc58f4708f13","meta":{"lastUpdated":"2019-04-09T11:16:23.927075+00:00","versionId":"MTU1NDgwODU4MzkyNzA3NTAwMA"},"participant":[{"individual":{"reference":"Practitioner/51f8e264-a611-42fb-81ed-43af8d5561cf"}}],"period":{"end":"2010-07-22T19:50:28-04:00","start":"2010-07-22T19:35:28-04:00"},"reason":[{"coding":[{"code":"55822004","display":"Hyperlipidemia","system":"http://snomed.info/sct"}]}],"resourceType":"Encounter","serviceProvider":{"reference":"Organization/c5136ece-f137-44f5-b4b4-62510a27899f"},"status":"finished","subject":{"reference":"Patient/00a5d6b5-eb25-4554-a65e-afc2a82a238d"},"type":[{"coding":[{"code":"390906007","display":"Follow-up encounter","system":"http://snomed.info/sct"}],"text":"Follow-up encounter"}]}},{"resource":{"class":{"code":"ambulatory"},"id":"1878fe52-d478-4a23-a3f9-c656583f1869","meta":{"lastUpdated":"2019-04-09T11:16:24.882871+00:00","versionId":"MTU1NDgwODU4NDg4Mjg3MTAwMA"},"participant":[{"individual":{"reference":"Practitioner/51f8e264-a611-42fb-81ed-43af8d5561cf"}}],"period":{"end":"2013-04-19T20:05:28-04:00","start":"2013-04-19T19:35:28-04:00"},"reason":[{"coding":[{"code":"43878008","display":"Streptococcal sore throat (disorder)","system":"http://snomed.info/sct"}]}],"resourceType":"Encounter","serviceProvider":{"reference":"Organization/c5136ece-f137-44f5-b4b4-62510a27899f"},"status":"finished","subject":{"reference":"Patient/00a5d6b5-eb25-4554-a65e-afc2a82a238d"},"type":[{"coding":[{"code":"185345009","display":"Encounter for symptom","system":"http://snomed.info/sct"}],"text":"Encounter for symptom"}]}},{"resource":{"class":{"code":"ambulatory"},"id":"18985bee-93d6-4ddf-a1f7-a2957c8c2e96","meta":{"lastUpdated":"2019-04-09T11:16:23.959889+00:00","versionId":"MTU1NDgwODU4Mzk1OTg4OTAwMA"},"participant":[{"individual":{"reference":"Practitioner/51f8e264-a611-42fb-81ed-43af8d5561cf"}}],"period":{"end":"2010-10-22T20:05:28-04:00","start":"2010-10-22T19:35:28-04:00"},"reason":[{"coding":[{"code":"43878008","display":"Streptococcal sore throat (disorder)","system":"http://snomed.info/sct"}]}],"resourceType":"Encounter","serviceProvider":{"reference":"Organization/c5136ece-f137-44f5-b4b4-62510a27899f"},"status":"finished","subject":{"reference":"Patient/00a5d6b5-eb25-4554-a65e-afc2a82a238d"},"type":[{"coding":[{"code":"185345009","display":"Encounter for symptom","system":"http://snomed.info/sct"}],"text":"Encounter for symptom"}]}},{"resource":{"class":{"code":"ambulatory"},"id":"21d2fd9e-225b-457e-8da9-d95f8fe67921","meta":{"lastUpdated":"2019-04-09T11:16:22.799872+00:00","versionId":"MTU1NDgwODU4Mjc5OTg3MjAwMA"},"participant":[{"individual":{"reference":"Practitioner/51f8e264-a611-42fb-81ed-43af8d5561cf"}}],"period":{"end":"1974-09-02T20:05:28-04:00","start":"1974-09-02T19:35:28-04:00"},"reason":[{"coding":[{"code":"363406005","display":"Malignant tumor of colon","system":"http://snomed.info/sct"}]}],"resourceType":"Encounter","serviceProvider":{"reference":"Organization/c5136ece-f137-44f5-b4b4-62510a27899f"},"status":"finished","subject":{"reference":"Patient/00a5d6b5-eb25-4554-a65e-afc2a82a238d"},"type":[{"coding":[{"code":"185347001","display":"Encounter for problem","system":"http://snomed.info/sct"}],"text":"Encounter for problem"}]}},{"resource":{"class":{"code":"WELLNESS"},"id":"21df40f9-0e61-43c7-ade0-9b5defde5200","meta":{"lastUpdated":"2019-04-09T11:16:23.906827+00:00","versionId":"MTU1NDgwODU4MzkwNjgyNzAwMA"},"participant":[{"individual":{"reference":"Practitioner/51f8e264-a611-42fb-81ed-43af8d5561cf"}}],"period":{"end":"2009-11-16T19:05:28-05:00","start":"2009-11-16T18:35:28-05:00"},"resourceType":"Encounter","serviceProvider":{"reference":"Organization/c5136ece-f137-44f5-b4b4-62510a27899f"},"status":"finished","subject":{"reference":"Patient/00a5d6b5-eb25-4554-a65e-afc2a82a238d"},"type":[{"coding":[{"code":"185349003","display":"Encounter for check up (procedure)","system":"http://snomed.info/sct"}],"text":"Encounter for check up (procedure)"}]}},{"resource":{"class":{"code":"ambulatory"},"id":"24fe7411-fbcb-4a65-8fdb-dfe0d61f985b","meta":{"lastUpdated":"2019-04-09T11:16:23.888214+00:00","versionId":"MTU1NDgwODU4Mzg4ODIxNDAwMA"},"participant":[{"individual":{"reference":"Practitioner/51f8e264-a611-42fb-81ed-43af8d5561cf"}}],"period":{"end":"2007-07-23T19:50:28-04:00","start":"2007-07-23T19:35:28-04:00"},"reason":[{"coding":[{"code":"55822004","display":"Hyperlipidemia","system":"http://snomed.info/sct"}]}],"resourceType":"Encounter","serviceProvider":{"reference":"Organization/c5136ece-f137-44f5-b4b4-62510a27899f"},"status":"finished","subject":{"reference":"Patient/00a5d6b5-eb25-4554-a65e-afc2a82a238d"},"type":[{"coding":[{"code":"390906007","display":"Follow-up encounter","system":"http://snomed.info/sct"}],"text":"Follow-up encounter"}]}},{"resource":{"class":{"code":"ambulatory"},"id":"29ad8815-aece-482b-aa38-a02058bbbbf8","meta":{"lastUpdated":"2019-04-09T11:16:24.881317+00:00","versionId":"MTU1NDgwODU4NDg4MTMxNzAwMA"},"participant":[{"individual":{"reference":"Practitioner/51f8e264-a611-42fb-81ed-43af8d5561cf"}}],"period":{"end":"2012-08-19T19:50:28-04:00","start":"2012-08-19T19:35:28-04:00"},"reason":[{"coding":[{"code":"444814009","display":"Viral sinusitis (disorder)","system":"http://snomed.info/sct"}]}],"resourceType":"Encounter","serviceProvider":{"reference":"Organization/c5136ece-f137-44f5-b4b4-62510a27899f"},"status":"finished","subject":{"reference":"Patient/00a5d6b5-eb25-4554-a65e-afc2a82a238d"},"type":[{"coding":[{"code":"185345009","display":"Encounter for symptom","system":"http://snomed.info/sct"}],"text":"Encounter for symptom"}]}},{"resource":{"class":{"code":"ambulatory"},"id":"2c01f6c0-34c3-48cd-ae2f-b116f7de7808","meta":{"lastUpdated":"2019-04-09T11:16:22.818528+00:00","versionId":"MTU1NDgwODU4MjgxODUyODAwMA"},"participant":[{"individual":{"reference":"Practitioner/51f8e264-a611-42fb-81ed-43af8d5561cf"}}],"period":{"end":"1986-07-28T19:50:28-04:00","start":"1986-07-28T19:35:28-04:00"},"reason":[{"coding":[{"code":"55822004","display":"Hyperlipidemia","system":"http://snomed.info/sct"}]}],"resourceType":"Encounter","serviceProvider":{"reference":"Organization/c5136ece-f137-44f5-b4b4-62510a27899f"},"status":"finished","subject":{"reference":"Patient/00a5d6b5-eb25-4554-a65e-afc2a82a238d"},"type":[{"coding":[{"code":"390906007","display":"Follow-up encounter","system":"http://snomed.info/sct"}],"text":"Follow-up encounter"}]}},{"resource":{"class":{"code":"ambulatory"},"id":"2d9aed29-c0f5-4cb9-9e96-0a7eea95c854","meta":{"lastUpdated":"2019-04-09T11:16:26.890805+00:00","versionId":"MTU1NDgwODU4Njg5MDgwNTAwMA"},"participant":[{"individual":{"reference":"Practitioner/51f8e264-a611-42fb-81ed-43af8d5561cf"}}],"period":{"end":"2016-07-20T19:50:28-04:00","start":"2016-07-20T19:35:28-04:00"},"reason":[{"coding":[{"code":"55822004","display":"Hyperlipidemia","system":"http://snomed.info/sct"}]}],"resourceType":"Encounter","serviceProvider":{"reference":"Organization/c5136ece-f137-44f5-b4b4-62510a27899f"},"status":"finished","subject":{"reference":"Patient/00a5d6b5-eb25-4554-a65e-afc2a82a238d"},"type":[{"coding":[{"code":"390906007","display":"Follow-up encounter","system":"http://snomed.info/sct"}],"text":"Follow-up encounter"}]}},{"resource":{"class":{"code":"ambulatory"},"id":"3251ba0b-7357-42e9-8cd0-e1101c83af70","meta":{"lastUpdated":"2019-04-09T11:16:22.824501+00:00","versionId":"MTU1NDgwODU4MjgyNDUwMTAwMA"},"participant":[{"individual":{"reference":"Practitioner/51f8e264-a611-42fb-81ed-43af8d5561cf"}}],"period":{"end":"1997-07-25T19:50:28-04:00","start":"1997-07-25T19:35:28-04:00"},"reason":[{"coding":[{"code":"55822004","display":"Hyperlipidemia","system":"http://snomed.info/sct"}]}],"resourceType":"Encounter","serviceProvider":{"reference":"Organization/c5136ece-f137-44f5-b4b4-62510a27899f"},"status":"finished","subject":{"reference":"Patient/00a5d6b5-eb25-4554-a65e-afc2a82a238d"},"type":[{"coding":[{"code":"390906007","display":"Follow-up encounter","system":"http://snomed.info/sct"}],"text":"Follow-up encounter"}]}},{"resource":{"class":{"code":"ambulatory"},"id":"349b67ea-b879-418b-a43e-42856b687f9c","meta":{"lastUpdated":"2019-04-09T11:16:22.813930+00:00","versionId":"MTU1NDgwODU4MjgxMzkzMDAwMA"},"participant":[{"individual":{"reference":"Practitioner/51f8e264-a611-42fb-81ed-43af8d5561cf"}}],"period":{"end":"1974-07-29T20:47:28-04:00","start":"1974-07-29T19:35:28-04:00"},"resourceType":"Encounter","serviceProvider":{"reference":"Organization/c5136ece-f137-44f5-b4b4-62510a27899f"},"status":"finished","subject":{"reference":"Patient/00a5d6b5-eb25-4554-a65e-afc2a82a238d"},"type":[{"coding":[{"code":"185349003","display":"Encounter for 'check-up'","system":"http://snomed.info/sct"}],"text":"Encounter for 'check-up'"}]}},{"resource":{"class":{"code":"ambulatory"},"id":"34c74c73-1d87-4e37-8cc9-f83c20a967f3","meta":{"lastUpdated":"2019-04-09T11:16:23.992111+00:00","versionId":"MTU1NDgwODU4Mzk5MjExMTAwMA"},"participant":[{"individual":{"reference":"Practitioner/51f8e264-a611-42fb-81ed-43af8d5561cf"}}],"period":{"end":"2011-07-22T19:50:28-04:00","start":"2011-07-22T19:35:28-04:00"},"reason":[{"coding":[{"code":"55822004","display":"Hyperlipidemia","system":"http://snomed.info/sct"}]}],"resourceType":"Encounter","serviceProvider":{"reference":"Organization/c5136ece-f137-44f5-b4b4-62510a27899f"},"status":"finished","subject":{"reference":"Patient/00a5d6b5-eb25-4554-a65e-afc2a82a238d"},"type":[{"coding":[{"code":"390906007","display":"Follow-up encounter","system":"http://snomed.info/sct"}],"text":"Follow-up encounter"}]}},{"resource":{"class":{"code":"ambulatory"},"id":"36d9b789-ffb2-4806-bc3a-82beb19e9848","meta":{"lastUpdated":"2019-04-09T11:16:22.828913+00:00","versionId":"MTU1NDgwODU4MjgyODkxMzAwMA"},"participant":[{"individual":{"reference":"Practitioner/51f8e264-a611-42fb-81ed-43af8d5561cf"}}],"period":{"end":"2000-07-24T19:50:28-04:00","start":"2000-07-24T19:35:28-04:00"},"reason":[{"coding":[{"code":"55822004","display":"Hyperlipidemia","system":"http://snomed.info/sct"}]}],"resourceType":"Encounter","serviceProvider":{"reference":"Organization/c5136ece-f137-44f5-b4b4-62510a27899f"},"status":"finished","subject":{"reference":"Patient/00a5d6b5-eb25-4554-a65e-afc2a82a238d"},"type":[{"coding":[{"code":"390906007","display":"Follow-up encounter","system":"http://snomed.info/sct"}],"text":"Follow-up encounter"}]}},{"resource":{"class":{"code":"ambulatory"},"id":"38017421-7b0c-4654-a503-168b040753bc","meta":{"lastUpdated":"2019-04-09T11:16:22.817537+00:00","versionId":"MTU1NDgwODU4MjgxNzUzNzAwMA"},"participant":[{"individual":{"reference":"Practitioner/51f8e264-a611-42fb-81ed-43af8d5561cf"}}],"period":{"end":"1990-07-27T19:50:28-04:00","start":"1990-07-27T19:35:28-04:00"},"reason":[{"coding":[{"code":"55822004","display":"Hyperlipidemia","system":"http://snomed.info/sct"}]}],"resourceType":"Encounter","serviceProvider":{"reference":"Organization/c5136ece-f137-44f5-b4b4-62510a27899f"},"status":"finished","subject":{"reference":"Patient/00a5d6b5-eb25-4554-a65e-afc2a82a238d"},"type":[{"coding":[{"code":"390906007","display":"Follow-up encounter","system":"http://snomed.info/sct"}],"text":"Follow-up encounter"}]}},{"resource":{"class":{"code":"ambulatory"},"id":"410c0564-5669-4492-981e-c002031844f3","meta":{"lastUpdated":"2019-04-09T11:16:27.939594+00:00","versionId":"MTU1NDgwODU4NzkzOTU5NDAwMA"},"participant":[{"individual":{"reference":"Practitioner/51f8e264-a611-42fb-81ed-43af8d5561cf"}}],"period":{"end":"2018-02-08T18:50:28-05:00","start":"2018-02-08T18:35:28-05:00"},"reason":[{"coding":[{"code":"195662009","display":"Acute viral pharyngitis (disorder)","system":"http://snomed.info/sct"}]}],"resourceType":"Encounter","serviceProvider":{"reference":"Organization/c5136ece-f137-44f5-b4b4-62510a27899f"},"status":"finished","subject":{"reference":"Patient/00a5d6b5-eb25-4554-a65e-afc2a82a238d"},"type":[{"coding":[{"code":"185345009","display":"Encounter for symptom","system":"http://snomed.info/sct"}],"text":"Encounter for symptom"}]}},{"resource":{"class":{"code":"ambulatory"},"id":"434408cc-8088-4ccb-a4f6-39831f03b636","meta":{"lastUpdated":"2019-04-09T11:16:22.828899+00:00","versionId":"MTU1NDgwODU4MjgyODg5OTAwMA"},"participant":[{"individual":{"reference":"Practitioner/51f8e264-a611-42fb-81ed-43af8d5561cf"}}],"period":{"end":"1999-07-25T19:50:28-04:00","start":"1999-07-25T19:35:28-04:00"},"reason":[{"coding":[{"code":"55822004","display":"Hyperlipidemia","system":"http://snomed.info/sct"}]}],"resourceType":"Encounter","serviceProvider":{"reference":"Organization/c5136ece-f137-44f5-b4b4-62510a27899f"},"status":"finished","subject":{"reference":"Patient/00a5d6b5-eb25-4554-a65e-afc2a82a238d"},"type":[{"coding":[{"code":"390906007","display":"Follow-up encounter","system":"http://snomed.info/sct"}],"text":"Follow-up encounter"}]}},{"resource":{"class":{"code":"WELLNESS"},"id":"48a7aa3e-e663-4ddf-afde-7dae717cc4fa","meta":{"lastUpdated":"2019-04-09T11:16:27.928704+00:00","versionId":"MTU1NDgwODU4NzkyODcwNDAwMA"},"participant":[{"individual":{"reference":"Practitioner/51f8e264-a611-42fb-81ed-43af8d5561cf"}}],"period":{"end":"2018-05-28T20:20:28-04:00","start":"2018-05-28T19:35:28-04:00"},"resourceType":"Encounter","serviceProvider":{"reference":"Organization/c5136ece-f137-44f5-b4b4-62510a27899f"},"status":"finished","subject":{"reference":"Patient/00a5d6b5-eb25-4554-a65e-afc2a82a238d"},"type":[{"coding":[{"code":"185349003","display":"Encounter for check up (procedure)","system":"http://snomed.info/sct"}],"text":"Encounter for check up (procedure)"}]}},{"resource":{"class":{"code":"ambulatory"},"id":"4b6099bf-20d8-4d11-af5c-9ae225651d0c","meta":{"lastUpdated":"2019-04-09T11:16:22.834191+00:00","versionId":"MTU1NDgwODU4MjgzNDE5MTAwMA"},"participant":[{"individual":{"reference":"Practitioner/51f8e264-a611-42fb-81ed-43af8d5561cf"}}],"period":{"end":"2001-07-24T19:50:28-04:00","start":"2001-07-24T19:35:28-04:00"},"reason":[{"coding":[{"code":"55822004","display":"Hyperlipidemia","system":"http://snomed.info/sct"}]}],"resourceType":"Encounter","serviceProvider":{"reference":"Organization/c5136ece-f137-44f5-b4b4-62510a27899f"},"status":"finished","subject":{"reference":"Patient/00a5d6b5-eb25-4554-a65e-afc2a82a238d"},"type":[{"coding":[{"code":"390906007","display":"Follow-up encounter","system":"http://snomed.info/sct"}],"text":"Follow-up encounter"}]}},{"resource":{"class":{"code":"ambulatory"},"id":"4c16586e-b799-490d-86d2-f2850861df46","meta":{"lastUpdated":"2019-04-09T11:16:26.894975+00:00","versionId":"MTU1NDgwODU4Njg5NDk3NTAwMA"},"participant":[{"individual":{"reference":"Practitioner/51f8e264-a611-42fb-81ed-43af8d5561cf"}}],"period":{"end":"2017-07-20T19:50:28-04:00","start":"2017-07-20T19:35:28-04:00"},"reason":[{"coding":[{"code":"55822004","display":"Hyperlipidemia","system":"http://snomed.info/sct"}]}],"resourceType":"Encounter","serviceProvider":{"reference":"Organization/c5136ece-f137-44f5-b4b4-62510a27899f"},"status":"finished","subject":{"reference":"Patient/00a5d6b5-eb25-4554-a65e-afc2a82a238d"},"type":[{"coding":[{"code":"390906007","display":"Follow-up encounter","system":"http://snomed.info/sct"}],"text":"Follow-up encounter"}]}},{"resource":{"class":{"code":"WELLNESS"},"id":"544b096b-7f14-4a98-a6f4-d871041cf15f","meta":{"lastUpdated":"2019-04-09T11:16:22.813055+00:00","versionId":"MTU1NDgwODU4MjgxMzA1NTAwMA"},"participant":[{"individual":{"reference":"Practitioner/51f8e264-a611-42fb-81ed-43af8d5561cf"}}],"period":{"end":"1986-07-07T20:20:28-04:00","start":"1986-07-07T19:35:28-04:00"},"resourceType":"Encounter","serviceProvider":{"reference":"Organization/c5136ece-f137-44f5-b4b4-62510a27899f"},"status":"finished","subject":{"reference":"Patient/00a5d6b5-eb25-4554-a65e-afc2a82a238d"},"type":[{"coding":[{"code":"185349003","display":"Encounter for check up (procedure)","system":"http://snomed.info/sct"}],"text":"Encounter for check up (procedure)"}]}},{"resource":{"class":{"code":"WELLNESS"},"id":"55e81d4b-ede3-4550-8119-af8ec7311663","meta":{"lastUpdated":"2019-04-09T11:16:22.796964+00:00","versionId":"MTU1NDgwODU4Mjc5Njk2NDAwMA"},"participant":[{"individual":{"reference":"Practitioner/51f8e264-a611-42fb-81ed-43af8d5561cf"}}],"period":{"end":"1949-05-30T19:50:28-04:00","start":"1949-05-30T19:35:28-04:00"},"resourceType":"Encounter","serviceProvider":{"reference":"Organization/c5136ece-f137-44f5-b4b4-62510a27899f"},"status":"finished","subject":{"reference":"Patient/00a5d6b5-eb25-4554-a65e-afc2a82a238d"},"type":[{"coding":[{"code":"185349003","display":"Encounter for check up (procedure)","system":"http://snomed.info/sct"}],"text":"Encounter for check up (procedure)"}]}},{"resource":{"class":{"code":"ambulatory"},"id":"59b3550d-b894-437b-a1f6-6e72e97d0f2d","meta":{"lastUpdated":"2019-04-09T11:16:23.902656+00:00","versionId":"MTU1NDgwODU4MzkwMjY1NjAwMA"},"participant":[{"individual":{"reference":"Practitioner/51f8e264-a611-42fb-81ed-43af8d5561cf"}}],"period":{"end":"2008-07-22T19:50:28-04:00","start":"2008-07-22T19:35:28-04:00"},"reason":[{"coding":[{"code":"55822004","display":"Hyperlipidemia","system":"http://snomed.info/sct"}]}],"resourceType":"Encounter","serviceProvider":{"reference":"Organization/c5136ece-f137-44f5-b4b4-62510a27899f"},"status":"finished","subject":{"reference":"Patient/00a5d6b5-eb25-4554-a65e-afc2a82a238d"},"type":[{"coding":[{"code":"390906007","display":"Follow-up encounter","system":"http://snomed.info/sct"}],"text":"Follow-up encounter"}]}},{"resource":{"class":{"code":"ambulatory"},"id":"59f1d614-0737-4a36-9d99-9a993eecb2e5","meta":{"lastUpdated":"2019-04-09T11:16:22.817534+00:00","versionId":"MTU1NDgwODU4MjgxNzUzNDAwMA"},"participant":[{"individual":{"reference":"Practitioner/51f8e264-a611-42fb-81ed-43af8d5561cf"}}],"period":{"end":"1987-07-28T19:50:28-04:00","start":"1987-07-28T19:35:28-04:00"},"reason":[{"coding":[{"code":"55822004","display":"Hyperlipidemia","system":"http://snomed.info/sct"}]}],"resourceType":"Encounter","serviceProvider":{"reference":"Organization/c5136ece-f137-44f5-b4b4-62510a27899f"},"status":"finished","subject":{"reference":"Patient/00a5d6b5-eb25-4554-a65e-afc2a82a238d"},"type":[{"coding":[{"code":"390906007","display":"Follow-up encounter","system":"http://snomed.info/sct"}],"text":"Follow-up encounter"}]}},{"resource":{"class":{"code":"ambulatory"},"id":"5af36d55-1065-45a9-8371-2dba145e6ed8","meta":{"lastUpdated":"2019-04-09T11:16:25.891852+00:00","versionId":"MTU1NDgwODU4NTg5MTg1MjAwMA"},"participant":[{"individual":{"reference":"Practitioner/51f8e264-a611-42fb-81ed-43af8d5561cf"}}],"period":{"end":"2014-07-21T19:50:28-04:00","start":"2014-07-21T19:35:28-04:00"},"reason":[{"coding":[{"code":"55822004","display":"Hyperlipidemia","system":"http://snomed.info/sct"}]}],"resourceType":"Encounter","serviceProvider":{"reference":"Organization/c5136ece-f137-44f5-b4b4-62510a27899f"},"status":"finished","subject":{"reference":"Patient/00a5d6b5-eb25-4554-a65e-afc2a82a238d"},"type":[{"coding":[{"code":"390906007","display":"Follow-up encounter","system":"http://snomed.info/sct"}],"text":"Follow-up encounter"}]}},{"resource":{"class":{"code":"ambulatory"},"id":"5d6d1b2a-67d3-4d5e-b6a1-d953235572d6","meta":{"lastUpdated":"2019-04-09T11:16:24.881316+00:00","versionId":"MTU1NDgwODU4NDg4MTMxNjAwMA"},"participant":[{"individual":{"reference":"Practitioner/51f8e264-a611-42fb-81ed-43af8d5561cf"}}],"period":{"end":"2012-07-21T19:50:28-04:00","start":"2012-07-21T19:35:28-04:00"},"reason":[{"coding":[{"code":"55822004","display":"Hyperlipidemia","system":"http://snomed.info/sct"}]}],"resourceType":"Encounter","serviceProvider":{"reference":"Organization/c5136ece-f137-44f5-b4b4-62510a27899f"},"status":"finished","subject":{"reference":"Patient/00a5d6b5-eb25-4554-a65e-afc2a82a238d"},"type":[{"coding":[{"code":"390906007","display":"Follow-up encounter","system":"http://snomed.info/sct"}],"text":"Follow-up encounter"}]}},{"resource":{"class":{"code":"ambulatory"},"id":"625f0be9-233a-4751-8953-05848be0ea7f","meta":{"lastUpdated":"2019-04-09T11:16:22.835419+00:00","versionId":"MTU1NDgwODU4MjgzNTQxOTAwMA"},"participant":[{"individual":{"reference":"Practitioner/51f8e264-a611-42fb-81ed-43af8d5561cf"}}],"period":{"end":"2004-07-23T19:50:28-04:00","start":"2004-07-23T19:35:28-04:00"},"reason":[{"coding":[{"code":"55822004","display":"Hyperlipidemia","system":"http://snomed.info/sct"}]}],"resourceType":"Encounter","serviceProvider":{"reference":"Organization/c5136ece-f137-44f5-b4b4-62510a27899f"},"status":"finished","subject":{"reference":"Patient/00a5d6b5-eb25-4554-a65e-afc2a82a238d"},"type":[{"coding":[{"code":"390906007","display":"Follow-up encounter","system":"http://snomed.info/sct"}],"text":"Follow-up encounter"}]}},{"resource":{"class":{"code":"ambulatory"},"id":"6357a9b3-0a55-492e-8e8a-610df3adfd6c","meta":{"lastUpdated":"2019-04-09T11:16:23.879995+00:00","versionId":"MTU1NDgwODU4Mzg3OTk5NTAwMA"},"participant":[{"individual":{"reference":"Practitioner/51f8e264-a611-42fb-81ed-43af8d5561cf"}}],"period":{"end":"2006-07-23T19:50:28-04:00","start":"2006-07-23T19:35:28-04:00"},"reason":[{"coding":[{"code":"55822004","display":"Hyperlipidemia","system":"http://snomed.info/sct"}]}],"resourceType":"Encounter","serviceProvider":{"reference":"Organization/c5136ece-f137-44f5-b4b4-62510a27899f"},"status":"finished","subject":{"reference":"Patient/00a5d6b5-eb25-4554-a65e-afc2a82a238d"},"type":[{"coding":[{"code":"390906007","display":"Follow-up encounter","system":"http://snomed.info/sct"}],"text":"Follow-up encounter"}]}},{"resource":{"class":{"code":"WELLNESS"},"id":"67973657-2949-440a-a092-d11a84f40814","meta":{"lastUpdated":"2019-04-09T11:16:22.814937+00:00","versionId":"MTU1NDgwODU4MjgxNDkzNzAwMA"},"participant":[{"individual":{"reference":"Practitioner/51f8e264-a611-42fb-81ed-43af8d5561cf"}}],"period":{"end":"1963-09-30T19:50:28-04:00","start":"1963-09-30T19:35:28-04:00"},"resourceType":"Encounter","serviceProvider":{"reference":"Organization/c5136ece-f137-44f5-b4b4-62510a27899f"},"status":"finished","subject":{"reference":"Patient/00a5d6b5-eb25-4554-a65e-afc2a82a238d"},"type":[{"coding":[{"code":"185349003","display":"Encounter for check up (procedure)","system":"http://snomed.info/sct"}],"text":"Encounter for check up (procedure)"}]}},{"resource":{"class":{"code":"WELLNESS"},"id":"702a2cfe-367e-4d83-9f7c-8f7dee4fb095","meta":{"lastUpdated":"2019-04-09T11:16:24.882599+00:00","versionId":"MTU1NDgwODU4NDg4MjU5OTAwMA"},"participant":[{"individual":{"reference":"Practitioner/51f8e264-a611-42fb-81ed-43af8d5561cf"}}],"period":{"end":"2012-12-03T19:05:28-05:00","start":"2012-12-03T18:35:28-05:00"},"resourceType":"Encounter","serviceProvider":{"reference":"Organization/c5136ece-f137-44f5-b4b4-62510a27899f"},"status":"finished","subject":{"reference":"Patient/00a5d6b5-eb25-4554-a65e-afc2a82a238d"},"type":[{"coding":[{"code":"185349003","display":"Encounter for check up (procedure)","system":"http://snomed.info/sct"}],"text":"Encounter for check up (procedure)"}]}},{"resource":{"class":{"code":"WELLNESS"},"id":"7603de6f-8715-420f-b770-1b52aa7903b3","meta":{"lastUpdated":"2019-04-09T11:16:23.951431+00:00","versionId":"MTU1NDgwODU4Mzk1MTQzMTAwMA"},"participant":[{"individual":{"reference":"Practitioner/51f8e264-a611-42fb-81ed-43af8d5561cf"}}],"period":{"end":"2010-11-22T19:20:28-05:00","start":"2010-11-22T18:35:28-05:00"},"resourceType":"Encounter","serviceProvider":{"reference":"Organization/c5136ece-f137-44f5-b4b4-62510a27899f"},"status":"finished","subject":{"reference":"Patient/00a5d6b5-eb25-4554-a65e-afc2a82a238d"},"type":[{"coding":[{"code":"185349003","display":"Encounter for check up (procedure)","system":"http://snomed.info/sct"}],"text":"Encounter for check up (procedure)"}]}},{"resource":{"class":{"code":"WELLNESS"},"id":"78444995-0330-449a-b716-5f22f740c235","meta":{"lastUpdated":"2019-04-09T11:16:22.828404+00:00","versionId":"MTU1NDgwODU4MjgyODQwNDAwMA"},"participant":[{"individual":{"reference":"Practitioner/51f8e264-a611-42fb-81ed-43af8d5561cf"}}],"period":{"end":"1981-06-08T20:20:28-04:00","start":"1981-06-08T19:35:28-04:00"},"resourceType":"Encounter","serviceProvider":{"reference":"Organization/c5136ece-f137-44f5-b4b4-62510a27899f"},"status":"finished","subject":{"reference":"Patient/00a5d6b5-eb25-4554-a65e-afc2a82a238d"},"type":[{"coding":[{"code":"185349003","display":"Encounter for check up (procedure)","system":"http://snomed.info/sct"}],"text":"Encounter for check up (procedure)"}]}},{"resource":{"class":{"code":"ambulatory"},"id":"79128475-1ec2-496b-82d9-82db40104789","meta":{"lastUpdated":"2019-04-09T11:16:22.828403+00:00","versionId":"MTU1NDgwODU4MjgyODQwMzAwMA"},"participant":[{"individual":{"reference":"Practitioner/51f8e264-a611-42fb-81ed-43af8d5561cf"}}],"period":{"end":"1994-07-26T19:50:28-04:00","start":"1994-07-26T19:35:28-04:00"},"reason":[{"coding":[{"code":"55822004","display":"Hyperlipidemia","system":"http://snomed.info/sct"}]}],"resourceType":"Encounter","serviceProvider":{"reference":"Organization/c5136ece-f137-44f5-b4b4-62510a27899f"},"status":"finished","subject":{"reference":"Patient/00a5d6b5-eb25-4554-a65e-afc2a82a238d"},"type":[{"coding":[{"code":"390906007","display":"Follow-up encounter","system":"http://snomed.info/sct"}],"text":"Follow-up encounter"}]}}],"link":[{"url":"https://syntheticmass.mitre.org/v1/fhir/Patient/00a5d6b5-eb25-4554-a65e-afc2a82a238d/$everything?_count=100&page_token=CoIBcHJvamVjdHMvc3ludGhlYS9sb2NhdGlvbnMvdXMtY2VudHJhbDEvZGF0YXNldHMvMjAxOTAyL2ZoaXJTdG9yZXMvc3ludGhldGljLW1hc3MvZmhpci9QYXRpZW50LzAwYTVkNmI1LWViMjUtNDU1NC1hNjVlLWFmYzJhODJhMjM4ZA%3D%3D","relation":"previous"},{"url":"https://syntheticmass.mitre.org/v1/fhir/Patient/00a5d6b5-eb25-4554-a65e-afc2a82a238d/$everything?_count=100&page_token=CoIBcHJvamVjdHMvc3ludGhlYS9sb2NhdGlvbnMvdXMtY2VudHJhbDEvZGF0YXNldHMvMjAxOTAyL2ZoaXJTdG9yZXMvc3ludGhldGljLW1hc3MvZmhpci9QYXRpZW50LzAwYTVkNmI1LWViMjUtNDU1NC1hNjVlLWFmYzJhODJhMjM4ZCDIAQ%3D%3D","relation":"next"}],"total":743}
