{"resourceType":"Bundle","type":"searchset","entry":[{"resource":{"billablePeriod":{"end":"2011-10-05T15:37:20-04:00","start":"2011-10-05T15:22:20-04:00"},"id":"d37a435e-d61e-4796-a0ba-3b1e832d92ae","information":[{"category":{"coding":[{"code":"info","system":"http://hl7.org/fhir/claiminformationcategory"}]},"sequence":1,"valueReference":{"reference":"Immunization/c1c74273-9a0c-43a6-997e-6b930100c2d7"}},{"category":{"coding":[{"code":"info","system":"http://hl7.org/fhir/claiminformationcategory"}]},"sequence":2,"valueReference":{"reference":"Immunization/9f7bb8aa-cbdc-4903-9367-f38d8bd2b99a"}},{"category":{"coding":[{"code":"info","system":"http://hl7.org/fhir/claiminformationcategory"}]},"sequence":3,"valueReference":{"reference":"Immunization/fb233b27-a626-4083-9140-ccad5210472f"}}],"item":[{"encounter":[{"reference":"Encounter/2a8364bd-4845-4b2d-9113-3181d58f45f9"}],"sequence":1},{"informationLinkId":[1],"net":{"code":"USD","system":"urn:iso:std:iso:4217","value":140.52},"sequence":2},{"informationLinkId":[2],"net":{"code":"USD","system":"urn:iso:std:iso:4217","value":140.52},"sequence":3},{"informationLinkId":[3],"net":{"code":"USD","system":"urn:iso:std:iso:4217","value":140.52},"sequence":4}],"meta":{"lastUpdated":"2019-04-08T14:22:41.461429+00:00","versionId":"MTU1NDczMzM2MTQ2MTQyOTAwMA"},"organization":{"reference":"Organization/4860db12-0cde-45c6-8e62-01cbbcfd1dee"},"patient":{"reference":"Patient/00edcd24-2d46-464d-90c0-dffbd0c7384c"},"resourceType":"Claim","status":"active","total":{"code":"USD","system":"urn:iso:std:iso:4217","value":546.56},"use":"complete"}},{"resource":{"billablePeriod":{"end":"2004-10-31T14:37:20-05:00","start":"2004-10-31T14:22:20-05:00"},"id":"d93ddd17-1ad6-4709-b01a-f1cfffea5ce0","item":[{"encounter":[{"reference":"Encounter/9c4db334-fcca-4ca8-8165-052c5ca74731"}],"sequence":1}],"meta":{"lastUpdated":"2019-04-08T14:22:35.314829+00:00","versionId":"MTU1NDczMzM1NTMxNDgyOTAwMA"},"organization":{"reference":"Organization/4860db12-0cde-45c6-8e62-01cbbcfd1dee"},"patient":{"reference":"Patient/00edcd24-2d46-464d-90c0-dffbd0c7384c"},"resourceType":"Claim","status":"active","total":{"code":"USD","system":"urn:iso:std:iso:4217","value":125},"use":"complete"}},{"resource":{"billablePeriod":{"end":"2018-01-23T14:37:20-05:00","start":"2018-01-23T14:22:20-05:00"},"id":"dd6142c5-dc57-4e1a-9f6b-de9d8d78dd9c","item":[{"encounter":[{"reference":"Encounter/c86fd59d-b96b-45ff-9a56-716b36f45966"}],"sequence":1}],"meta":{"lastUpdated":"2019-04-08T14:22:53.916128+00:00","versionId":"MTU1NDczMzM3MzkxNjEyODAwMA"},"organization":{"reference":"Organization/4860db12-0cde-45c6-8e62-01cbbcfd1dee"},"patient":{"reference":"Patient/00edcd24-2d46-464d-90c0-dffbd0c7384c"},"resourceType":"Claim","status":"active","total":{"code":"USD","system":"urn:iso:std:iso:4217","value":125},"use":"complete"}},{"resource":{"billablePeriod":{"end":"2017-12-24T14:37:20-05:00","start":"2017-12-24T14:22:20-05:00"},"id":"df44eb1b-095d-44f3-8d02-c5de17359363","item":[{"encounter":[{"reference":"Encounter/95a769c7-020e-4845-90e4-fcb2cb4dc82f"}],"sequence":1}],"meta":{"lastUpdated":"2019-04-08T14:22:53.928093+00:00","versionId":"MTU1NDczMzM3MzkyODA5MzAwMA"},"organization":{"reference":"Organization/4860db12-0cde-45c6-8e62-01cbbcfd1dee"},"patient":{"reference":"Patient/00edcd24-2d46-464d-90c0-dffbd0c7384c"},"resourceType":"Claim","status":"active","total":{"code":"USD","system":"urn:iso:std:iso:4217","value":125},"use":"complete"}},{"resource":{"billablePeriod":{"end":"2018-02-22T14:37:20-05:00","start":"2018-02-22T14:22:20-05:00"},"id":"e230f7b6-9ffc-4073-ad20-060fc27ea26c","item":[{"encounter":[{"reference":"Encounter/83f255cf-f3d0-4759-bf79-9eb07453f4ca"}],"sequence":1}],"meta":{"lastUpdated":"2019-04-08T14:22:53.931512+00:00","versionId":"MTU1NDczMzM3MzkzMTUxMjAwMA"},"organization":{"reference":"Organization/4860db12-0cde-45c6-8e62-01cbbcfd1dee"},"patient":{"reference":"Patient/00edcd24-2d46-464d-90c0-dffbd0c7384c"},"resourceType":"Claim","status":"active","total":{"code":"USD","system":"urn:iso:std:iso:4217","value":125},"use":"complete"}},{"resource":{"billablePeriod":{"end":"2015-09-01T16:22:20-04:00","start":"2015-09-01T15:22:20-04:00"},"id":"e9b91df4-8aeb-440f-a911-e5713551ac53","item":[{"encounter":[{"reference":"Encounter/3055077c-86e1-4871-9c04-0aa920d1687a"}],"sequence":1}],"meta":{"lastUpdated":"2019-04-08T14:22:48.794526+00:00","versionId":"MTU1NDczMzM2ODc5NDUyNjAwMA"},"organization":{"reference":"Organization/4860db12-0cde-45c6-8e62-01cbbcfd1dee"},"patient":{"reference":"Patient/00edcd24-2d46-464d-90c0-dffbd0c7384c"},"resourceType":"Claim","status":"active","total":{"code":"USD","system":"urn:iso:std:iso:4217","value":125},"use":"complete"}},{"resource":{"billablePeriod":{"end":"1991-01-09T14:37:20-05:00","start":"1991-01-09T14:22:20-05:00"},"diagnosis":[{"diagnosisReference":{"reference":"Condition/77b549c5-8b15-45d2-8bfb-8449a4a42c66"},"sequence":1}],"id":"e9d1dd3b-338b-49bc-a20b-2c4bb724302d","item":[{"encounter":[{"reference":"Encounter/fb8a97c1-8b83-4766-af75-679f2c4cea40"}],"sequence":1},{"diagnosisLinkId":[1],"sequence":2}],"meta":{"lastUpdated":"2019-04-08T14:22:34.258588+00:00","versionId":"MTU1NDczMzM1NDI1ODU4ODAwMA"},"organization":{"reference":"Organization/4860db12-0cde-45c6-8e62-01cbbcfd1dee"},"patient":{"reference":"Patient/00edcd24-2d46-464d-90c0-dffbd0c7384c"},"resourceType":"Claim","status":"active","total":{"code":"USD","system":"urn:iso:std:iso:4217","value":125},"use":"complete"}},{"resource":{"billablePeriod":{"end":"1999-02-24T19:37:20-05:00","start":"1999-02-24T14:22:20-05:00"},"id":"e9d69907-aeef-492c-9241-622f085ecf81","item":[{"encounter":[{"reference":"Encounter/58eb939e-429e-4a19-ba91-4ac6c4d3b6a3"}],"sequence":1}],"meta":{"lastUpdated":"2019-04-08T14:22:34.262610+00:00","versionId":"MTU1NDczMzM1NDI2MjYxMDAwMA"},"organization":{"reference":"Organization/4860db12-0cde-45c6-8e62-01cbbcfd1dee"},"patient":{"reference":"Patient/00edcd24-2d46-464d-90c0-dffbd0c7384c"},"resourceType":"Claim","status":"active","total":{"code":"USD","system":"urn:iso:std:iso:4217","value":125},"use":"complete"}},{"resource":{"billablePeriod":{"end":"2017-02-15T14:37:20-05:00","start":"2017-02-15T14:22:20-05:00"},"id":"ea37ac80-979e-492d-b576-82caeb528497","item":[{"encounter":[{"reference":"Encounter/6f087418-9d51-4c6a-a05a-6af32cb93d9e"}],"sequence":1}],"meta":{"lastUpdated":"2019-04-08T14:22:51.895582+00:00","versionId":"MTU1NDczMzM3MTg5NTU4MjAwMA"},"organization":{"reference":"Organization/4860db12-0cde-45c6-8e62-01cbbcfd1dee"},"patient":{"reference":"Patient/00edcd24-2d46-464d-90c0-dffbd0c7384c"},"resourceType":"Claim","status":"active","total":{"code":"USD","system":"urn:iso:std:iso:4217","value":125},"use":"complete"}},{"resource":{"billablePeriod":{"end":"1990-12-20T14:22:20-05:00","start":"1990-12-19T14:22:20-05:00"},"diagnosis":[{"diagnosisReference":{"reference":"Condition/16763948-aa89-456b-9c40-0b453e5714be"},"sequence":1}],"id":"ea884432-7609-46e8-891c-fcfbba05b786","item":[{"encounter":[{"reference":"Encounter/42aa7f50-2641-4491-a208-aaaea5f24f80"}],"sequence":1},{"diagnosisLinkId":[1],"sequence":2}],"meta":{"lastUpdated":"2019-04-08T14:22:34.256995+00:00","versionId":"MTU1NDczMzM1NDI1Njk5NTAwMA"},"organization":{"reference":"Organization/4860db12-0cde-45c6-8e62-01cbbcfd1dee"},"patient":{"reference":"Patient/00edcd24-2d46-464d-90c0-dffbd0c7384c"},"resourceType":"Claim","status":"active","total":{"code":"USD","system":"urn:iso:std:iso:4217","value":75},"use":"complete"}},{"resource":{"billablePeriod":{"end":"2007-10-31T15:37:20-04:00","start":"2007-10-31T15:22:20-04:00"},"id":"ed15cbb4-a392-43e2-9bbd-adb0a35e81e7","item":[{"encounter":[{"reference":"Encounter/564bcb6f-e29c-4c30-ae82-0bdbc6c6488e"}],"sequence":1}],"meta":{"lastUpdated":"2019-04-08T14:22:36.323637+00:00","versionId":"MTU1NDczMzM1NjMyMzYzNzAwMA"},"organization":{"reference":"Organization/4860db12-0cde-45c6-8e62-01cbbcfd1dee"},"patient":{"reference":"Patient/00edcd24-2d46-464d-90c0-dffbd0c7384c"},"resourceType":"Claim","status":"active","total":{"code":"USD","system":"urn:iso:std:iso:4217","value":125},"use":"complete"}},{"resource":{"billablePeriod":{"end":"2001-01-15T15:22:20-05:00","start":"2001-01-15T14:22:20-05:00"},"diagnosis":[{"diagnosisReference":{"reference":"Condition/849891d7-497f-44bf-bb09-184cb76dd668"},"sequence":1}],"id":"f9c8986f-61dc-44a3-8081-4c7241c2dc95","item":[{"encounter":[{"reference":"Encounter/61730cc2-dfe4-48a8-8a1b-0ec68dbf4c3f"}],"sequence":1},{"diagnosisLinkId":[1],"sequence":2}],"meta":{"lastUpdated":"2019-04-08T14:22:34.252759+00:00","versionId":"MTU1NDczMzM1NDI1Mjc1OTAwMA"},"organization":{"reference":"Organization/4860db12-0cde-45c6-8e62-01cbbcfd1dee"},"patient":{"reference":"Patient/00edcd24-2d46-464d-90c0-dffbd0c7384c"},"resourceType":"Claim","status":"active","total":{"code":"USD","system":"urn:iso:std:iso:4217","value":125},"use":"complete"}},{"resource":{"billablePeriod":{"end":"2017-10-28T15:37:20-04:00","start":"2017-10-28T15:22:20-04:00"},"id":"fa914e70-8a81-4ac1-a0c7-a36a5ada51f5","item":[{"encounter":[{"reference":"Encounter/6f5ab81f-8c12-4b7d-b03a-bd59d5db002a"}],"sequence":1}],"meta":{"lastUpdated":"2019-04-08T14:22:52.926213+00:00","versionId":"MTU1NDczMzM3MjkyNjIxMzAwMA"},"organization":{"reference":"Organization/4860db12-0cde-45c6-8e62-01cbbcfd1dee"},"patient":{"reference":"Patient/00edcd24-2d46-464d-90c0-dffbd0c7384c"},"prescription":{"reference":"MedicationRequest/f85ac457-ff3f-432c-a409-9285153a1752"},"resourceType":"Claim","status":"active","total":{"code":"USD","system":"urn:iso:std:iso:4217","value":255},"use":"complete"}},{"resource":{"billablePeriod":{"end":"2016-03-17T15:37:20-04:00","start":"2016-03-17T15:22:20-04:00"},"id":"fcac3823-4e73-4687-afda-d4a356fc03c8","item":[{"encounter":[{"reference":"Encounter/88f72efa-cc3d-483b-9cfb-f9f4c8a036b7"}],"sequence":1}],"meta":{"lastUpdated":"2019-04-08T14:22:49.825186+00:00","versionId":"MTU1NDczMzM2OTgyNTE4NjAwMA"},"organization":{"reference":"Organization/4860db12-0cde-45c6-8e62-01cbbcfd1dee"},"patient":{"reference":"Patient/00edcd24-2d46-464d-90c0-dffbd0c7384c"},"resourceType":"Claim","status":"active","total":{"code":"USD","system":"urn:iso:std:iso:4217","value":125},"use":"complete"}},{"resource":{"billablePeriod":{"end":"2011-10-30T15:37:20-04:00","start":"2011-10-30T15:22:20-04:00"},"id":"ff238ebb-6657-4782-b19f-f3064a18a7cf","item":[{"encounter":[{"reference":"Encounter/3b3541c7-8526-4729-814f-24a8cebf1dbd"}],"sequence":1}],"meta":{"lastUpdated":"2019-04-08T14:22:42.531217+00:00","versionId":"MTU1NDczMzM2MjUzMTIxNzAwMA"},"organization":{"reference":"Organization/4860db12-0cde-45c6-8e62-01cbbcfd1dee"},"patient":{"reference":"Patient/00edcd24-2d46-464d-90c0-dffbd0c7384c"},"resourceType":"Claim","status":"active","total":{"code":"USD","system":"urn:iso:std:iso:4217","value":125},"use":"complete"}},{"resource":{"assertedDate":"1990-12-19T14:22:20-05:00","clinicalStatus":"active","code":{"coding":[{"code":"124171000119105","display":"Chronic intractable migraine without aura","system":"http://snomed.info/sct"}],"text":"Chronic intractable migraine without aura"},"context":{"reference":"Encounter/42aa7f50-2641-4491-a208-aaaea5f24f80"},"id":"16763948-aa89-456b-9c40-0b453e5714be","meta":{"lastUpdated":"2019-04-08T14:22:34.255927+00:00","versionId":"MTU1NDczMzM1NDI1NTkyNzAwMA"},"onsetDateTime":"1990-12-19T14:22:20-05:00","resourceType":"Condition","subject":{"reference":"Patient/00edcd24-2d46-464d-90c0-dffbd0c7384c"},"verificationStatus":"confirmed"}},{"resource":{"assertedDate":"1974-06-13T15:22:20-04:00","clinicalStatus":"active","code":{"coding":[{"code":"40055000","display":"Chronic sinusitis (disorder)","system":"http://snomed.info/sct"}],"text":"Chronic sinusitis (disorder)"},"context":{"reference":"Encounter/773c4d8f-5ddd-41fe-a523-0abeeec83595"},"id":"181a0037-10c8-43ec-b7c5-a39604ed6336","meta":{"lastUpdated":"2019-04-08T14:22:34.245372+00:00","versionId":"MTU1NDczMzM1NDI0NTM3MjAwMA"},"onsetDateTime":"1974-06-13T15:22:20-04:00","resourceType":"Condition","subject":{"reference":"Patient/00edcd24-2d46-464d-90c0-dffbd0c7384c"},"verificationStatus":"confirmed"}},{"resource":{"assertedDate":"2005-09-14T15:22:20-04:00","clinicalStatus":"active","code":{"coding":[{"code":"15777000","display":"Prediabetes","system":"http://snomed.info/sct"}],"text":"Prediabetes"},"context":{"reference":"Encounter/f98fc8ff-8584-4cb5-b303-a1fb8667096f"},"id":"378ebb1a-b23b-4109-8620-1ea8d9e38aac","meta":{"lastUpdated":"2019-04-08T14:22:35.320611+00:00","versionId":"MTU1NDczMzM1NTMyMDYxMTAwMA"},"onsetDateTime":"2005-09-14T15:22:20-04:00","resourceType":"Condition","subject":{"reference":"Patient/00edcd24-2d46-464d-90c0-dffbd0c7384c"},"verificationStatus":"confirmed"}},{"resource":{"assertedDate":"1990-03-04T14:22:20-05:00","clinicalStatus":"active","code":{"coding":[{"code":"196416002","display":"Impacted molars","system":"http://snomed.info/sct"}],"text":"Impacted molars"},"context":{"reference":"Encounter/39e0a8a0-7f91-4767-814d-44ccbfc34daa"},"id":"3d55479c-e277-42f9-bbf1-a05054bedd5c","meta":{"lastUpdated":"2019-04-08T14:22:34.244276+00:00","versionId":"MTU1NDczMzM1NDI0NDI3NjAwMA"},"onsetDateTime":"1990-03-04T14:22:20-05:00","resourceType":"Condition","subject":{"reference":"Patient/00edcd24-2d46-464d-90c0-dffbd0c7384c"},"verificationStatus":"confirmed"}},{"resource":{"abatementDateTime":"2017-06-09T15:22:20-04:00","assertedDate":"2017-05-10T15:22:20-04:00","clinicalStatus":"resolved","code":{"coding":[{"code":"263102004","display":"Fracture subluxation of wrist","system":"http://snomed.info/sct"}],"text":"Fracture subluxation of wrist"},"context":{"reference":"Encounter/d1ede896-1b6f-49a4-ae16-61a94551b5e6"},"id":"6e6bf3f3-02c5-46fa-9090-34feeda241fc","meta":{"lastUpdated":"2019-04-08T14:22:51.894569+00:00","versionId":"MTU1NDczMzM3MTg5NDU2OTAwMA"},"onsetDateTime":"2017-05-10T15:22:20-04:00","resourceType":"Condition","subject":{"reference":"Patient/00edcd24-2d46-464d-90c0-dffbd0c7384c"},"verificationStatus":"confirmed"}},{"resource":{"assertedDate":"1991-01-09T14:22:20-05:00","clinicalStatus":"active","code":{"coding":[{"code":"162864005","display":"Body mass index 30+ - obesity (finding)","system":"http://snomed.info/sct"}],"text":"Body mass index 30+ - obesity (finding)"},"context":{"reference":"Encounter/fb8a97c1-8b83-4766-af75-679f2c4cea40"},"id":"77b549c5-8b15-45d2-8bfb-8449a4a42c66","meta":{"lastUpdated":"2019-04-08T14:22:34.254774+00:00","versionId":"MTU1NDczMzM1NDI1NDc3NDAwMA"},"onsetDateTime":"1991-01-09T14:22:20-05:00","resourceType":"Condition","subject":{"reference":"Patient/00edcd24-2d46-464d-90c0-dffbd0c7384c"},"verificationStatus":"confirmed"}},{"resource":{"assertedDate":"2001-01-15T14:22:20-05:00","clinicalStatus":"active","code":{"coding":[{"code":"55680006","display":"Drug overdose","system":"http://snomed.info/sct"}],"text":"Drug overdose"},"context":{"reference":"Encounter/61730cc2-dfe4-48a8-8a1b-0ec68dbf4c3f"},"id":"849891d7-497f-44bf-bb09-184cb76dd668","meta":{"lastUpdated":"2019-04-08T14:22:34.256991+00:00","versionId":"MTU1NDczMzM1NDI1Njk5MTAwMA"},"onsetDateTime":"2001-01-15T14:22:20-05:00","resourceType":"Condition","subject":{"reference":"Patient/00edcd24-2d46-464d-90c0-dffbd0c7384c"},"verificationStatus":"confirmed"}},{"resource":{"abatementDateTime":"2014-02-28T14:22:20-05:00","assertedDate":"2014-02-07T14:22:20-05:00","clinicalStatus":"resolved","code":{"coding":[{"code":"444814009","display":"Viral sinusitis (disorder)","system":"http://snomed.info/sct"}],"text":"Viral sinusitis (disorder)"},"context":{"reference":"Encounter/83cebc5e-4795-445e-bbe1-f2fe8a344c18"},"id":"89162cba-f51d-4188-9565-94a4ce6f5ee9","meta":{"lastUpdated":"2019-04-08T14:22:46.643671+00:00","versionId":"MTU1NDczMzM2NjY0MzY3MTAwMA"},"onsetDateTime":"2014-02-07T14:22:20-05:00","resourceType":"Condition","subject":{"reference":"Patient/00edcd24-2d46-464d-90c0-dffbd0c7384c"},"verificationStatus":"confirmed"}},{"resource":{"assertedDate":"2000-10-11T15:22:20-04:00","clinicalStatus":"active","code":{"coding":[{"code":"55822004","display":"Hyperlipidemia","system":"http://snomed.info/sct"}],"text":"Hyperlipidemia"},"context":{"reference":"Encounter/4ee36405-94e8-47be-a742-cf7df78e16bf"},"id":"d2f5f9c0-6019-457b-b53e-8452ab425afa","meta":{"lastUpdated":"2019-04-08T14:22:34.251915+00:00","versionId":"MTU1NDczMzM1NDI1MTkxNTAwMA"},"onsetDateTime":"2000-10-11T15:22:20-04:00","resourceType":"Condition","subject":{"reference":"Patient/00edcd24-2d46-464d-90c0-dffbd0c7384c"},"verificationStatus":"confirmed"}},{"resource":{"assertedDate":"1990-04-10T15:22:20-04:00","clinicalStatus":"active","code":{"coding":[{"code":"82423001","display":"Chronic pain","system":"http://snomed.info/sct"}],"text":"Chronic pain"},"context":{"reference":"Encounter/b63dea80-ee44-45fd-9a3e-0c9913703934"},"id":"e9f91eb6-f83b-49b0-a5e6-098c608c36bc","meta":{"lastUpdated":"2019-04-08T14:22:34.260001+00:00","versionId":"MTU1NDczMzM1NDI2MDAwMTAwMA"},"onsetDateTime":"1990-04-10T15:22:20-04:00","resourceType":"Condition","subject":{"reference":"Patient/00edcd24-2d46-464d-90c0-dffbd0c7384c"},"verificationStatus":"confirmed"}},{"resource":{"code":{"coding":[{"code":"57698-3","display":"Lipid Panel","system":"http://loinc.org"}],"text":"Lipid Panel"},"context":{"reference":"Encounter/8d5b6b8d-e7f3-4c41-86a3-24186aaead5d"},"effectiveDateTime":"2014-10-29T15:22:20-04:00","id":"0b5684f4-b2ac-4e41-be92-48d25e5b1ccc","issued":"2014-10-29T15:22:20.991-04:00","meta":{"lastUpdated":"2019-04-08T14:22:47.737692+00:00","versionId":"MTU1NDczMzM2NzczNzY5MjAwMA"},"resourceType":"DiagnosticReport","result":[{"display":"Total Cholesterol","reference":"Observation/61766ebd-4eab-4564-ba3d-0ebfdd9b41bc"},{"display":"Triglycerides","reference":"Observation/b6f5ef47-c3cd-4362-9ee6-960530422c4d"},{"display":"Low Density Lipoprotein Cholesterol","reference":"Observation/64eceb15-50d9-4c4c-b674-dd0402b8f163"},{"display":"High Density Lipoprotein Cholesterol","reference":"Observation/be34bbcd-7f33-45b7-ba8d-97f4afaebdcb"}],"status":"final","subject":{"reference":"Patient/00edcd24-2d46-464d-90c0-dffbd0c7384c"}}},{"resource":{"code":{"coding":[{"code":"57698-3","display":"Lipid Panel","system":"http://loinc.org"}],"text":"Lipid Panel"},"context":{"reference":"Encounter/e891f1c1-7623-4bd8-9e85-d03e3559d3c4"},"effectiveDateTime":"2012-10-10T15:22:20-04:00","id":"0f44723c-d993-43f1-bfc3-2323bacfb944","issued":"2012-10-10T15:22:20.991-04:00","meta":{"lastUpdated":"2019-04-08T14:22:43.550911+00:00","versionId":"MTU1NDczMzM2MzU1MDkxMTAwMA"},"resourceType":"DiagnosticReport","result":[{"display":"Total Cholesterol","reference":"Observation/f9acc785-2c8f-4636-87d6-414c883b662a"},{"display":"Triglycerides","reference":"Observation/807ee78d-c816-4968-a387-114756e04880"},{"display":"Low Density Lipoprotein Cholesterol","reference":"Observation/7458795c-4fb3-4523-9a41-3531b6c2bfab"},{"display":"High Density Lipoprotein Cholesterol","reference":"Observation/5b9845cf-02e3-430f-8b56-0adf82992c9c"}],"status":"final","subject":{"reference":"Patient/00edcd24-2d46-464d-90c0-dffbd0c7384c"}}},{"resource":{"code":{"coding":[{"code":"57698-3","display":"Lipid Panel","system":"http://loinc.org"}],"text":"Lipid Panel"},"context":{"reference":"Encounter/714f131d-3045-4c44-9beb-6874f01018f7"},"effectiveDateTime":"2018-11-14T14:22:20-05:00","id":"157243bb-3fc3-4c49-943c-99a91dc866a9","issued":"2018-11-14T14:22:20.991-05:00","meta":{"lastUpdated":"2019-04-08T14:22:54.954221+00:00","versionId":"MTU1NDczMzM3NDk1NDIyMTAwMA"},"resourceType":"DiagnosticReport","result":[{"display":"Total Cholesterol","reference":"Observation/a711b3c0-193d-43e7-a9a4-0c71d8e375cf"},{"display":"Triglycerides","reference":"Observation/585e3785-6f49-4935-a815-a8abc49501da"},{"display":"Low Density Lipoprotein Cholesterol","reference":"Observation/6f246422-b70f-47d1-9fcb-296869ce878f"},{"display":"High Density Lipoprotein Cholesterol","reference":"Observation/668f0fec-3f6b-467e-95b8-7c56d10ab3f9"}],"status":"final","subject":{"reference":"Patient/00edcd24-2d46-464d-90c0-dffbd0c7384c"}}},{"resource":{"code":{"coding":[{"code":"57698-3","display":"Lipid Panel","system":"http://loinc.org"}],"text":"Lipid Panel"},"context":{"reference":"Encounter/2287bc0b-0a05-4bb9-a1cb-5a2c6aca4d98"},"effectiveDateTime":"2015-10-28T15:22:20-04:00","id":"181c4d21-a5f9-41ed-8e51-34da22acad4b","issued":"2015-10-28T15:22:20.991-04:00","meta":{"lastUpdated":"2019-04-08T14:22:48.796837+00:00","versionId":"MTU1NDczMzM2ODc5NjgzNzAwMA"},"resourceType":"DiagnosticReport","result":[{"display":"Total Cholesterol","reference":"Observation/b94b6a5a-0143-4a97-9c92-bcf7d675bc80"},{"display":"Triglycerides","reference":"Observation/a8fc6ddf-abcd-4b1e-b4d2-78c9b06ff487"},{"display":"Low Density Lipoprotein Cholesterol","reference":"Observation/deb8d829-ef48-462b-900f-618b97bc0d83"},{"display":"High Density Lipoprotein Cholesterol","reference":"Observation/03bdec61-6519-47c5-8d20-9ecbd182f625"}],"status":"final","subject":{"reference":"Patient/00edcd24-2d46-464d-90c0-dffbd0c7384c"}}},{"resource":{"code":{"coding":[{"code":"24323-8","display":"Comprehensive metabolic 2000 panel - Serum or Plasma","system":"http://loinc.org"}],"text":"Comprehensive metabolic 2000 panel - Serum or Plasma"},"context":{"reference":"Encounter/642b8775-3728-4fed-a9ea-c7157a45fbd1"},"effectiveDateTime":"2016-10-28T15:22:20-04:00","id":"242090ca-7421-4290-b607-86480ee5b60e","issued":"2016-10-28T15:22:20.991-04:00","meta":{"lastUpdated":"2019-04-08T14:22:51.899053+00:00","versionId":"MTU1NDczMzM3MTg5OTA1MzAwMA"},"resourceType":"DiagnosticReport","result":[{"display":"Glucose","reference":"Observation/81c5c866-994f-4af9-89dc-92a14b6a65d3"},{"display":"Urea Nitrogen","reference":"Observation/1add53ba-7fda-4042-9c84-118446ebd195"},{"display":"Creatinine","reference":"Observation/45a3adf5-7b61-4da5-9bc4-952b9f4fb6a6"},{"display":"Calcium","reference":"Observation/ccaedf16-ad26-452c-bf56-31f26b12de8b"},{"display":"Sodium","reference":"Observation/8c1776cd-5112-4a9b-9bc2-7435929e961f"},{"display":"Potassium","reference":"Observation/8328e659-1889-43cd-8bab-d01d426612c8"},{"display":"Chloride","reference":"Observation/8067b685-bfb8-49fe-8286-7627fb3b5ea3"},{"display":"Carbon Dioxide","reference":"Observation/37b6cb38-76f1-4ecb-bed7-bb1c2bf58a19"},{"display":"Glomerular filtration rate/1.73 sq M.predicted","reference":"Observation/91889eb1-d4c2-48b1-9bfb-dbe66701a60d"},{"display":"Protein [Mass/volume] in Serum or Plasma","reference":"Observation/8fe4e55f-063b-41dc-bc80-3e39d5f0f56b"},{"display":"Albumin [Mass/volume] in Serum or Plasma","reference":"Observation/3cf8ef47-4caa-42be-928b-541af7804d59"},{"display":"Globulin [Mass/volume] in Serum by calculation","reference":"Observation/cae7499f-3073-4476-8e96-0e3f137a73d0"},{"display":"Bilirubin.total [Mass/volume] in Serum or Plasma","reference":"Observation/bd77335c-0d30-4d0b-802b-4874b7c8cfec"},{"display":"Alkaline phosphatase [Enzymatic activity/volume] in Serum or Plasma","reference":"Observation/efbb1ce6-9f06-48a4-9813-0d2e1fd7e4d5"},{"display":"Alanine aminotransferase [Enzymatic activity/volume] in Serum or Plasma","reference":"Observation/4e3987b8-23ab-44f1-a80e-c8a0cac7042a"},{"display":"Aspartate aminotransferase [Enzymatic activity/volume] in Serum or Plasma","reference":"Observation/8e1fe9f7-2df2-404b-af85-c1fd24974b9f"}],"status":"final","subject":{"reference":"Patient/00edcd24-2d46-464d-90c0-dffbd0c7384c"}}},{"resource":{"code":{"coding":[{"code":"57698-3","display":"Lipid Panel","system":"http://loinc.org"}],"text":"Lipid Panel"},"context":{"reference":"Encounter/bc9dcf8e-667d-44dd-876c-800d459d6616"},"effectiveDateTime":"2012-10-29T15:22:20-04:00","id":"2496c530-96b6-45fb-8488-32a9261ea0f8","issued":"2012-10-29T15:22:20.991-04:00","meta":{"lastUpdated":"2019-04-08T14:22:44.650795+00:00","versionId":"MTU1NDczMzM2NDY1MDc5NTAwMA"},"resourceType":"DiagnosticReport","result":[{"display":"Total Cholesterol","reference":"Observation/3cac9a7f-4353-4a1f-b8f6-0c4e03d41191"},{"display":"Triglycerides","reference":"Observation/f5e3ea30-146b-443d-ba8d-bb7614d00175"},{"display":"Low Density Lipoprotein Cholesterol","reference":"Observation/954a1d62-337c-487d-a980-9d62f7a57b01"},{"display":"High Density Lipoprotein Cholesterol","reference":"Observation/513ac562-cce1-4c60-9acf-64e8886459a3"}],"status":"final","subject":{"reference":"Patient/00edcd24-2d46-464d-90c0-dffbd0c7384c"}}},{"resource":{"code":{"coding":[{"code":"51990-0","display":"Basic Metabolic Panel","system":"http://loinc.org"}],"text":"Basic Metabolic Panel"},"context":{"reference":"Encounter/735891fb-05fc-45f6-a07a-ebd232004eec"},"effectiveDateTime":"2016-11-02T15:22:20-04:00","id":"27e0f8c0-e3ec-4ab1-8f04-74e0f814ebe2","issued":"2016-11-02T15:22:20.991-04:00","meta":{"lastUpdated":"2019-04-08T14:22:50.883142+00:00","versionId":"MTU1NDczMzM3MDg4MzE0MjAwMA"},"resourceType":"DiagnosticReport","result":[{"display":"Glucose","reference":"Observation/03dd2094-a2e3-4d27-b63f-c306a4140ec4"},{"display":"Urea Nitrogen","reference":"Observation/6940a2f2-083e-4c13-8a52-40a460e5af94"},{"display":"Creatinine","reference":"Observation/31fa1c36-3df8-4069-a7d7-b7227fcb048d"},{"display":"Calcium","reference":"Observation/8abd1311-205c-4791-8836-9e41f172d1b0"},{"display":"Sodium","reference":"Observation/7750b3d7-4563-4dc4-8738-1862239a5f97"},{"display":"Potassium","reference":"Observation/fa606e29-4aec-47e4-8a22-bfe190006138"},{"display":"Chloride","reference":"Observation/4fd66d26-5fdf-4523-a71c-fe6dee9bd891"},{"display":"Carbon Dioxide","reference":"Observation/eb7ac9c7-7ae6-4125-8e28-6fb57d8b1541"}],"status":"final","subject":{"reference":"Patient/00edcd24-2d46-464d-90c0-dffbd0c7384c"}}},{"resource":{"code":{"coding":[{"code":"24323-8","display":"Comprehensive metabolic 2000 panel - Serum or Plasma","system":"http://loinc.org"}],"text":"Comprehensive metabolic 2000 panel - Serum or Plasma"},"context":{"reference":"Encounter/3b3541c7-8526-4729-814f-24a8cebf1dbd"},"effectiveDateTime":"2011-10-30T15:22:20-04:00","id":"2a8012ca-adab-458b-854a-81aba627ef2d","issued":"2011-10-30T15:22:20.991-04:00","meta":{"lastUpdated":"2019-04-08T14:22:42.531228+00:00","versionId":"MTU1NDczMzM2MjUzMTIyODAwMA"},"resourceType":"DiagnosticReport","result":[{"display":"Glucose","reference":"Observation/d348432c-b628-4ec0-a945-07bd87f12cf2"},{"display":"Urea Nitrogen","reference":"Observation/ca048b97-8e88-4be4-a6bd-85797bdaaead"},{"display":"Creatinine","reference":"Observation/2b73e266-0f3d-4b79-9b19-c5a50d97a5af"},{"display":"Calcium","reference":"Observation/553f986a-da71-4fde-a23c-967223717091"},{"display":"Sodium","reference":"Observation/c4b3fedd-a85f-456a-b769-abecb9efa596"},{"display":"Potassium","reference":"Observation/b007e1b8-2b88-4462-afa5-f4229357757f"},{"display":"Chloride","reference":"Observation/9ac3bf19-7b57-4988-9d31-44638080649e"},{"display":"Carbon Dioxide","reference":"Observation/dfc8a746-978f-4b21-80ad-2aaad8ac7319"},{"display":"Glomerular filtration rate/1.73 sq M.predicted","reference":"Observation/d5f37618-e45c-455c-aa34-66820d4528cf"},{"display":"Protein [Mass/volume] in Serum or Plasma","reference":"Observation/0e764ab3-71de-4fb0-b32a-22c18ddf6852"},{"display":"Albumin [Mass/volume] in Serum or Plasma","reference":"Observation/51f0fe8d-c388-43e1-854d-94b9607bc16c"},{"display":"Globulin [Mass/volume] in Serum by calculation","reference":"Observation/e2373bdf-9609-476f-b859-d2473a8296e7"},{"display":"Bilirubin.total [Mass/volume] in Serum or Plasma","reference":"Observation/1f32f524-1a34-4784-9712-1b814898aad3"},{"display":"Alkaline phosphatase [Enzymatic activity/volume] in Serum or Plasma","reference":"Observation/2219d964-a358-4bd0-975d-60af03b77138"},{"display":"Alanine aminotransferase [Enzymatic activity/volume] in Serum or Plasma","reference":"Observation/4f203c3d-d2ae-4a44-b61d-f69076292d55"},{"display":"Aspartate aminotransferase [Enzymatic activity/volume] in Serum or Plasma","reference":"Observation/52c8665a-f112-4d66-9b8a-3af18515226a"}],"status":"final","subject":{"reference":"Patient/00edcd24-2d46-464d-90c0-dffbd0c7384c"}}},{"resource":{"code":{"coding":[{"code":"24323-8","display":"Comprehensive metabolic 2000 panel - Serum or Plasma","system":"http://loinc.org"}],"text":"Comprehensive metabolic 2000 panel - Serum or Plasma"},"context":{"reference":"Encounter/c8c02c6d-7042-4787-b686-c719e40f3364"},"effectiveDateTime":"2009-10-30T15:22:20-04:00","id":"329c0c35-8a1f-4b70-819a-1758648cbf60","issued":"2009-10-30T15:22:20.991-04:00","meta":{"lastUpdated":"2019-04-08T14:22:38.359883+00:00","versionId":"MTU1NDczMzM1ODM1OTg4MzAwMA"},"resourceType":"DiagnosticReport","result":[{"display":"Glucose","reference":"Observation/ab20775a-87a6-44ae-baa6-81245dfef34b"},{"display":"Urea Nitrogen","reference":"Observation/11862ecd-7739-4399-ba14-3db17a4173cb"},{"display":"Creatinine","reference":"Observation/496a1bc5-f7ec-41c7-bc2b-525f4d4e3e26"},{"display":"Calcium","reference":"Observation/d6b03ea3-226f-4feb-925c-6749f160038a"},{"display":"Sodium","reference":"Observation/89400a7d-af35-4894-bba3-903b1639ed18"},{"display":"Potassium","reference":"Observation/a549e87c-b0c0-4ab4-ab4b-d0c6aae3210a"},{"display":"Chloride","reference":"Observation/61691762-28a4-4b72-95a1-2f650067e648"},{"display":"Carbon Dioxide","reference":"Observation/530cce46-bbe8-4788-9c57-bef546bde035"},{"display":"Glomerular filtration rate/1.73 sq M.predicted","reference":"Observation/be05aeac-593b-4160-a903-e519b4ef3930"},{"display":"Protein [Mass/volume] in Serum or Plasma","reference":"Observation/de48089a-687e-47b1-ac96-91ca480236f8"},{"display":"Albumin [Mass/volume] in Serum or Plasma","reference":"Observation/2cce4051-4b9b-4af7-a51b-318a65b41e4b"},{"display":"Globulin [Mass/volume] in Serum by calculation","reference":"Observation/a3645a89-adcd-4cfb-af20-c929f22cf568"},{"display":"Bilirubin.total [Mass/volume] in Serum or Plasma","reference":"Observation/b8c56d7b-8529-457c-996c-538aa11f4913"},{"display":"Alkaline phosphatase [Enzymatic activity/volume] in Serum or Plasma","reference":"Observation/d8761517-56d1-4d53-89e6-c2a828a6575d"},{"display":"Alanine aminotransferase [Enzymatic activity/volume] in Serum or Plasma","reference":"Observation/5e2b32b8-0930-402e-bfc9-37eba2005d59"},{"display":"Aspartate aminotransferase [Enzymatic activity/volume] in Serum or Plasma","reference":"Observation/1b1a5e8f-2541-415f-ac16-dc81147bad98"}],"status":"final","subject":{"reference":"Patient/00edcd24-2d46-464d-90c0-dffbd0c7384c"}}},{"resource":{"code":{"coding":[{"code":"24323-8","display":"Comprehensive metabolic 2000 panel - Serum or Plasma","system":"http://loinc.org"}],"text":"Comprehensive metabolic 2000 panel - Serum or Plasma"},"context":{"reference":"Encounter/6900b6d2-ad48-42be-8d38-4001d6e98ddf"},"effectiveDateTime":"2018-10-28T15:22:20-04:00","id":"32c29146-2042-458d-975b-d3358253858a","issued":"2018-10-28T15:22:20.991-04:00","meta":{"lastUpdated":"2019-04-08T14:22:53.930485+00:00","versionId":"MTU1NDczMzM3MzkzMDQ4NTAwMA"},"resourceType":"DiagnosticReport","result":[{"display":"Glucose","reference":"Observation/7f29a8eb-4c3b-4c84-868a-1d542d67269a"},{"display":"Urea Nitrogen","reference":"Observation/adc12bed-3cd6-475d-a0e8-537a9d2fa29f"},{"display":"Creatinine","reference":"Observation/fde50c7c-f667-40e8-90bc-88d3682e7301"},{"display":"Calcium","reference":"Observation/f00c1855-5179-4b43-8b47-f910cc74bfce"},{"display":"Sodium","reference":"Observation/bb60a709-80cd-4a2d-a2a3-b82925974566"},{"display":"Potassium","reference":"Observation/4c5a19bd-8cc7-4e1c-925d-bb94269a6b9f"},{"display":"Chloride","reference":"Observation/b817438a-a1fe-4fca-aa55-b6081c0538d2"},{"display":"Carbon Dioxide","reference":"Observation/a3ad1380-084a-4af1-9e65-eedcf1024acb"},{"display":"Glomerular filtration rate/1.73 sq M.predicted","reference":"Observation/e14def9f-125e-4124-a69e-528392159f53"},{"display":"Protein [Mass/volume] in Serum or Plasma","reference":"Observation/7303bac7-c8d7-42d4-89f8-7ba3f2f5d833"},{"display":"Albumin [Mass/volume] in Serum or Plasma","reference":"Observation/9757e3b6-2ba7-48fa-8ea8-0cee7af911fa"},{"display":"Globulin [Mass/volume] in Serum by calculation","reference":"Observation/8b00efb5-8e59-4e4f-85db-e7c4405eacce"},{"display":"Bilirubin.total [Mass/volume] in Serum or Plasma","reference":"Observation/91e0a528-ab0c-4f5e-83fc-ba8cc0cb3569"},{"display":"Alkaline phosphatase [Enzymatic activity/volume] in Serum or Plasma","reference":"Observation/7cac4482-92e0-4889-ad1e-b71100d904e4"},{"display":"Alanine aminotransferase [Enzymatic activity/volume] in Serum or Plasma","reference":"Observation/501bfad2-b0c0-474b-bcb0-b44f62f3ed73"},{"display":"Aspartate aminotransferase [Enzymatic activity/volume] in Serum or Plasma","reference":"Observation/8b3a7769-f00d-4833-b428-9fc6b8d2217d"}],"status":"final","subject":{"reference":"Patient/00edcd24-2d46-464d-90c0-dffbd0c7384c"}}},{"resource":{"code":{"coding":[{"code":"58410-2","display":"Complete blood count (hemogram) panel - Blood by Automated count","system":"http://loinc.org"}],"text":"Complete blood count (hemogram) panel - Blood by Automated count"},"context":{"reference":"Encounter/2287bc0b-0a05-4bb9-a1cb-5a2c6aca4d98"},"effectiveDateTime":"2015-10-28T15:22:20-04:00","id":"37da23a3-ad34-4468-ba38-a4515751dc83","issued":"2015-10-28T15:22:20.991-04:00","meta":{"lastUpdated":"2019-04-08T14:22:49.821009+00:00","versionId":"MTU1NDczMzM2OTgyMTAwOTAwMA"},"resourceType":"DiagnosticReport","result":[{"display":"Leukocytes [#/volume] in Blood by Automated count","reference":"Observation/70b42dc9-4d31-4be8-ba93-baf644998608"},{"display":"Erythrocytes [#/volume] in Blood by Automated count","reference":"Observation/29fabc8e-5123-4f85-b2ea-b2991212dd2e"},{"display":"Hemoglobin [Mass/volume] in Blood","reference":"Observation/7c19675a-df8a-4186-acd2-82f15c8f68d8"},{"display":"Hematocrit [Volume Fraction] of Blood by Automated count","reference":"Observation/1620ff8b-d78e-4180-8cec-86613bb6fb87"},{"display":"MCV [Entitic volume] by Automated count","reference":"Observation/f4b13bce-879f-4f2e-9dc0-1d1a0068fab7"},{"display":"MCH [Entitic mass] by Automated count","reference":"Observation/88a79f55-28a7-4c28-9e3c-7631e5e397c2"},{"display":"MCHC [Mass/volume] by Automated count","reference":"Observation/f4e3b65b-8f5c-47bb-b23e-6e007f0a21a6"},{"display":"Erythrocyte distribution width [Entitic volume] by Automated count","reference":"Observation/1fbc233d-0138-400c-afd4-cec407c93c1d"},{"display":"Platelets [#/volume] in Blood by Automated count","reference":"Observation/fcaaea20-c28e-4a25-bd54-4e288d251b87"},{"display":"Platelet distribution width [Entitic volume] in Blood by Automated count","reference":"Observation/600916b2-fc4a-4e75-9960-7651c0410f27"},{"display":"Platelet mean volume [Entitic volume] in Blood by Automated count","reference":"Observation/0e15946b-9f15-4956-81be-ae02998ec45c"}],"status":"final","subject":{"reference":"Patient/00edcd24-2d46-464d-90c0-dffbd0c7384c"}}},{"resource":{"code":{"coding":[{"code":"51990-0","display":"Basic Metabolic Panel","system":"http://loinc.org"}],"text":"Basic Metabolic Panel"},"context":{"reference":"Encounter/a32d6ae0-a15e-41dc-a12f-0f2b873f1229"},"effectiveDateTime":"2014-10-22T15:22:20-04:00","id":"3ee4c41f-62c0-40d0-a360-41699f31d490","issued":"2014-10-22T15:22:20.991-04:00","meta":{"lastUpdated":"2019-04-08T14:22:47.735843+00:00","versionId":"MTU1NDczMzM2NzczNTg0MzAwMA"},"resourceType":"DiagnosticReport","result":[{"display":"Glucose","reference":"Observation/bc9e5974-00e4-41fc-bc74-5a9994f05cac"},{"display":"Urea Nitrogen","reference":"Observation/87ad0ad2-88aa-49b4-85d4-01b4a05d1187"},{"display":"Creatinine","reference":"Observation/9fe8c87c-0b2a-437a-ba15-63f04aad8416"},{"display":"Calcium","reference":"Observation/9353e57b-6ed3-4082-a492-95e57a4568ce"},{"display":"Sodium","reference":"Observation/d552f398-5057-4067-ab60-4648d2a3926a"},{"display":"Potassium","reference":"Observation/a39faf9c-6a2d-4855-a5b0-dd8f7e5f4c03"},{"display":"Chloride","reference":"Observation/404edb49-94b1-4c2c-b720-d1e0c2ff035d"},{"display":"Carbon Dioxide","reference":"Observation/6361bb2a-a810-4ff7-9817-2829de2266e0"}],"status":"final","subject":{"reference":"Patient/00edcd24-2d46-464d-90c0-dffbd0c7384c"}}},{"resource":{"code":{"coding":[{"code":"51990-0","display":"Basic Metabolic Panel","system":"http://loinc.org"}],"text":"Basic Metabolic Panel"},"context":{"reference":"Encounter/966b154b-774b-4fbf-a9b2-e270ddd2a2d8"},"effectiveDateTime":"2017-11-08T14:22:20-05:00","id":"426eb8ec-6611-450f-9af6-dafc516c1577","issued":"2017-11-08T14:22:20.991-05:00","meta":{"lastUpdated":"2019-04-08T14:22:52.934363+00:00","versionId":"MTU1NDczMzM3MjkzNDM2MzAwMA"},"resourceType":"DiagnosticReport","result":[{"display":"Glucose","reference":"Observation/0001be4c-2035-4b08-bcd1-06a64c348bc7"},{"display":"Urea Nitrogen","reference":"Observation/3de8c125-96c3-4d7f-9316-31fb97e2746f"},{"display":"Creatinine","reference":"Observation/4eabad21-5940-4728-a47a-b8dbab8834dd"},{"display":"Calcium","reference":"Observation/284fec6b-7e14-4662-9a92-516d76ef83ee"},{"display":"Sodium","reference":"Observation/d3bc4a00-323b-42bc-a664-514fef72b7ca"},{"display":"Potassium","reference":"Observation/ac04d987-e67a-43c1-878f-ae64a7e65d27"},{"display":"Chloride","reference":"Observation/dede3cbe-e766-4901-b7a4-f5e315c7667a"},{"display":"Carbon Dioxide","reference":"Observation/bf447ac6-9486-44ae-a1ba-a4da36d23b4a"}],"status":"final","subject":{"reference":"Patient/00edcd24-2d46-464d-90c0-dffbd0c7384c"}}},{"resource":{"code":{"coding":[{"code":"51990-0","display":"Basic Metabolic Panel","system":"http://loinc.org"}],"text":"Basic Metabolic Panel"},"context":{"reference":"Encounter/e891f1c1-7623-4bd8-9e85-d03e3559d3c4"},"effectiveDateTime":"2012-10-10T15:22:20-04:00","id":"43f8b230-cdeb-45ba-98cd-b6c4c8c6a427","issued":"2012-10-10T15:22:20.991-04:00","meta":{"lastUpdated":"2019-04-08T14:22:43.555606+00:00","versionId":"MTU1NDczMzM2MzU1NTYwNjAwMA"},"resourceType":"DiagnosticReport","result":[{"display":"Glucose","reference":"Observation/ad558dff-1a39-49ef-a2e1-d38b620fcb7b"},{"display":"Urea Nitrogen","reference":"Observation/44b3a789-4f10-48e0-b47e-5b77816c201d"},{"display":"Creatinine","reference":"Observation/85f0ca40-a07c-4589-a70c-14b2def7f40c"},{"display":"Calcium","reference":"Observation/21c62983-d7a7-4b78-bdea-d6dbbf5d0b8f"},{"display":"Sodium","reference":"Observation/d8407643-cab0-4d34-a769-bdd93ba75257"},{"display":"Potassium","reference":"Observation/79638b0e-c1da-4e78-9f10-d40b618f80d1"},{"display":"Chloride","reference":"Observation/37a232cb-184c-4e8b-a77c-3248495e7a49"},{"display":"Carbon Dioxide","reference":"Observation/a79ca1e3-6d43-4529-983d-8dae2b491c6e"}],"status":"final","subject":{"reference":"Patient/00edcd24-2d46-464d-90c0-dffbd0c7384c"}}},{"resource":{"code":{"coding":[{"code":"51990-0","display":"Basic Metabolic Panel","system":"http://loinc.org"}],"text":"Basic Metabolic Panel"},"context":{"reference":"Encounter/70b9b85f-ab8d-4a14-a311-137d31b7f4a8"},"effectiveDateTime":"2010-09-29T15:22:20-04:00","id":"69aa91f6-74ad-4acf-bf94-0cce8a0bcaef","issued":"2010-09-29T15:22:20.991-04:00","meta":{"lastUpdated":"2019-04-08T14:22:39.412839+00:00","versionId":"MTU1NDczMzM1OTQxMjgzOTAwMA"},"resourceType":"DiagnosticReport","result":[{"display":"Glucose","reference":"Observation/1b1ab9ca-67c5-4d75-adc7-1ae0a390a3e2"},{"display":"Urea Nitrogen","reference":"Observation/862bff5f-8f46-4a96-b919-29f40f2b8021"},{"display":"Creatinine","reference":"Observation/75c44763-9ab3-496b-acf0-ace24ff4a598"},{"display":"Calcium","reference":"Observation/b7533246-630c-4554-b210-edfdb4b06147"},{"display":"Sodium","reference":"Observation/6e44694b-2642-4626-8344-f900e8bd722b"},{"display":"Potassium","reference":"Observation/fba7685b-3c73-47d8-af91-2e6263ad0e45"},{"display":"Chloride","reference":"Observation/714491d1-16cf-4776-a86b-511b577487ac"},{"display":"Carbon Dioxide","reference":"Observation/f0ac6e78-6711-476a-8cfc-e780c4cd5ee5"}],"status":"final","subject":{"reference":"Patient/00edcd24-2d46-464d-90c0-dffbd0c7384c"}}},{"resource":{"code":{"coding":[{"code":"51990-0","display":"Basic Metabolic Panel","system":"http://loinc.org"}],"text":"Basic Metabolic Panel"},"context":{"reference":"Encounter/97b94633-54e8-4963-bc24-f3b024db4139"},"effectiveDateTime":"2013-10-16T15:22:20-04:00","id":"74c1ac64-96e2-4465-bb0d-4af2f1302791","issued":"2013-10-16T15:22:20.991-04:00","meta":{"lastUpdated":"2019-04-08T14:22:44.594137+00:00","versionId":"MTU1NDczMzM2NDU5NDEzNzAwMA"},"resourceType":"DiagnosticReport","result":[{"display":"Glucose","reference":"Observation/4d06e11b-1b19-48fe-89ef-5babaf3a1e65"},{"display":"Urea Nitrogen","reference":"Observation/06d6e6b5-e967-41f5-acbe-2bef80b4839b"},{"display":"Creatinine","reference":"Observation/312ee9bc-9672-429f-844f-dc2714ac5736"},{"display":"Calcium","reference":"Observation/35fbded8-79e0-4118-97fe-fce9b45ca1c3"},{"display":"Sodium","reference":"Observation/89a58dcd-4ef8-4f44-9b45-a1360b0b6984"},{"display":"Potassium","reference":"Observation/a1eef858-02ed-405c-a61d-c99477def020"},{"display":"Chloride","reference":"Observation/549369cd-902c-4a53-a0ad-b17ad8795f05"},{"display":"Carbon Dioxide","reference":"Observation/4f90a250-601f-47bf-850d-9d6cf997d0ac"}],"status":"final","subject":{"reference":"Patient/00edcd24-2d46-464d-90c0-dffbd0c7384c"}}},{"resource":{"code":{"coding":[{"code":"51990-0","display":"Basic Metabolic Panel","system":"http://loinc.org"}],"text":"Basic Metabolic Panel"},"context":{"reference":"Encounter/2287bc0b-0a05-4bb9-a1cb-5a2c6aca4d98"},"effectiveDateTime":"2015-10-28T15:22:20-04:00","id":"75663c9c-c9c7-4c64-b186-ef6dda845dcc","issued":"2015-10-28T15:22:20.991-04:00","meta":{"lastUpdated":"2019-04-08T14:22:48.801327+00:00","versionId":"MTU1NDczMzM2ODgwMTMyNzAwMA"},"resourceType":"DiagnosticReport","result":[{"display":"Glucose","reference":"Observation/a3010072-6647-4013-b435-382819c343c4"},{"display":"Urea Nitrogen","reference":"Observation/dd0fb385-5bc9-4753-910d-a371a79e04f2"},{"display":"Creatinine","reference":"Observation/53a90d8e-514b-4e37-8631-b4e72b917618"},{"display":"Calcium","reference":"Observation/a8dfbbc1-d23f-4d47-a767-30f55d7f6685"},{"display":"Sodium","reference":"Observation/06c61d49-cc5a-46a3-9aeb-e7d57db8193a"},{"display":"Potassium","reference":"Observation/849a72a3-1232-42c6-ba41-628ee313195d"},{"display":"Chloride","reference":"Observation/24940beb-ecfa-47a9-8d6f-0bd7b703edfb"},{"display":"Carbon Dioxide","reference":"Observation/9a9d24ea-67ba-4b1a-aba0-9e87fb149520"}],"status":"final","subject":{"reference":"Patient/00edcd24-2d46-464d-90c0-dffbd0c7384c"}}},{"resource":{"code":{"coding":[{"code":"57698-3","display":"Lipid Panel","system":"http://loinc.org"}],"text":"Lipid Panel"},"context":{"reference":"Encounter/3cfa9143-f0ff-4a99-b7f5-49e7b7eede41"},"effectiveDateTime":"2009-09-23T15:22:20-04:00","id":"7a6a39aa-ae1a-454d-86a3-4cec871ade6b","issued":"2009-09-23T15:22:20.991-04:00","meta":{"lastUpdated":"2019-04-08T14:22:38.373150+00:00","versionId":"MTU1NDczMzM1ODM3MzE1MDAwMA"},"resourceType":"DiagnosticReport","result":[{"display":"Total Cholesterol","reference":"Observation/1466db66-3af4-44fa-9db0-3da4b1725724"},{"display":"Triglycerides","reference":"Observation/0f5a1fbb-906a-47c5-a81d-dbb38fdd198d"},{"display":"Low Density Lipoprotein Cholesterol","reference":"Observation/0695e80b-0fab-4f53-b6af-369ff8e9553a"},{"display":"High Density Lipoprotein Cholesterol","reference":"Observation/eacb598c-3e4f-49c3-84a5-a5b7bce695d2"}],"status":"final","subject":{"reference":"Patient/00edcd24-2d46-464d-90c0-dffbd0c7384c"}}},{"resource":{"code":{"coding":[{"code":"51990-0","display":"Basic Metabolic Panel","system":"http://loinc.org"}],"text":"Basic Metabolic Panel"},"context":{"reference":"Encounter/3cfa9143-f0ff-4a99-b7f5-49e7b7eede41"},"effectiveDateTime":"2009-09-23T15:22:20-04:00","id":"83a4c42e-768c-4f8a-be80-9350f159c88f","issued":"2009-09-23T15:22:20.991-04:00","meta":{"lastUpdated":"2019-04-08T14:22:38.355103+00:00","versionId":"MTU1NDczMzM1ODM1NTEwMzAwMA"},"resourceType":"DiagnosticReport","result":[{"display":"Glucose","reference":"Observation/a64e263a-0745-41a7-9997-6b6bc4f5a3b0"},{"display":"Urea Nitrogen","reference":"Observation/ed70cef6-cf07-4141-9153-97b71f5a280d"},{"display":"Creatinine","reference":"Observation/0a75e30f-5fd7-417c-8096-38fe4cf5c7bb"},{"display":"Calcium","reference":"Observation/cba1cebb-4591-49d0-83ed-5f0f39c68dce"},{"display":"Sodium","reference":"Observation/2f8becea-16c9-4a18-ab70-66e078bc15ac"},{"display":"Potassium","reference":"Observation/70283196-0a5d-4703-97f9-0509ef4801bf"},{"display":"Chloride","reference":"Observation/db3d9f32-9812-4074-a3eb-8c2915f71d4e"},{"display":"Carbon Dioxide","reference":"Observation/37a84868-1be8-400f-8d61-8c53d6172340"}],"status":"final","subject":{"reference":"Patient/00edcd24-2d46-464d-90c0-dffbd0c7384c"}}},{"resource":{"code":{"coding":[{"code":"51990-0","display":"Basic Metabolic Panel","system":"http://loinc.org"}],"text":"Basic Metabolic Panel"},"context":{"reference":"Encounter/714f131d-3045-4c44-9beb-6874f01018f7"},"effectiveDateTime":"2018-11-14T14:22:20-05:00","id":"83e4c8b2-0b29-4b63-85f3-e3a6c6415066","issued":"2018-11-14T14:22:20.991-05:00","meta":{"lastUpdated":"2019-04-08T14:22:54.958871+00:00","versionId":"MTU1NDczMzM3NDk1ODg3MTAwMA"},"resourceType":"DiagnosticReport","result":[{"display":"Glucose","reference":"Observation/155bbf97-bbac-4f31-be1b-401c15b1ac00"},{"display":"Urea Nitrogen","reference":"Observation/dd060344-4557-4c0f-835e-58d31dea9828"},{"display":"Creatinine","reference":"Observation/f1ac5715-9d1f-4ef0-a00b-9de29e90ed79"},{"display":"Calcium","reference":"Observation/6f388bbd-cee6-4702-8bdd-014714dd6bf9"},{"display":"Sodium","reference":"Observation/893e1265-9977-4bee-84ac-8e1ea7f65942"},{"display":"Potassium","reference":"Observation/b69729d5-39f1-45fc-9178-9a2245de5845"},{"display":"Chloride","reference":"Observation/1e48c855-6ff6-48ce-b59e-d58b8752ff0c"},{"display":"Carbon Dioxide","reference":"Observation/40c7a23c-05d4-4ad8-b38e-7101e5480811"}],"status":"final","subject":{"reference":"Patient/00edcd24-2d46-464d-90c0-dffbd0c7384c"}}},{"resource":{"code":{"coding":[{"code":"24323-8","display":"Comprehensive metabolic 2000 panel - Serum or Plasma","system":"http://loinc.org"}],"text":"Comprehensive metabolic 2000 panel - Serum or Plasma"},"context":{"reference":"Encounter/6f5ab81f-8c12-4b7d-b03a-bd59d5db002a"},"effectiveDateTime":"2017-10-28T15:22:20-04:00","id":"870b6ecc-615b-470f-a752-958ad5869dda","issued":"2017-10-28T15:22:20.991-04:00","meta":{"lastUpdated":"2019-04-08T14:22:52.927686+00:00","versionId":"MTU1NDczMzM3MjkyNzY4NjAwMA"},"resourceType":"DiagnosticReport","result":[{"display":"Glucose","reference":"Observation/9a1458a4-30d2-4708-ba22-59969264508e"},{"display":"Urea Nitrogen","reference":"Observation/ad1c5d90-f408-43d5-b233-1774736e8a0c"},{"display":"Creatinine","reference":"Observation/09f8d9bf-ec83-4739-aa59-097c4c1e2c97"},{"display":"Calcium","reference":"Observation/efe13977-af09-460b-8578-a9037cdb3bbd"},{"display":"Sodium","reference":"Observation/e8ed1cb5-a9c5-48f2-971f-be34c97634af"},{"display":"Potassium","reference":"Observation/3452e2fe-2822-43b7-8e54-cb12b47117bc"},{"display":"Chloride","reference":"Observation/85496a8e-25b4-47d4-bf61-609cb2678940"},{"display":"Carbon Dioxide","reference":"Observation/9b443c5b-2d4a-4070-83c1-04887a19038f"},{"display":"Glomerular filtration rate/1.73 sq M.predicted","reference":"Observation/698cb26a-2b12-42d3-b71a-499131af1e0c"},{"display":"Protein [Mass/volume] in Serum or Plasma","reference":"Observation/7e934905-ad3e-41eb-bf75-3fa8a46a15a1"},{"display":"Albumin [Mass/volume] in Serum or Plasma","reference":"Observation/7e9adc80-3ad3-4a87-bef9-e15d1b1223c1"},{"display":"Globulin [Mass/volume] in Serum by calculation","reference":"Observation/2cab6f8c-85d1-40bd-ab91-2cb0c7d81db2"},{"display":"Bilirubin.total [Mass/volume] in Serum or Plasma","reference":"Observation/06427beb-dbab-48ef-95b1-3de034180f85"},{"display":"Alkaline phosphatase [Enzymatic activity/volume] in Serum or Plasma","reference":"Observation/6c85104a-c248-46e0-833b-e01a6a681866"},{"display":"Alanine aminotransferase [Enzymatic activity/volume] in Serum or Plasma","reference":"Observation/ec6f544f-141b-4c6e-a540-09c8a83758c6"},{"display":"Aspartate aminotransferase [Enzymatic activity/volume] in Serum or Plasma","reference":"Observation/60debc99-861a-4872-b985-15145240ba21"}],"status":"final","subject":{"reference":"Patient/00edcd24-2d46-464d-90c0-dffbd0c7384c"}}},{"resource":{"code":{"coding":[{"code":"24323-8","display":"Comprehensive metabolic 2000 panel - Serum or Plasma","system":"http://loinc.org"}],"text":"Comprehensive metabolic 2000 panel - Serum or Plasma"},"context":{"reference":"Encounter/591fea61-efcf-43fb-86c9-a23f078b6c3c"},"effectiveDateTime":"2015-10-29T15:22:20-04:00","id":"87202292-4bd9-4a9a-9c18-b99cd230397d","issued":"2015-10-29T15:22:20.991-04:00","meta":{"lastUpdated":"2019-04-08T14:22:49.827088+00:00","versionId":"MTU1NDczMzM2OTgyNzA4ODAwMA"},"resourceType":"DiagnosticReport","result":[{"display":"Glucose","reference":"Observation/24bc8edc-8de8-4f98-9018-4e0cbb0b61e1"},{"display":"Urea Nitrogen","reference":"Observation/cb06a0d2-9ffa-4e39-9b7f-8bbb0269a17a"},{"display":"Creatinine","reference":"Observation/93deb36a-d9fc-4e07-a581-ac651474ffce"},{"display":"Calcium","reference":"Observation/e221f6fa-c788-447a-9f97-6e5288692b17"},{"display":"Sodium","reference":"Observation/f3fb180e-66a7-4595-ba90-6b5cd52d3934"},{"display":"Potassium","reference":"Observation/ed696adf-a440-44b2-baaf-dd6c3d5062b9"},{"display":"Chloride","reference":"Observation/e99bd1f1-8f84-4058-9358-47371fd9787d"},{"display":"Carbon Dioxide","reference":"Observation/a9e77965-4894-4551-9bad-4ac0214294bd"},{"display":"Glomerular filtration rate/1.73 sq M.predicted","reference":"Observation/9e2af171-9945-45d3-ba17-a65bde1b8ac1"},{"display":"Protein [Mass/volume] in Serum or Plasma","reference":"Observation/42e996ff-4554-48b0-acb1-109115a8c2ae"},{"display":"Albumin [Mass/volume] in Serum or Plasma","reference":"Observation/0cda4be4-ab37-4c51-8a82-e4053369b2d7"},{"display":"Globulin [Mass/volume] in Serum by calculation","reference":"Observation/ab3c9c3c-ad51-46af-b390-b2c56803087f"},{"display":"Bilirubin.total [Mass/volume] in Serum or Plasma","reference":"Observation/6df676a3-4d9e-4037-8d09-230e0374d010"},{"display":"Alkaline phosphatase [Enzymatic activity/volume] in Serum or Plasma","reference":"Observation/3494157c-1c2c-4099-ab00-f8946fb25f76"},{"display":"Alanine aminotransferase [Enzymatic activity/volume] in Serum or Plasma","reference":"Observation/27bfb480-7928-407a-8e3c-c3d08457dd9e"},{"display":"Aspartate aminotransferase [Enzymatic activity/volume] in Serum or Plasma","reference":"Observation/ec73c912-b97c-4d07-9c36-18c8875f71e2"}],"status":"final","subject":{"reference":"Patient/00edcd24-2d46-464d-90c0-dffbd0c7384c"}}},{"resource":{"code":{"coding":[{"code":"24323-8","display":"Comprehensive metabolic 2000 panel - Serum or Plasma","system":"http://loinc.org"}],"text":"Comprehensive metabolic 2000 panel - Serum or Plasma"},"context":{"reference":"Encounter/8afc1bda-080e-423d-8d5e-6b090be14f1f"},"effectiveDateTime":"2010-10-30T15:22:20-04:00","id":"900285e4-1ae8-42dc-bd33-6eebd7472cb6","issued":"2010-10-30T15:22:20.991-04:00","meta":{"lastUpdated":"2019-04-08T14:22:40.437442+00:00","versionId":"MTU1NDczMzM2MDQzNzQ0MjAwMA"},"resourceType":"DiagnosticReport","result":[{"display":"Glucose","reference":"Observation/543e77a6-64a5-4fbb-92e0-4fbe30310da3"},{"display":"Urea Nitrogen","reference":"Observation/c6414049-906d-4f22-9f90-0eb67c8780e0"},{"display":"Creatinine","reference":"Observation/3bf1ab03-4cc3-41e4-ab1f-f701e494b85d"},{"display":"Calcium","reference":"Observation/fdfbfb1a-7fc1-476c-a3b3-fca410411393"},{"display":"Sodium","reference":"Observation/424c9ae6-d5cc-468f-8789-6ebe2cb5ed2d"},{"display":"Potassium","reference":"Observation/9df927c5-be30-4938-b23d-4abd25e58e08"},{"display":"Chloride","reference":"Observation/4796e151-4fd7-4897-8a9e-4087fd59f732"},{"display":"Carbon Dioxide","reference":"Observation/1b59eb02-96f7-4c77-82a7-3b7a61ac9d85"},{"display":"Glomerular filtration rate/1.73 sq M.predicted","reference":"Observation/d698664d-4564-4376-b458-ea3b3a5f7b5f"},{"display":"Protein [Mass/volume] in Serum or Plasma","reference":"Observation/7e2322e3-8f2d-4d2b-aead-80087d9af135"},{"display":"Albumin [Mass/volume] in Serum or Plasma","reference":"Observation/7ec8f53a-15cd-4e2d-a0c3-b84f11fe2548"},{"display":"Globulin [Mass/volume] in Serum by calculation","reference":"Observation/bad886f4-a269-4b9e-8ca8-c507a5a2e241"},{"display":"Bilirubin.total [Mass/volume] in Serum or Plasma","reference":"Observation/b63c6124-a8e0-4d27-a815-9d87220784ac"},{"display":"Alkaline phosphatase [Enzymatic activity/volume] in Serum or Plasma","reference":"Observation/a1235ef6-bd34-459c-952c-f2a326fbe7eb"},{"display":"Alanine aminotransferase [Enzymatic activity/volume] in Serum or Plasma","reference":"Observation/1a3896df-bc97-46ca-b2e8-17ee8c85317a"},{"display":"Aspartate aminotransferase [Enzymatic activity/volume] in Serum or Plasma","reference":"Observation/d3b88e89-d6ac-4a42-aa55-23cc31e10668"}],"status":"final","subject":{"reference":"Patient/00edcd24-2d46-464d-90c0-dffbd0c7384c"}}},{"resource":{"code":{"coding":[{"code":"57698-3","display":"Lipid Panel","system":"http://loinc.org"}],"text":"Lipid Panel"},"context":{"reference":"Encounter/6900b6d2-ad48-42be-8d38-4001d6e98ddf"},"effectiveDateTime":"2018-10-28T15:22:20-04:00","id":"93386b4a-611a-41f8-9fab-a3d1cf684fc2","issued":"2018-10-28T15:22:20.991-04:00","meta":{"lastUpdated":"2019-04-08T14:22:54.954750+00:00","versionId":"MTU1NDczMzM3NDk1NDc1MDAwMA"},"resourceType":"DiagnosticReport","result":[{"display":"Total Cholesterol","reference":"Observation/e1d5ed70-200a-40f4-8ac0-318f59021eb6"},{"display":"Triglycerides","reference":"Observation/7bf9acb8-ea61-4824-9da1-e409379bdf63"},{"display":"Low Density Lipoprotein Cholesterol","reference":"Observation/1bbdd5c9-ac59-46b1-8593-6ef7a7c45cee"},{"display":"High Density Lipoprotein Cholesterol","reference":"Observation/8b98df8d-0f3e-4827-b6f7-d77154f1c512"}],"status":"final","subject":{"reference":"Patient/00edcd24-2d46-464d-90c0-dffbd0c7384c"}}},{"resource":{"code":{"coding":[{"code":"57698-3","display":"Lipid Panel","system":"http://loinc.org"}],"text":"Lipid Panel"},"context":{"reference":"Encounter/c8c02c6d-7042-4787-b686-c719e40f3364"},"effectiveDateTime":"2009-10-30T15:22:20-04:00","id":"a82e0cdf-31c0-4393-93e4-b8718c8fb2fb","issued":"2009-10-30T15:22:20.991-04:00","meta":{"lastUpdated":"2019-04-08T14:22:38.373149+00:00","versionId":"MTU1NDczMzM1ODM3MzE0OTAwMA"},"resourceType":"DiagnosticReport","result":[{"display":"Total Cholesterol","reference":"Observation/d5bf9adb-0857-48cf-b401-505668bdb1a1"},{"display":"Triglycerides","reference":"Observation/468d911f-f77d-40f7-b77e-188b5e131863"},{"display":"Low Density Lipoprotein Cholesterol","reference":"Observation/4f26f90e-b9f4-4750-881c-72e114dd1247"},{"display":"High Density Lipoprotein Cholesterol","reference":"Observation/b1401ddb-80ab-4c23-93a8-997f96434fb7"}],"status":"final","subject":{"reference":"Patient/00edcd24-2d46-464d-90c0-dffbd0c7384c"}}},{"resource":{"code":{"coding":[{"code":"51990-0","display":"Basic Metabolic Panel","system":"http://loinc.org"}],"text":"Basic Metabolic Panel"},"context":{"reference":"Encounter/2a8364bd-4845-4b2d-9113-3181d58f45f9"},"effectiveDateTime":"2011-10-05T15:22:20-04:00","id":"ae1f831a-ccc3-4f05-ad54-f58a2afa8dbe","issued":"2011-10-05T15:22:20.991-04:00","meta":{"lastUpdated":"2019-04-08T14:22:41.457560+00:00","versionId":"MTU1NDczMzM2MTQ1NzU2MDAwMA"},"resourceType":"DiagnosticReport","result":[{"display":"Glucose","reference":"Observation/7af0ef61-eabf-4ff2-971d-c853f2cfe8cc"},{"display":"Urea Nitrogen","reference":"Observation/fb83d803-d933-4510-bf42-1e6b94032aa8"},{"display":"Creatinine","reference":"Observation/e232ada9-f5cb-49c0-9858-68b62e09ff03"},{"display":"Calcium","reference":"Observation/f60f92e4-42fd-45e2-872e-e732d13958ad"},{"display":"Sodium","reference":"Observation/727f42cd-b175-43d3-8365-4fdf50437847"},{"display":"Potassium","reference":"Observation/51220ddd-a50d-4722-808f-73097ab5897e"},{"display":"Chloride","reference":"Observation/8e316a5e-7fb7-4c4b-aaa9-6486d432ceb7"},{"display":"Carbon Dioxide","reference":"Observation/9c53aaef-3908-4d48-b9fd-b64407fb9e9e"}],"status":"final","subject":{"reference":"Patient/00edcd24-2d46-464d-90c0-dffbd0c7384c"}}},{"resource":{"code":{"coding":[{"code":"57698-3","display":"Lipid Panel","system":"http://loinc.org"}],"text":"Lipid Panel"},"context":{"reference":"Encounter/6f5ab81f-8c12-4b7d-b03a-bd59d5db002a"},"effectiveDateTime":"2017-10-28T15:22:20-04:00","id":"b07df8fd-066d-4fb4-b37b-6b46526e1582","issued":"2017-10-28T15:22:20.991-04:00","meta":{"lastUpdated":"2019-04-08T14:22:52.932508+00:00","versionId":"MTU1NDczMzM3MjkzMjUwODAwMA"},"resourceType":"DiagnosticReport","result":[{"display":"Total Cholesterol","reference":"Observation/4bb2ad9e-ef79-4021-95f8-90c70e45ff02"},{"display":"Triglycerides","reference":"Observation/8202f2c0-2c65-4898-a6d3-28edd0314108"},{"display":"Low Density Lipoprotein Cholesterol","reference":"Observation/5472b9da-b078-499e-99a4-ac27f1b32885"},{"display":"High Density Lipoprotein Cholesterol","reference":"Observation/1a6f0cee-bda6-4738-99ec-15e63fb45876"}],"status":"final","subject":{"reference":"Patient/00edcd24-2d46-464d-90c0-dffbd0c7384c"}}},{"resource":{"code":{"coding":[{"code":"57698-3","display":"Lipid Panel","system":"http://loinc.org"}],"text":"Lipid Panel"},"context":{"reference":"Encounter/591fea61-efcf-43fb-86c9-a23f078b6c3c"},"effectiveDateTime":"2015-10-29T15:22:20-04:00","id":"b77338d5-25a2-4c18-a232-93f2bcdee686","issued":"2015-10-29T15:22:20.991-04:00","meta":{"lastUpdated":"2019-04-08T14:22:49.832137+00:00","versionId":"MTU1NDczMzM2OTgzMjEzNzAwMA"},"resourceType":"DiagnosticReport","result":[{"display":"Total Cholesterol","reference":"Observation/b46dee7b-d83c-4aa0-9e8f-28dd44ecf5ba"},{"display":"Triglycerides","reference":"Observation/6c334733-bc0e-4064-9e57-7abfe2657370"},{"display":"Low Density Lipoprotein Cholesterol","reference":"Observation/335cfce1-6f99-4b70-91de-0d15ea9f8f7e"},{"display":"High Density Lipoprotein Cholesterol","reference":"Observation/be177a09-d96e-420b-8a1e-6e68c6201e3c"}],"status":"final","subject":{"reference":"Patient/00edcd24-2d46-464d-90c0-dffbd0c7384c"}}},{"resource":{"code":{"coding":[{"code":"57698-3","display":"Lipid Panel","system":"http://loinc.org"}],"text":"Lipid Panel"},"context":{"reference":"Encounter/642b8775-3728-4fed-a9ea-c7157a45fbd1"},"effectiveDateTime":"2016-10-28T15:22:20-04:00","id":"c1e02397-82b6-4535-8815-f731535e2d68","issued":"2016-10-28T15:22:20.991-04:00","meta":{"lastUpdated":"2019-04-08T14:22:51.897767+00:00","versionId":"MTU1NDczMzM3MTg5Nzc2NzAwMA"},"resourceType":"DiagnosticReport","result":[{"display":"Total Cholesterol","reference":"Observation/986cf2ee-02d8-44d1-a383-f0c2948a7322"},{"display":"Triglycerides","reference":"Observation/167ba062-2e98-4655-a5f3-88dc523beb4b"},{"display":"Low Density Lipoprotein Cholesterol","reference":"Observation/52b68ab4-2e32-40c8-a176-91b54d5316b4"},{"display":"High Density Lipoprotein Cholesterol","reference":"Observation/e37ac090-bab1-41b6-85f7-db5d6814b183"}],"status":"final","subject":{"reference":"Patient/00edcd24-2d46-464d-90c0-dffbd0c7384c"}}},{"resource":{"code":{"coding":[{"code":"57698-3","display":"Lipid Panel","system":"http://loinc.org"}],"text":"Lipid Panel"},"context":{"reference":"Encounter/8df4f4bb-7705-4a1f-a5fc-a93ba2b68532"},"effectiveDateTime":"2013-10-29T15:22:20-04:00","id":"c3a93424-6505-41a4-9bf8-8e4f1a62a1d4","issued":"2013-10-29T15:22:20.991-04:00","meta":{"lastUpdated":"2019-04-08T14:22:45.588403+00:00","versionId":"MTU1NDczMzM2NTU4ODQwMzAwMA"},"resourceType":"DiagnosticReport","result":[{"display":"Total Cholesterol","reference":"Observation/f5f121cd-ad42-444d-b381-5d04c62109d9"},{"display":"Triglycerides","reference":"Observation/5b3d13da-8fda-45b8-b87a-e17ea3c9d2be"},{"display":"Low Density Lipoprotein Cholesterol","reference":"Observation/709e7fd3-342a-4868-8cc9-4614784f2c0f"},{"display":"High Density Lipoprotein Cholesterol","reference":"Observation/5f7054af-efaf-4fd1-bf57-22c2a595dac9"}],"status":"final","subject":{"reference":"Patient/00edcd24-2d46-464d-90c0-dffbd0c7384c"}}},{"resource":{"code":{"coding":[{"code":"57698-3","display":"Lipid Panel","system":"http://loinc.org"}],"text":"Lipid Panel"},"context":{"reference":"Encounter/3b3541c7-8526-4729-814f-24a8cebf1dbd"},"effectiveDateTime":"2011-10-30T15:22:20-04:00","id":"d0d96cde-59ff-41c9-9b94-610bb6b71985","issued":"2011-10-30T15:22:20.991-04:00","meta":{"lastUpdated":"2019-04-08T14:22:42.530583+00:00","versionId":"MTU1NDczMzM2MjUzMDU4MzAwMA"},"resourceType":"DiagnosticReport","result":[{"display":"Total Cholesterol","reference":"Observation/ad3984d8-6155-4fd0-b337-cc1579139683"},{"display":"Triglycerides","reference":"Observation/9e98d8e2-8dc9-42b9-9b0e-f0f99b52063c"},{"display":"Low Density Lipoprotein Cholesterol","reference":"Observation/7b306f6d-a426-4b6e-989e-7b12f1bd9998"},{"display":"High Density Lipoprotein Cholesterol","reference":"Observation/6705c669-041c-4b2a-9b7d-3ea383263804"}],"status":"final","subject":{"reference":"Patient/00edcd24-2d46-464d-90c0-dffbd0c7384c"}}},{"resource":{"code":{"coding":[{"code":"24323-8","display":"Comprehensive metabolic 2000 panel - Serum or Plasma","system":"http://loinc.org"}],"text":"Comprehensive metabolic 2000 panel - Serum or Plasma"},"context":{"reference":"Encounter/8d5b6b8d-e7f3-4c41-86a3-24186aaead5d"},"effectiveDateTime":"2014-10-29T15:22:20-04:00","id":"d34b803a-39e6-467e-9d54-1928fe3d15d3","issued":"2014-10-29T15:22:20.991-04:00","meta":{"lastUpdated":"2019-04-08T14:22:47.740605+00:00","versionId":"MTU1NDczMzM2Nzc0MDYwNTAwMA"},"resourceType":"DiagnosticReport","result":[{"display":"Glucose","reference":"Observation/9fe1708a-c0a7-4ebd-9053-903d77c710f9"},{"display":"Urea Nitrogen","reference":"Observation/510ff863-c9ac-4933-8d6e-c2a53b92ab43"},{"display":"Creatinine","reference":"Observation/cf811be7-e480-4164-9901-23504cc7adc1"},{"display":"Calcium","reference":"Observation/1084d022-dbbd-453a-b93e-cd4580d57a0f"},{"display":"Sodium","reference":"Observation/b435255e-6736-4591-af8a-dcd7b8662890"},{"display":"Potassium","reference":"Observation/9092f4b8-9697-4c86-8d13-9070d0c2f7eb"},{"display":"Chloride","reference":"Observation/3a36009a-e734-41ca-861e-23760692e4bd"},{"display":"Carbon Dioxide","reference":"Observation/6895b31a-c5da-4d51-b655-db2c8a12bb71"},{"display":"Glomerular filtration rate/1.73 sq M.predicted","reference":"Observation/612f19ac-8a9d-46c7-8af2-3c3043c1b846"},{"display":"Protein [Mass/volume] in Serum or Plasma","reference":"Observation/20a99844-7feb-4745-ac3a-55d56f129865"},{"display":"Albumin [Mass/volume] in Serum or Plasma","reference":"Observation/68f237b2-7085-4a6e-b0eb-77c1deacb38b"},{"display":"Globulin [Mass/volume] in Serum by calculation","reference":"Observation/41379f9d-148d-49af-afed-89ddaecfbdce"},{"display":"Bilirubin.total [Mass/volume] in Serum or Plasma","reference":"Observation/06b7b214-1ddd-4e6b-876e-b0f11b0788e0"},{"display":"Alkaline phosphatase [Enzymatic activity/volume] in Serum or Plasma","reference":"Observation/ad7cd85d-45ca-44a5-ad3c-ca97c7cfad02"},{"display":"Alanine aminotransferase [Enzymatic activity/volume] in Serum or Plasma","reference":"Observation/c75baaf9-3670-489a-a99f-b33cab212c74"},{"display":"Aspartate aminotransferase [Enzymatic activity/volume] in Serum or Plasma","reference":"Observation/b1e357a2-58a8-4d4a-b22d-c68b75d71d51"}],"status":"final","subject":{"reference":"Patient/00edcd24-2d46-464d-90c0-dffbd0c7384c"}}},{"resource":{"code":{"coding":[{"code":"57698-3","display":"Lipid Panel","system":"http://loinc.org"}],"text":"Lipid Panel"},"context":{"reference":"Encounter/8afc1bda-080e-423d-8d5e-6b090be14f1f"},"effectiveDateTime":"2010-10-30T15:22:20-04:00","id":"d8a8d39d-4869-447f-8ff9-7f5df936aa1d","issued":"2010-10-30T15:22:20.991-04:00","meta":{"lastUpdated":"2019-04-08T14:22:40.444006+00:00","versionId":"MTU1NDczMzM2MDQ0NDAwNjAwMA"},"resourceType":"DiagnosticReport","result":[{"display":"Total Cholesterol","reference":"Observation/3b8f70ac-427c-4cad-bb87-25d310d482a1"},{"display":"Triglycerides","reference":"Observation/8f6c9eb0-fa1e-4b28-8745-11fd13b2d8c5"},{"display":"Low Density Lipoprotein Cholesterol","reference":"Observation/e9cdcfae-e4ae-444e-8123-d2679beebccb"},{"display":"High Density Lipoprotein Cholesterol","reference":"Observation/c1f6e8f7-64b0-4aee-8bc1-a5988e1a0bea"}],"status":"final","subject":{"reference":"Patient/00edcd24-2d46-464d-90c0-dffbd0c7384c"}}},{"resource":{"code":{"coding":[{"code":"24323-8","display":"Comprehensive metabolic 2000 panel - Serum or Plasma","system":"http://loinc.org"}],"text":"Comprehensive metabolic 2000 panel - Serum or Plasma"},"context":{"reference":"Encounter/bc9dcf8e-667d-44dd-876c-800d459d6616"},"effectiveDateTime":"2012-10-29T15:22:20-04:00","id":"efdfeda7-7d25-49ce-be0c-acf7e98c3222","issued":"2012-10-29T15:22:20.991-04:00","meta":{"lastUpdated":"2019-04-08T14:22:43.554885+00:00","versionId":"MTU1NDczMzM2MzU1NDg4NTAwMA"},"resourceType":"DiagnosticReport","result":[{"display":"Glucose","reference":"Observation/b7b186a7-2bda-44af-9f02-e1cf74f05869"},{"display":"Urea Nitrogen","reference":"Observation/f29a3eec-317e-4e61-8f34-8fefb6dcdb8f"},{"display":"Creatinine","reference":"Observation/e5fbc210-d354-4a15-a88e-fd53e01f49ce"},{"display":"Calcium","reference":"Observation/15fc2fa8-4c73-433c-be62-f92852319826"},{"display":"Sodium","reference":"Observation/a51ef8ae-db84-4007-b624-54666b53a8f5"},{"display":"Potassium","reference":"Observation/e620b2a2-522c-406e-bf11-ca8f2ca78c6c"},{"display":"Chloride","reference":"Observation/35940ba4-ea94-44fa-a8ab-1c0e38d89b42"},{"display":"Carbon Dioxide","reference":"Observation/b1bf0aa2-ac09-454b-9e18-585d79ac0210"},{"display":"Glomerular filtration rate/1.73 sq M.predicted","reference":"Observation/613ae64f-80a7-4b4c-b561-a72da2944a13"},{"display":"Protein [Mass/volume] in Serum or Plasma","reference":"Observation/214b9ba6-db48-4cae-87fb-4d1f4e9d615b"},{"display":"Albumin [Mass/volume] in Serum or Plasma","reference":"Observation/f65ef932-0406-4784-a61d-ce579aad23f9"},{"display":"Globulin [Mass/volume] in Serum by calculation","reference":"Observation/0c2678f1-1e08-4c41-86ce-e85a150b3778"},{"display":"Bilirubin.total [Mass/volume] in Serum or Plasma","reference":"Observation/cc854824-39df-413a-9932-6730b75bdee4"},{"display":"Alkaline phosphatase [Enzymatic activity/volume] in Serum or Plasma","reference":"Observation/834515d9-40a1-4f44-be08-890b34b4f4e0"},{"display":"Alanine aminotransferase [Enzymatic activity/volume] in Serum or Plasma","reference":"Observation/5055d967-e41f-4520-b529-bee4266b2350"},{"display":"Aspartate aminotransferase [Enzymatic activity/volume] in Serum or Plasma","reference":"Observation/6dc13658-cb10-4a59-8f3b-8d3976c313b2"}],"status":"final","subject":{"reference":"Patient/00edcd24-2d46-464d-90c0-dffbd0c7384c"}}},{"resource":{"code":{"coding":[{"code":"24323-8","display":"Comprehensive metabolic 2000 panel - Serum or Plasma","system":"http://loinc.org"}],"text":"Comprehensive metabolic 2000 panel - Serum or Plasma"},"context":{"reference":"Encounter/8df4f4bb-7705-4a1f-a5fc-a93ba2b68532"},"effectiveDateTime":"2013-10-29T15:22:20-04:00","id":"f25de506-44b9-4607-9241-69221ef97ae6","issued":"2013-10-29T15:22:20.991-04:00","meta":{"lastUpdated":"2019-04-08T14:22:45.606665+00:00","versionId":"MTU1NDczMzM2NTYwNjY2NTAwMA"},"resourceType":"DiagnosticReport","result":[{"display":"Glucose","reference":"Observation/16c088a2-eb39-4416-ab67-31b8a49bea92"},{"display":"Urea Nitrogen","reference":"Observation/e6f4dd4d-cc37-497d-9036-176bdd50f35d"},{"display":"Creatinine","reference":"Observation/fda7b7b2-89aa-425d-b7a3-75735a467b47"},{"display":"Calcium","reference":"Observation/c673785a-26d9-43c8-b379-346b9c63e99c"},{"display":"Sodium","reference":"Observation/fed6625d-cb6f-4c54-af57-9e1d38fae9e3"},{"display":"Potassium","reference":"Observation/e4eb1ffc-16a2-4797-b333-ba59089a2ff1"},{"display":"Chloride","reference":"Observation/67c2caac-9467-42ed-ad4b-8cd08824d8a5"},{"display":"Carbon Dioxide","reference":"Observation/9d047639-4a2f-4b00-95c3-8816c7fecbeb"},{"display":"Glomerular filtration rate/1.73 sq M.predicted","reference":"Observation/8e43bf69-49db-4720-be49-6662d48be563"},{"display":"Protein [Mass/volume] in Serum or Plasma","reference":"Observation/1d18345c-1ba6-4e40-9dba-d0c2983e2030"},{"display":"Albumin [Mass/volume] in Serum or Plasma","reference":"Observation/1ba4a4b5-aa5d-4c6f-a00b-208d7fee39ec"},{"display":"Globulin [Mass/volume] in Serum by calculation","reference":"Observation/597e27ce-3c8f-441a-8fd2-d983e0ee4e9b"},{"display":"Bilirubin.total [Mass/volume] in Serum or Plasma","reference":"Observation/99a7ce70-cbe4-4605-a7b2-a6e581963deb"},{"display":"Alkaline phosphatase [Enzymatic activity/volume] in Serum or Plasma","reference":"Observation/1aa1c448-a9bf-427f-9e8c-577ef5fe2a0b"},{"display":"Alanine aminotransferase [Enzymatic activity/volume] in Serum or Plasma","reference":"Observation/5d1d4b4f-a26d-4634-80b0-b3140d1b795b"},{"display":"Aspartate aminotransferase [Enzymatic activity/volume] in Serum or Plasma","reference":"Observation/f9f7d202-03e7-47cc-b6a8-531fcb08aacd"}],"status":"final","subject":{"reference":"Patient/00edcd24-2d46-464d-90c0-dffbd0c7384c"}}},{"resource":{"code":{"coding":[{"code":"58410-2","display":"Complete blood count (hemogram) panel - Blood by Automated count","system":"http://loinc.org"}],"text":"Complete blood count (hemogram) panel - Blood by Automated count"},"context":{"reference":"Encounter/70b9b85f-ab8d-4a14-a311-137d31b7f4a8"},"effectiveDateTime":"2010-09-29T15:22:20-04:00","id":"fca62503-e9eb-45ba-8133-089128685f6d","issued":"2010-09-29T15:22:20.991-04:00","meta":{"lastUpdated":"2019-04-08T14:22:39.412840+00:00","versionId":"MTU1NDczMzM1OTQxMjg0MDAwMA"},"resourceType":"DiagnosticReport","result":[{"display":"Leukocytes [#/volume] in Blood by Automated count","reference":"Observation/11a1aa0f-5515-4c40-9752-12fea2d13970"},{"display":"Erythrocytes [#/volume] in Blood by Automated count","reference":"Observation/9273a8a8-13a9-4af3-aa20-bd24d421cd7d"},{"display":"Hemoglobin [Mass/volume] in Blood","reference":"Observation/b14ef1db-ca93-4cfe-a864-5fd917ce0e56"},{"display":"Hematocrit [Volume Fraction] of Blood by Automated count","reference":"Observation/fc4825af-2d3c-4c44-aa59-5777210f9ef3"},{"display":"MCV [Entitic volume] by Automated count","reference":"Observation/ea5e16aa-0740-4c13-86b2-70fd02dc28d5"},{"display":"MCH [Entitic mass] by Automated count","reference":"Observation/139694fb-4c51-4b0c-bc03-c5e1872a8186"},{"display":"MCHC [Mass/volume] by Automated count","reference":"Observation/1ccdce76-65e4-4e6a-ad72-53c3912fb6b1"},{"display":"Erythrocyte distribution width [Entitic volume] by Automated count","reference":"Observation/51f51801-8227-463b-9e8b-cb072f6f6460"},{"display":"Platelets [#/volume] in Blood by Automated count","reference":"Observation/626a5c18-f1ec-4297-bb4c-4b9d524b17fd"},{"display":"Platelet distribution width [Entitic volume] in Blood by Automated count","reference":"Observation/f8ac37ae-5cd5-44f8-b4a9-eb4936717dad"},{"display":"Platelet mean volume [Entitic volume] in Blood by Automated count","reference":"Observation/95b04d16-1804-472b-944d-03ea743e8374"}],"status":"final","subject":{"reference":"Patient/00edcd24-2d46-464d-90c0-dffbd0c7384c"}}},{"resource":{"class":{"code":"ambulatory"},"id":"01e41a25-3f0a-4b1a-9689-63b82f56aa0f","meta":{"lastUpdated":"2019-04-08T14:22:34.245583+00:00","versionId":"MTU1NDczMzM1NDI0NTU4MzAwMA"},"participant":[{"individual":{"reference":"Practitioner/05cf5e00-1573-4ef6-bc06-84e74cc19fa9"}}],"period":{"end":"1988-08-17T20:37:20-04:00","start":"1988-08-17T15:22:20-04:00"},"reason":[{"coding":[{"code":"72892002","display":"Normal pregnancy","system":"http://snomed.info/sct"}]}],"resourceType":"Encounter","serviceProvider":{"reference":"Organization/4860db12-0cde-45c6-8e62-01cbbcfd1dee"},"status":"finished","subject":{"reference":"Patient/00edcd24-2d46-464d-90c0-dffbd0c7384c"},"type":[{"coding":[{"code":"424441002","display":"Prenatal initial visit","system":"http://snomed.info/sct"}],"text":"Prenatal initial visit"}]}},{"resource":{"class":{"code":"inpatient"},"id":"067a2db5-f5b6-453b-9fa3-2dbbdded603d","meta":{"lastUpdated":"2019-04-08T14:22:43.546749+00:00","versionId":"MTU1NDczMzM2MzU0Njc0OTAwMA"},"participant":[{"individual":{"reference":"Practitioner/05cf5e00-1573-4ef6-bc06-84e74cc19fa9"}}],"period":{"end":"2012-10-12T15:22:20-04:00","start":"2012-10-11T15:22:20-04:00"},"resourceType":"Encounter","serviceProvider":{"reference":"Organization/4860db12-0cde-45c6-8e62-01cbbcfd1dee"},"status":"finished","subject":{"reference":"Patient/00edcd24-2d46-464d-90c0-dffbd0c7384c"},"type":[{"coding":[{"code":"56876005","display":"Drug rehabilitation and detoxification","system":"http://snomed.info/sct"}],"text":"Drug rehabilitation and detoxification"}]}},{"resource":{"class":{"code":"outpatient"},"id":"081ca6c4-51f9-4cfb-9a4a-393a7949df8d","meta":{"lastUpdated":"2019-04-08T14:22:36.326932+00:00","versionId":"MTU1NDczMzM1NjMyNjkzMjAwMA"},"participant":[{"individual":{"reference":"Practitioner/05cf5e00-1573-4ef6-bc06-84e74cc19fa9"}}],"period":{"end":"2009-05-14T15:37:20-04:00","start":"2009-05-14T15:22:20-04:00"},"resourceType":"Encounter","serviceProvider":{"reference":"Organization/4860db12-0cde-45c6-8e62-01cbbcfd1dee"},"status":"finished","subject":{"reference":"Patient/00edcd24-2d46-464d-90c0-dffbd0c7384c"},"type":[{"coding":[{"code":"185347001","display":"Encounter for problem (procedure)","system":"http://snomed.info/sct"}],"text":"Encounter for problem (procedure)"}]}},{"resource":{"class":{"code":"outpatient"},"id":"09f83c62-b38b-48cf-b18c-d87c4f48c1aa","meta":{"lastUpdated":"2019-04-08T14:22:46.649928+00:00","versionId":"MTU1NDczMzM2NjY0OTkyODAwMA"},"participant":[{"individual":{"reference":"Practitioner/05cf5e00-1573-4ef6-bc06-84e74cc19fa9"}}],"period":{"end":"2014-06-18T15:37:20-04:00","start":"2014-06-18T15:22:20-04:00"},"resourceType":"Encounter","serviceProvider":{"reference":"Organization/4860db12-0cde-45c6-8e62-01cbbcfd1dee"},"status":"finished","subject":{"reference":"Patient/00edcd24-2d46-464d-90c0-dffbd0c7384c"},"type":[{"coding":[{"code":"185347001","display":"Encounter for problem (procedure)","system":"http://snomed.info/sct"}],"text":"Encounter for problem (procedure)"}]}},{"resource":{"class":{"code":"ambulatory"},"id":"131a7070-2a50-4eda-afc0-090e01d67059","meta":{"lastUpdated":"2019-04-08T14:22:38.354784+00:00","versionId":"MTU1NDczMzM1ODM1NDc4NDAwMA"},"participant":[{"individual":{"reference":"Practitioner/05cf5e00-1573-4ef6-bc06-84e74cc19fa9"}}],"period":{"end":"2009-10-28T16:08:20-04:00","start":"2009-10-28T15:22:20-04:00"},"resourceType":"Encounter","serviceProvider":{"reference":"Organization/4860db12-0cde-45c6-8e62-01cbbcfd1dee"},"status":"finished","subject":{"reference":"Patient/00edcd24-2d46-464d-90c0-dffbd0c7384c"},"type":[{"coding":[{"code":"185349003","display":"Encounter for 'check-up'","system":"http://snomed.info/sct"}],"text":"Encounter for 'check-up'"}]}},{"resource":{"class":{"code":"ambulatory"},"id":"140ced69-0140-4976-b98c-4852293c4644","meta":{"lastUpdated":"2019-04-08T14:22:34.252123+00:00","versionId":"MTU1NDczMzM1NDI1MjEyMzAwMA"},"participant":[{"individual":{"reference":"Practitioner/05cf5e00-1573-4ef6-bc06-84e74cc19fa9"}}],"period":{"end":"1983-09-28T20:37:20-04:00","start":"1983-09-28T15:22:20-04:00"},"reason":[{"coding":[{"code":"72892002","display":"Normal pregnancy","system":"http://snomed.info/sct"}]}],"resourceType":"Encounter","serviceProvider":{"reference":"Organization/4860db12-0cde-45c6-8e62-01cbbcfd1dee"},"status":"finished","subject":{"reference":"Patient/00edcd24-2d46-464d-90c0-dffbd0c7384c"},"type":[{"coding":[{"code":"424441002","display":"Prenatal initial visit","system":"http://snomed.info/sct"}],"text":"Prenatal initial visit"}]}},{"resource":{"class":{"code":"outpatient"},"id":"1672d0bb-b588-4804-befa-e3d823e58b02","meta":{"lastUpdated":"2019-04-08T14:22:46.651251+00:00","versionId":"MTU1NDczMzM2NjY1MTI1MTAwMA"},"participant":[{"individual":{"reference":"Practitioner/05cf5e00-1573-4ef6-bc06-84e74cc19fa9"}}],"period":{"end":"2014-07-18T15:37:20-04:00","start":"2014-07-18T15:22:20-04:00"},"resourceType":"Encounter","serviceProvider":{"reference":"Organization/4860db12-0cde-45c6-8e62-01cbbcfd1dee"},"status":"finished","subject":{"reference":"Patient/00edcd24-2d46-464d-90c0-dffbd0c7384c"},"type":[{"coding":[{"code":"185347001","display":"Encounter for problem (procedure)","system":"http://snomed.info/sct"}],"text":"Encounter for problem (procedure)"}]}},{"resource":{"class":{"code":"outpatient"},"id":"19195ff1-d9f6-406b-9858-7466863d9ec9","meta":{"lastUpdated":"2019-04-08T14:22:46.651252+00:00","versionId":"MTU1NDczMzM2NjY1MTI1MjAwMA"},"participant":[{"individual":{"reference":"Practitioner/05cf5e00-1573-4ef6-bc06-84e74cc19fa9"}}],"period":{"end":"2014-08-17T15:37:20-04:00","start":"2014-08-17T15:22:20-04:00"},"resourceType":"Encounter","serviceProvider":{"reference":"Organization/4860db12-0cde-45c6-8e62-01cbbcfd1dee"},"status":"finished","subject":{"reference":"Patient/00edcd24-2d46-464d-90c0-dffbd0c7384c"},"type":[{"coding":[{"code":"185347001","display":"Encounter for problem (procedure)","system":"http://snomed.info/sct"}],"text":"Encounter for problem (procedure)"}]}},{"resource":{"class":{"code":"outpatient"},"id":"20a81907-37bf-49ec-b66f-70787aeaa8ec","meta":{"lastUpdated":"2019-04-08T14:22:46.658199+00:00","versionId":"MTU1NDczMzM2NjY1ODE5OTAwMA"},"participant":[{"individual":{"reference":"Practitioner/05cf5e00-1573-4ef6-bc06-84e74cc19fa9"}}],"period":{"end":"2014-03-03T14:37:20-05:00","start":"2014-03-03T14:22:20-05:00"},"resourceType":"Encounter","serviceProvider":{"reference":"Organization/4860db12-0cde-45c6-8e62-01cbbcfd1dee"},"status":"finished","subject":{"reference":"Patient/00edcd24-2d46-464d-90c0-dffbd0c7384c"},"type":[{"coding":[{"code":"185347001","display":"Encounter for problem (procedure)","system":"http://snomed.info/sct"}],"text":"Encounter for problem (procedure)"}]}},{"resource":{"class":{"code":"WELLNESS"},"id":"2287bc0b-0a05-4bb9-a1cb-5a2c6aca4d98","meta":{"lastUpdated":"2019-04-08T14:22:48.797454+00:00","versionId":"MTU1NDczMzM2ODc5NzQ1NDAwMA"},"participant":[{"individual":{"reference":"Practitioner/05cf5e00-1573-4ef6-bc06-84e74cc19fa9"}}],"period":{"end":"2015-10-28T15:52:20-04:00","start":"2015-10-28T15:22:20-04:00"},"resourceType":"Encounter","serviceProvider":{"reference":"Organization/4860db12-0cde-45c6-8e62-01cbbcfd1dee"},"status":"finished","subject":{"reference":"Patient/00edcd24-2d46-464d-90c0-dffbd0c7384c"},"type":[{"coding":[{"code":"185349003","display":"Encounter for check up (procedure)","system":"http://snomed.info/sct"}],"text":"Encounter for check up (procedure)"}]}},{"resource":{"class":{"code":"WELLNESS"},"id":"2a8364bd-4845-4b2d-9113-3181d58f45f9","meta":{"lastUpdated":"2019-04-08T14:22:41.464144+00:00","versionId":"MTU1NDczMzM2MTQ2NDE0NDAwMA"},"participant":[{"individual":{"reference":"Practitioner/05cf5e00-1573-4ef6-bc06-84e74cc19fa9"}}],"period":{"end":"2011-10-05T15:37:20-04:00","start":"2011-10-05T15:22:20-04:00"},"resourceType":"Encounter","serviceProvider":{"reference":"Organization/4860db12-0cde-45c6-8e62-01cbbcfd1dee"},"status":"finished","subject":{"reference":"Patient/00edcd24-2d46-464d-90c0-dffbd0c7384c"},"type":[{"coding":[{"code":"185349003","display":"Encounter for check up (procedure)","system":"http://snomed.info/sct"}],"text":"Encounter for check up (procedure)"}]}},{"resource":{"class":{"code":"outpatient"},"id":"2b1415db-caf2-42c0-af2e-844089857c83","meta":{"lastUpdated":"2019-04-08T14:22:37.353725+00:00","versionId":"MTU1NDczMzM1NzM1MzcyNTAwMA"},"participant":[{"individual":{"reference":"Practitioner/05cf5e00-1573-4ef6-bc06-84e74cc19fa9"}}],"period":{"end":"2009-08-12T15:37:20-04:00","start":"2009-08-12T15:22:20-04:00"},"resourceType":"Encounter","serviceProvider":{"reference":"Organization/4860db12-0cde-45c6-8e62-01cbbcfd1dee"},"status":"finished","subject":{"reference":"Patient/00edcd24-2d46-464d-90c0-dffbd0c7384c"},"type":[{"coding":[{"code":"185347001","display":"Encounter for problem (procedure)","system":"http://snomed.info/sct"}],"text":"Encounter for problem (procedure)"}]}},{"resource":{"class":{"code":"ambulatory"},"id":"2eed5a2b-c28c-4cba-af0a-53a01ea5914d","meta":{"lastUpdated":"2019-04-08T14:22:34.256999+00:00","versionId":"MTU1NDczMzM1NDI1Njk5OTAwMA"},"participant":[{"individual":{"reference":"Practitioner/05cf5e00-1573-4ef6-bc06-84e74cc19fa9"}}],"period":{"end":"2001-11-01T14:37:20-05:00","start":"2001-11-01T14:22:20-05:00"},"reason":[{"coding":[{"code":"55822004","display":"Hyperlipidemia","system":"http://snomed.info/sct"}]}],"resourceType":"Encounter","serviceProvider":{"reference":"Organization/4860db12-0cde-45c6-8e62-01cbbcfd1dee"},"status":"finished","subject":{"reference":"Patient/00edcd24-2d46-464d-90c0-dffbd0c7384c"},"type":[{"coding":[{"code":"390906007","display":"Follow-up encounter","system":"http://snomed.info/sct"}],"text":"Follow-up encounter"}]}},{"resource":{"class":{"code":"emergency"},"id":"3055077c-86e1-4871-9c04-0aa920d1687a","meta":{"lastUpdated":"2019-04-08T14:22:48.797455+00:00","versionId":"MTU1NDczMzM2ODc5NzQ1NTAwMA"},"participant":[{"individual":{"reference":"Practitioner/05cf5e00-1573-4ef6-bc06-84e74cc19fa9"}}],"period":{"end":"2015-09-01T16:22:20-04:00","start":"2015-09-01T15:22:20-04:00"},"reason":[{"coding":[{"code":"55680006","display":"Drug overdose","system":"http://snomed.info/sct"}]}],"resourceType":"Encounter","serviceProvider":{"reference":"Organization/4860db12-0cde-45c6-8e62-01cbbcfd1dee"},"status":"finished","subject":{"reference":"Patient/00edcd24-2d46-464d-90c0-dffbd0c7384c"},"type":[{"coding":[{"code":"50849002","display":"Emergency Room Admission","system":"http://snomed.info/sct"}],"text":"Emergency Room Admission"}]}},{"resource":{"class":{"code":"outpatient"},"id":"3755b15e-d0e7-4f71-8894-74c6f22b47c4","meta":{"lastUpdated":"2019-04-08T14:22:53.921259+00:00","versionId":"MTU1NDczMzM3MzkyMTI1OTAwMA"},"participant":[{"individual":{"reference":"Practitioner/05cf5e00-1573-4ef6-bc06-84e74cc19fa9"}}],"period":{"end":"2018-03-24T15:37:20-04:00","start":"2018-03-24T15:22:20-04:00"},"resourceType":"Encounter","serviceProvider":{"reference":"Organization/4860db12-0cde-45c6-8e62-01cbbcfd1dee"},"status":"finished","subject":{"reference":"Patient/00edcd24-2d46-464d-90c0-dffbd0c7384c"},"type":[{"coding":[{"code":"185347001","display":"Encounter for problem (procedure)","system":"http://snomed.info/sct"}],"text":"Encounter for problem (procedure)"}]}},{"resource":{"class":{"code":"outpatient"},"id":"378eda8c-0a34-4b12-a9bf-eb62e69c380f","meta":{"lastUpdated":"2019-04-08T14:22:49.827046+00:00","versionId":"MTU1NDczMzM2OTgyNzA0NjAwMA"},"participant":[{"individual":{"reference":"Practitioner/05cf5e00-1573-4ef6-bc06-84e74cc19fa9"}}],"period":{"end":"2016-05-16T15:37:20-04:00","start":"2016-05-16T15:22:20-04:00"},"resourceType":"Encounter","serviceProvider":{"reference":"Organization/4860db12-0cde-45c6-8e62-01cbbcfd1dee"},"status":"finished","subject":{"reference":"Patient/00edcd24-2d46-464d-90c0-dffbd0c7384c"},"type":[{"coding":[{"code":"185347001","display":"Encounter for problem (procedure)","system":"http://snomed.info/sct"}],"text":"Encounter for problem (procedure)"}]}},{"resource":{"class":{"code":"inpatient"},"id":"39e0a8a0-7f91-4767-814d-44ccbfc34daa","meta":{"lastUpdated":"2019-04-08T14:22:34.256994+00:00","versionId":"MTU1NDczMzM1NDI1Njk5NDAwMA"},"participant":[{"individual":{"reference":"Practitioner/05cf5e00-1573-4ef6-bc06-84e74cc19fa9"}}],"period":{"end":"1990-03-05T14:37:20-05:00","start":"1990-03-04T14:22:20-05:00"},"reason":[{"coding":[{"code":"196416002","display":"Impacted molars","system":"http://snomed.info/sct"}]}],"resourceType":"Encounter","serviceProvider":{"reference":"Organization/4860db12-0cde-45c6-8e62-01cbbcfd1dee"},"status":"finished","subject":{"reference":"Patient/00edcd24-2d46-464d-90c0-dffbd0c7384c"},"type":[{"coding":[{"code":"183452005","display":"Encounter Inpatient","system":"http://snomed.info/sct"}],"text":"Encounter Inpatient"}]}},{"resource":{"class":{"code":"ambulatory"},"id":"3b3541c7-8526-4729-814f-24a8cebf1dbd","meta":{"lastUpdated":"2019-04-08T14:22:42.529887+00:00","versionId":"MTU1NDczMzM2MjUyOTg4NzAwMA"},"participant":[{"individual":{"reference":"Practitioner/05cf5e00-1573-4ef6-bc06-84e74cc19fa9"}}],"period":{"end":"2011-10-30T15:37:20-04:00","start":"2011-10-30T15:22:20-04:00"},"reason":[{"coding":[{"code":"55822004","display":"Hyperlipidemia","system":"http://snomed.info/sct"}]}],"resourceType":"Encounter","serviceProvider":{"reference":"Organization/4860db12-0cde-45c6-8e62-01cbbcfd1dee"},"status":"finished","subject":{"reference":"Patient/00edcd24-2d46-464d-90c0-dffbd0c7384c"},"type":[{"coding":[{"code":"390906007","display":"Follow-up encounter","system":"http://snomed.info/sct"}],"text":"Follow-up encounter"}]}},{"resource":{"class":{"code":"WELLNESS"},"id":"3cfa9143-f0ff-4a99-b7f5-49e7b7eede41","meta":{"lastUpdated":"2019-04-08T14:22:37.355555+00:00","versionId":"MTU1NDczMzM1NzM1NTU1NTAwMA"},"participant":[{"individual":{"reference":"Practitioner/05cf5e00-1573-4ef6-bc06-84e74cc19fa9"}}],"period":{"end":"2009-09-23T15:37:20-04:00","start":"2009-09-23T15:22:20-04:00"},"resourceType":"Encounter","serviceProvider":{"reference":"Organization/4860db12-0cde-45c6-8e62-01cbbcfd1dee"},"status":"finished","subject":{"reference":"Patient/00edcd24-2d46-464d-90c0-dffbd0c7384c"},"type":[{"coding":[{"code":"185349003","display":"Encounter for check up (procedure)","system":"http://snomed.info/sct"}],"text":"Encounter for check up (procedure)"}]}},{"resource":{"class":{"code":"ambulatory"},"id":"3f84bc07-d6af-4f6d-80ee-222bf64b3000","meta":{"lastUpdated":"2019-04-08T14:22:35.308081+00:00","versionId":"MTU1NDczMzM1NTMwODA4MTAwMA"},"participant":[{"individual":{"reference":"Practitioner/05cf5e00-1573-4ef6-bc06-84e74cc19fa9"}}],"period":{"end":"2005-10-31T14:37:20-05:00","start":"2005-10-31T14:22:20-05:00"},"reason":[{"coding":[{"code":"55822004","display":"Hyperlipidemia","system":"http://snomed.info/sct"}]}],"resourceType":"Encounter","serviceProvider":{"reference":"Organization/4860db12-0cde-45c6-8e62-01cbbcfd1dee"},"status":"finished","subject":{"reference":"Patient/00edcd24-2d46-464d-90c0-dffbd0c7384c"},"type":[{"coding":[{"code":"390906007","display":"Follow-up encounter","system":"http://snomed.info/sct"}],"text":"Follow-up encounter"}]}},{"resource":{"class":{"code":"outpatient"},"id":"40bb7264-d2e4-470f-b773-aa1ad37d8ff2","meta":{"lastUpdated":"2019-04-08T14:22:36.326927+00:00","versionId":"MTU1NDczMzM1NjMyNjkyNzAwMA"},"participant":[{"individual":{"reference":"Practitioner/05cf5e00-1573-4ef6-bc06-84e74cc19fa9"}}],"period":{"end":"2009-03-15T15:37:20-04:00","start":"2009-03-15T15:22:20-04:00"},"resourceType":"Encounter","serviceProvider":{"reference":"Organization/4860db12-0cde-45c6-8e62-01cbbcfd1dee"},"status":"finished","subject":{"reference":"Patient/00edcd24-2d46-464d-90c0-dffbd0c7384c"},"type":[{"coding":[{"code":"185347001","display":"Encounter for problem (procedure)","system":"http://snomed.info/sct"}],"text":"Encounter for problem (procedure)"}]}},{"resource":{"class":{"code":"inpatient"},"id":"42aa7f50-2641-4491-a208-aaaea5f24f80","meta":{"lastUpdated":"2019-04-08T14:22:34.256996+00:00","versionId":"MTU1NDczMzM1NDI1Njk5NjAwMA"},"participant":[{"individual":{"reference":"Practitioner/05cf5e00-1573-4ef6-bc06-84e74cc19fa9"}}],"period":{"end":"1990-12-20T14:22:20-05:00","start":"1990-12-19T14:22:20-05:00"},"reason":[{"coding":[{"code":"124171000119105","display":"Chronic intractable migraine without aura","system":"http://snomed.info/sct"}]}],"resourceType":"Encounter","serviceProvider":{"reference":"Organization/4860db12-0cde-45c6-8e62-01cbbcfd1dee"},"status":"finished","subject":{"reference":"Patient/00edcd24-2d46-464d-90c0-dffbd0c7384c"},"type":[{"coding":[{"code":"183452005","display":"Encounter Inpatient","system":"http://snomed.info/sct"}],"text":"Encounter Inpatient"}]}},{"resource":{"class":{"code":"outpatient"},"id":"4405bb73-eb2b-429b-a114-b8e0ccaf8e5d","meta":{"lastUpdated":"2019-04-08T14:22:48.789357+00:00","versionId":"MTU1NDczMzM2ODc4OTM1NzAwMA"},"participant":[{"individual":{"reference":"Practitioner/05cf5e00-1573-4ef6-bc06-84e74cc19fa9"}}],"period":{"end":"2015-09-08T15:37:20-04:00","start":"2015-09-08T15:22:20-04:00"},"resourceType":"Encounter","serviceProvider":{"reference":"Organization/4860db12-0cde-45c6-8e62-01cbbcfd1dee"},"status":"finished","subject":{"reference":"Patient/00edcd24-2d46-464d-90c0-dffbd0c7384c"},"type":[{"coding":[{"code":"185347001","display":"Encounter for problem (procedure)","system":"http://snomed.info/sct"}],"text":"Encounter for problem (procedure)"}]}},{"resource":{"class":{"code":"outpatient"},"id":"47c3e8a7-819d-4494-aa16-74cdf6ac199a","meta":{"lastUpdated":"2019-04-08T14:22:48.794533+00:00","versionId":"MTU1NDczMzM2ODc5NDUzMzAwMA"},"participant":[{"individual":{"reference":"Practitioner/05cf5e00-1573-4ef6-bc06-84e74cc19fa9"}}],"period":{"end":"2015-02-13T14:37:20-05:00","start":"2015-02-13T14:22:20-05:00"},"resourceType":"Encounter","serviceProvider":{"reference":"Organization/4860db12-0cde-45c6-8e62-01cbbcfd1dee"},"status":"finished","subject":{"reference":"Patient/00edcd24-2d46-464d-90c0-dffbd0c7384c"},"type":[{"coding":[{"code":"185347001","display":"Encounter for problem (procedure)","system":"http://snomed.info/sct"}],"text":"Encounter for problem (procedure)"}]}},{"resource":{"class":{"code":"outpatient"},"id":"4c2689b7-ee8e-43c9-ba06-8670f2a91631","meta":{"lastUpdated":"2019-04-08T14:22:36.324983+00:00","versionId":"MTU1NDczMzM1NjMyNDk4MzAwMA"},"participant":[{"individual":{"reference":"Practitioner/05cf5e00-1573-4ef6-bc06-84e74cc19fa9"}}],"period":{"end":"2009-06-13T15:37:20-04:00","start":"2009-06-13T15:22:20-04:00"},"resourceType":"Encounter","serviceProvider":{"reference":"Organization/4860db12-0cde-45c6-8e62-01cbbcfd1dee"},"status":"finished","subject":{"reference":"Patient/00edcd24-2d46-464d-90c0-dffbd0c7384c"},"type":[{"coding":[{"code":"185347001","display":"Encounter for problem (procedure)","system":"http://snomed.info/sct"}],"text":"Encounter for problem (procedure)"}]}},{"resource":{"class":{"code":"WELLNESS"},"id":"4ee36405-94e8-47be-a742-cf7df78e16bf","meta":{"lastUpdated":"2019-04-08T14:22:34.262874+00:00","versionId":"MTU1NDczMzM1NDI2Mjg3NDAwMA"},"participant":[{"individual":{"reference":"Practitioner/05cf5e00-1573-4ef6-bc06-84e74cc19fa9"}}],"period":{"end":"2000-10-11T15:52:20-04:00","start":"2000-10-11T15:22:20-04:00"},"resourceType":"Encounter","serviceProvider":{"reference":"Organization/4860db12-0cde-45c6-8e62-01cbbcfd1dee"},"status":"finished","subject":{"reference":"Patient/00edcd24-2d46-464d-90c0-dffbd0c7384c"},"type":[{"coding":[{"code":"185349003","display":"Encounter for check up (procedure)","system":"http://snomed.info/sct"}],"text":"Encounter for check up (procedure)"}]}},{"resource":{"class":{"code":"ambulatory"},"id":"5235ed7a-ac2e-43f7-bb57-736fa80dd3b7","meta":{"lastUpdated":"2019-04-08T14:22:36.330643+00:00","versionId":"MTU1NDczMzM1NjMzMDY0MzAwMA"},"participant":[{"individual":{"reference":"Practitioner/05cf5e00-1573-4ef6-bc06-84e74cc19fa9"}}],"period":{"end":"2008-10-30T15:37:20-04:00","start":"2008-10-30T15:22:20-04:00"},"reason":[{"coding":[{"code":"55822004","display":"Hyperlipidemia","system":"http://snomed.info/sct"}]}],"resourceType":"Encounter","serviceProvider":{"reference":"Organization/4860db12-0cde-45c6-8e62-01cbbcfd1dee"},"status":"finished","subject":{"reference":"Patient/00edcd24-2d46-464d-90c0-dffbd0c7384c"},"type":[{"coding":[{"code":"390906007","display":"Follow-up encounter","system":"http://snomed.info/sct"}],"text":"Follow-up encounter"}]}},{"resource":{"class":{"code":"ambulatory"},"id":"564bcb6f-e29c-4c30-ae82-0bdbc6c6488e","meta":{"lastUpdated":"2019-04-08T14:22:36.330642+00:00","versionId":"MTU1NDczMzM1NjMzMDY0MjAwMA"},"participant":[{"individual":{"reference":"Practitioner/05cf5e00-1573-4ef6-bc06-84e74cc19fa9"}}],"period":{"end":"2007-10-31T15:37:20-04:00","start":"2007-10-31T15:22:20-04:00"},"reason":[{"coding":[{"code":"55822004","display":"Hyperlipidemia","system":"http://snomed.info/sct"}]}],"resourceType":"Encounter","serviceProvider":{"reference":"Organization/4860db12-0cde-45c6-8e62-01cbbcfd1dee"},"status":"finished","subject":{"reference":"Patient/00edcd24-2d46-464d-90c0-dffbd0c7384c"},"type":[{"coding":[{"code":"390906007","display":"Follow-up encounter","system":"http://snomed.info/sct"}],"text":"Follow-up encounter"}]}},{"resource":{"class":{"code":"ambulatory"},"id":"57ea3376-f2a2-47c6-8e5b-e4da08d6d3f5","meta":{"lastUpdated":"2019-04-08T14:22:36.326928+00:00","versionId":"MTU1NDczMzM1NjMyNjkyODAwMA"},"participant":[{"individual":{"reference":"Practitioner/05cf5e00-1573-4ef6-bc06-84e74cc19fa9"}}],"period":{"end":"2006-10-31T14:37:20-05:00","start":"2006-10-31T14:22:20-05:00"},"reason":[{"coding":[{"code":"55822004","display":"Hyperlipidemia","system":"http://snomed.info/sct"}]}],"resourceType":"Encounter","serviceProvider":{"reference":"Organization/4860db12-0cde-45c6-8e62-01cbbcfd1dee"},"status":"finished","subject":{"reference":"Patient/00edcd24-2d46-464d-90c0-dffbd0c7384c"},"type":[{"coding":[{"code":"390906007","display":"Follow-up encounter","system":"http://snomed.info/sct"}],"text":"Follow-up encounter"}]}},{"resource":{"class":{"code":"ambulatory"},"id":"58eb939e-429e-4a19-ba91-4ac6c4d3b6a3","meta":{"lastUpdated":"2019-04-08T14:22:34.262872+00:00","versionId":"MTU1NDczMzM1NDI2Mjg3MjAwMA"},"participant":[{"individual":{"reference":"Practitioner/05cf5e00-1573-4ef6-bc06-84e74cc19fa9"}}],"period":{"end":"1999-02-24T19:37:20-05:00","start":"1999-02-24T14:22:20-05:00"},"reason":[{"coding":[{"code":"72892002","display":"Normal pregnancy","system":"http://snomed.info/sct"}]}],"resourceType":"Encounter","serviceProvider":{"reference":"Organization/4860db12-0cde-45c6-8e62-01cbbcfd1dee"},"status":"finished","subject":{"reference":"Patient/00edcd24-2d46-464d-90c0-dffbd0c7384c"},"type":[{"coding":[{"code":"424441002","display":"Prenatal initial visit","system":"http://snomed.info/sct"}],"text":"Prenatal initial visit"}]}},{"resource":{"class":{"code":"ambulatory"},"id":"591fea61-efcf-43fb-86c9-a23f078b6c3c","meta":{"lastUpdated":"2019-04-08T14:22:49.828651+00:00","versionId":"MTU1NDczMzM2OTgyODY1MTAwMA"},"participant":[{"individual":{"reference":"Practitioner/05cf5e00-1573-4ef6-bc06-84e74cc19fa9"}}],"period":{"end":"2015-10-29T15:37:20-04:00","start":"2015-10-29T15:22:20-04:00"},"reason":[{"coding":[{"code":"55822004","display":"Hyperlipidemia","system":"http://snomed.info/sct"}]}],"resourceType":"Encounter","serviceProvider":{"reference":"Organization/4860db12-0cde-45c6-8e62-01cbbcfd1dee"},"status":"finished","subject":{"reference":"Patient/00edcd24-2d46-464d-90c0-dffbd0c7384c"},"type":[{"coding":[{"code":"390906007","display":"Follow-up encounter","system":"http://snomed.info/sct"}],"text":"Follow-up encounter"}]}},{"resource":{"class":{"code":"outpatient"},"id":"5b2686f0-a06e-4616-81bf-0f60483eb815","meta":{"lastUpdated":"2019-04-08T14:22:40.438589+00:00","versionId":"MTU1NDczMzM2MDQzODU4OTAwMA"},"participant":[{"individual":{"reference":"Practitioner/05cf5e00-1573-4ef6-bc06-84e74cc19fa9"}}],"period":{"end":"2011-08-05T15:37:20-04:00","start":"2011-08-05T15:22:20-04:00"},"resourceType":"Encounter","serviceProvider":{"reference":"Organization/4860db12-0cde-45c6-8e62-01cbbcfd1dee"},"status":"finished","subject":{"reference":"Patient/00edcd24-2d46-464d-90c0-dffbd0c7384c"},"type":[{"coding":[{"code":"185347001","display":"Encounter for problem (procedure)","system":"http://snomed.info/sct"}],"text":"Encounter for problem (procedure)"}]}},{"resource":{"class":{"code":"emergency"},"id":"61730cc2-dfe4-48a8-8a1b-0ec68dbf4c3f","meta":{"lastUpdated":"2019-04-08T14:22:34.256998+00:00","versionId":"MTU1NDczMzM1NDI1Njk5ODAwMA"},"participant":[{"individual":{"reference":"Practitioner/05cf5e00-1573-4ef6-bc06-84e74cc19fa9"}}],"period":{"end":"2001-01-15T15:22:20-05:00","start":"2001-01-15T14:22:20-05:00"},"reason":[{"coding":[{"code":"55680006","display":"Drug overdose","system":"http://snomed.info/sct"}]}],"resourceType":"Encounter","serviceProvider":{"reference":"Organization/4860db12-0cde-45c6-8e62-01cbbcfd1dee"},"status":"finished","subject":{"reference":"Patient/00edcd24-2d46-464d-90c0-dffbd0c7384c"},"type":[{"coding":[{"code":"50849002","display":"Emergency Room Admission","system":"http://snomed.info/sct"}],"text":"Emergency Room Admission"}]}},{"resource":{"class":{"code":"ambulatory"},"id":"642b8775-3728-4fed-a9ea-c7157a45fbd1","meta":{"lastUpdated":"2019-04-08T14:22:50.889325+00:00","versionId":"MTU1NDczMzM3MDg4OTMyNTAwMA"},"participant":[{"individual":{"reference":"Practitioner/05cf5e00-1573-4ef6-bc06-84e74cc19fa9"}}],"period":{"end":"2016-10-28T15:37:20-04:00","start":"2016-10-28T15:22:20-04:00"},"reason":[{"coding":[{"code":"55822004","display":"Hyperlipidemia","system":"http://snomed.info/sct"}]}],"resourceType":"Encounter","serviceProvider":{"reference":"Organization/4860db12-0cde-45c6-8e62-01cbbcfd1dee"},"status":"finished","subject":{"reference":"Patient/00edcd24-2d46-464d-90c0-dffbd0c7384c"},"type":[{"coding":[{"code":"390906007","display":"Follow-up encounter","system":"http://snomed.info/sct"}],"text":"Follow-up encounter"}]}},{"resource":{"class":{"code":"outpatient"},"id":"65ff939d-ba72-4059-bacf-427d8c219de3","meta":{"lastUpdated":"2019-04-08T14:22:53.930383+00:00","versionId":"MTU1NDczMzM3MzkzMDM4MzAwMA"},"participant":[{"individual":{"reference":"Practitioner/05cf5e00-1573-4ef6-bc06-84e74cc19fa9"}}],"period":{"end":"2018-04-23T15:37:20-04:00","start":"2018-04-23T15:22:20-04:00"},"resourceType":"Encounter","serviceProvider":{"reference":"Organization/4860db12-0cde-45c6-8e62-01cbbcfd1dee"},"status":"finished","subject":{"reference":"Patient/00edcd24-2d46-464d-90c0-dffbd0c7384c"},"type":[{"coding":[{"code":"185347001","display":"Encounter for problem (procedure)","system":"http://snomed.info/sct"}],"text":"Encounter for problem (procedure)"}]}},{"resource":{"class":{"code":"ambulatory"},"id":"6900b6d2-ad48-42be-8d38-4001d6e98ddf","meta":{"lastUpdated":"2019-04-08T14:22:53.930382+00:00","versionId":"MTU1NDczMzM3MzkzMDM4MjAwMA"},"participant":[{"individual":{"reference":"Practitioner/05cf5e00-1573-4ef6-bc06-84e74cc19fa9"}}],"period":{"end":"2018-10-28T15:37:20-04:00","start":"2018-10-28T15:22:20-04:00"},"reason":[{"coding":[{"code":"55822004","display":"Hyperlipidemia","system":"http://snomed.info/sct"}]}],"resourceType":"Encounter","serviceProvider":{"reference":"Organization/4860db12-0cde-45c6-8e62-01cbbcfd1dee"},"status":"finished","subject":{"reference":"Patient/00edcd24-2d46-464d-90c0-dffbd0c7384c"},"type":[{"coding":[{"code":"390906007","display":"Follow-up encounter","system":"http://snomed.info/sct"}],"text":"Follow-up encounter"}]}},{"resource":{"class":{"code":"outpatient"},"id":"6cbd99b7-498b-4737-9aef-e2c595253f6f","meta":{"lastUpdated":"2019-04-08T14:22:48.795486+00:00","versionId":"MTU1NDczMzM2ODc5NTQ4NjAwMA"},"participant":[{"individual":{"reference":"Practitioner/05cf5e00-1573-4ef6-bc06-84e74cc19fa9"}}],"period":{"end":"2015-03-15T15:37:20-04:00","start":"2015-03-15T15:22:20-04:00"},"resourceType":"Encounter","serviceProvider":{"reference":"Organization/4860db12-0cde-45c6-8e62-01cbbcfd1dee"},"status":"finished","subject":{"reference":"Patient/00edcd24-2d46-464d-90c0-dffbd0c7384c"},"type":[{"coding":[{"code":"185347001","display":"Encounter for problem (procedure)","system":"http://snomed.info/sct"}],"text":"Encounter for problem (procedure)"}]}},{"resource":{"class":{"code":"ambulatory"},"id":"6ee866a4-f871-47d2-9c6b-631618fd7afa","meta":{"lastUpdated":"2019-04-08T14:22:34.253024+00:00","versionId":"MTU1NDczMzM1NDI1MzAyNDAwMA"},"participant":[{"individual":{"reference":"Practitioner/05cf5e00-1573-4ef6-bc06-84e74cc19fa9"}}],"period":{"end":"2000-11-01T14:37:20-05:00","start":"2000-11-01T14:22:20-05:00"},"reason":[{"coding":[{"code":"55822004","display":"Hyperlipidemia","system":"http://snomed.info/sct"}]}],"resourceType":"Encounter","serviceProvider":{"reference":"Organization/4860db12-0cde-45c6-8e62-01cbbcfd1dee"},"status":"finished","subject":{"reference":"Patient/00edcd24-2d46-464d-90c0-dffbd0c7384c"},"type":[{"coding":[{"code":"390906007","display":"Follow-up encounter","system":"http://snomed.info/sct"}],"text":"Follow-up encounter"}]}},{"resource":{"class":{"code":"outpatient"},"id":"6f087418-9d51-4c6a-a05a-6af32cb93d9e","meta":{"lastUpdated":"2019-04-08T14:22:51.900580+00:00","versionId":"MTU1NDczMzM3MTkwMDU4MDAwMA"},"participant":[{"individual":{"reference":"Practitioner/05cf5e00-1573-4ef6-bc06-84e74cc19fa9"}}],"period":{"end":"2017-02-15T14:37:20-05:00","start":"2017-02-15T14:22:20-05:00"},"resourceType":"Encounter","serviceProvider":{"reference":"Organization/4860db12-0cde-45c6-8e62-01cbbcfd1dee"},"status":"finished","subject":{"reference":"Patient/00edcd24-2d46-464d-90c0-dffbd0c7384c"},"type":[{"coding":[{"code":"185347001","display":"Encounter for problem (procedure)","system":"http://snomed.info/sct"}],"text":"Encounter for problem (procedure)"}]}}],"link":[{"url":"https://syntheticmass.mitre.org/v1/fhir/Patient/00edcd24-2d46-464d-90c0-dffbd0c7384c/$everything?_count=100&page_token=CoIBcHJvamVjdHMvc3ludGhlYS9sb2NhdGlvbnMvdXMtY2VudHJhbDEvZGF0YXNldHMvMjAxOTAyL2ZoaXJTdG9yZXMvc3ludGhldGljLW1hc3MvZmhpci9QYXRpZW50LzAwZWRjZDI0LTJkNDYtNDY0ZC05MGMwLWRmZmJkMGM3Mzg0Yw%3D%3D","relation":"previous"},{"url":"https://syntheticmass.mitre.org/v1/fhir/Patient/00edcd24-2d46-464d-90c0-dffbd0c7384c/$everything?_count=100&page_token=CoIBcHJvamVjdHMvc3ludGhlYS9sb2NhdGlvbnMvdXMtY2VudHJhbDEvZGF0YXNldHMvMjAxOTAyL2ZoaXJTdG9yZXMvc3ludGhldGljLW1hc3MvZmhpci9QYXRpZW50LzAwZWRjZDI0LTJkNDYtNDY0ZC05MGMwLWRmZmJkMGM3Mzg0YyDIAQ%3D%3D","relation":"next"}],"total":767}
