{"resourceType":"Bundle","type":"searchset","entry":[{"resource":{"code":{"coding":[{"code":"51990-0","display":"Basic Metabolic Panel","system":"http://loinc.org"}],"text":"Basic Metabolic Panel"},"context":{"reference":"Encounter/103e675f-5a88-4825-9ebf-972cc9a98f1e"},"effectiveDateTime":"2011-05-08T11:44:59-04:00","id":"6c35e13d-9967-44ed-b75a-cc3caba6604a","issued":"2011-05-08T11:44:59.853-04:00","meta":{"lastUpdated":"2019-04-09T09:57:25.720119+00:00","versionId":"MTU1NDgwMzg0NTcyMDExOTAwMA"},"resourceType":"DiagnosticReport","result":[{"display":"Glucose","reference":"Observation/0650b30d-f29b-4744-926a-eb3d5e9f6103"},{"display":"Urea Nitrogen","reference":"Observation/35b8c451-62fe-4e61-9b6d-3d32c8aa6713"},{"display":"Creatinine","reference":"Observation/c288c57c-86dd-44b0-83aa-2a33e1bd10b2"},{"display":"Calcium","reference":"Observation/63414354-8481-42cd-9648-64938471581b"},{"display":"Sodium","reference":"Observation/3f28e693-85ea-4dd5-af40-5c995a58d04f"},{"display":"Potassium","reference":"Observation/e58b0a8c-e2b2-441f-b3db-55cbf58d4b7a"},{"display":"Chloride","reference":"Observation/89579864-f5fe-40ec-8d40-982bd061ca42"},{"display":"Carbon Dioxide","reference":"Observation/c223b9f1-2081-4931-a7f2-6960f911cacd"}],"status":"final","subject":{"reference":"Patient/00c8c9ed-65fe-4f9a-8e75-7d31ac64a04b"}}},{"resource":{"code":{"coding":[{"code":"57698-3","display":"Lipid Panel","system":"http://loinc.org"}],"text":"Lipid Panel"},"context":{"reference":"Encounter/8c5992af-1204-42f7-882c-771b3fe481b8"},"effectiveDateTime":"2010-07-04T11:44:59-04:00","id":"6c3fabdb-373d-4d61-bb65-979d70fb979e","issued":"2010-07-04T11:44:59.853-04:00","meta":{"lastUpdated":"2019-04-09T09:57:19.573062+00:00","versionId":"MTU1NDgwMzgzOTU3MzA2MjAwMA"},"resourceType":"DiagnosticReport","result":[{"display":"Total Cholesterol","reference":"Observation/73c1e573-3e78-46d6-870b-f92fbdcbc873"},{"display":"Triglycerides","reference":"Observation/1041c6be-ce3d-4ae8-be5d-bcfa2dc89b7c"},{"display":"Low Density Lipoprotein Cholesterol","reference":"Observation/c2774f5a-395c-47a8-90c8-6e74065e0e20"},{"display":"High Density Lipoprotein Cholesterol","reference":"Observation/0cf7bf3b-ce17-4e0f-8fc7-fc1cf7e3e40b"}],"status":"final","subject":{"reference":"Patient/00c8c9ed-65fe-4f9a-8e75-7d31ac64a04b"}}},{"resource":{"code":{"coding":[{"code":"57698-3","display":"Lipid Panel","system":"http://loinc.org"}],"text":"Lipid Panel"},"context":{"reference":"Encounter/d4c3d8aa-689a-4a9d-870b-68040e534bc7"},"effectiveDateTime":"2017-10-29T11:44:59-04:00","id":"6dcfe1cb-7aee-49f5-be03-9497f3997507","issued":"2017-10-29T11:44:59.853-04:00","meta":{"lastUpdated":"2019-04-09T09:58:00.215618+00:00","versionId":"MTU1NDgwMzg4MDIxNTYxODAwMA"},"resourceType":"DiagnosticReport","result":[{"display":"Total Cholesterol","reference":"Observation/5135d445-50ca-46af-96bb-d1181b334f37"},{"display":"Triglycerides","reference":"Observation/3808699f-c7d9-49a6-abda-0673b1259706"},{"display":"Low Density Lipoprotein Cholesterol","reference":"Observation/49b62bdd-2dcd-463f-aacf-4de38e2496e5"},{"display":"High Density Lipoprotein Cholesterol","reference":"Observation/c94e7803-747d-47ab-9dc3-7de9b1d103b5"}],"status":"final","subject":{"reference":"Patient/00c8c9ed-65fe-4f9a-8e75-7d31ac64a04b"}}},{"resource":{"code":{"coding":[{"code":"51990-0","display":"Basic Metabolic Panel","system":"http://loinc.org"}],"text":"Basic Metabolic Panel"},"context":{"reference":"Encounter/a7e719a9-9c4d-4196-a3b7-8f7fdf6a985c"},"effectiveDateTime":"2016-01-10T10:44:59-05:00","id":"6dde3a02-0f89-4ec8-81eb-dd858f91f1dd","issued":"2016-01-10T10:44:59.853-05:00","meta":{"lastUpdated":"2019-04-09T09:57:47.744789+00:00","versionId":"MTU1NDgwMzg2Nzc0NDc4OTAwMA"},"resourceType":"DiagnosticReport","result":[{"display":"Glucose","reference":"Observation/6f2d0698-0d9e-4532-bb8b-57844a3813fa"},{"display":"Urea Nitrogen","reference":"Observation/3b260a47-cb51-43d3-a639-7171ac173295"},{"display":"Creatinine","reference":"Observation/3a46de3c-b2b9-4364-828d-ec2a558cce7d"},{"display":"Calcium","reference":"Observation/b5a021d3-773c-4392-8dd5-f384351d55fb"},{"display":"Sodium","reference":"Observation/e0251876-5109-4bc4-b4c7-89b7e8a68ffe"},{"display":"Potassium","reference":"Observation/97f72356-4c74-4747-bccf-edca3544a177"},{"display":"Chloride","reference":"Observation/680ef1e1-f775-43fd-ac70-62e2fac6e1e9"},{"display":"Carbon Dioxide","reference":"Observation/2cfe7a2d-911a-44f5-8025-a7412d51ea39"}],"status":"final","subject":{"reference":"Patient/00c8c9ed-65fe-4f9a-8e75-7d31ac64a04b"}}},{"resource":{"code":{"coding":[{"code":"51990-0","display":"Basic Metabolic Panel","system":"http://loinc.org"}],"text":"Basic Metabolic Panel"},"context":{"reference":"Encounter/8894b4b4-109b-4934-8c58-f274fa48309b"},"effectiveDateTime":"2016-08-07T11:44:59-04:00","id":"6df906aa-6eb6-4e9b-bbd3-6afcd7333e7d","issued":"2016-08-07T11:44:59.853-04:00","meta":{"lastUpdated":"2019-04-09T09:57:50.862756+00:00","versionId":"MTU1NDgwMzg3MDg2Mjc1NjAwMA"},"resourceType":"DiagnosticReport","result":[{"display":"Glucose","reference":"Observation/bfe6a0de-c7d5-4a21-b8d7-6da179352841"},{"display":"Urea Nitrogen","reference":"Observation/038db14a-94b1-422b-bb4a-54e0731e98d6"},{"display":"Creatinine","reference":"Observation/14a62182-5ec3-4cf1-838a-8a43ea2f7188"},{"display":"Calcium","reference":"Observation/ad96cff4-2ea3-40de-8cc7-7d3abca52ed2"},{"display":"Sodium","reference":"Observation/92d6cc95-addb-4eea-bca9-7b1e424e92c5"},{"display":"Potassium","reference":"Observation/7f14da03-b199-4d72-864f-2ccd43753053"},{"display":"Chloride","reference":"Observation/1619485b-fc41-4222-a162-0b566856eaf2"},{"display":"Carbon Dioxide","reference":"Observation/5fe1d881-1e81-4112-80e9-95cf6375ae53"}],"status":"final","subject":{"reference":"Patient/00c8c9ed-65fe-4f9a-8e75-7d31ac64a04b"}}},{"resource":{"code":{"coding":[{"code":"24323-8","display":"Comprehensive metabolic 2000 panel - Serum or Plasma","system":"http://loinc.org"}],"text":"Comprehensive metabolic 2000 panel - Serum or Plasma"},"context":{"reference":"Encounter/5817a889-8c69-41a0-92f5-029c469f25f3"},"effectiveDateTime":"2018-08-09T11:44:59-04:00","id":"6f50eeea-3fc8-4d1d-8c33-12200cae098f","issued":"2018-08-09T11:44:59.853-04:00","meta":{"lastUpdated":"2019-04-09T09:58:04.483082+00:00","versionId":"MTU1NDgwMzg4NDQ4MzA4MjAwMA"},"resourceType":"DiagnosticReport","result":[{"display":"Glucose","reference":"Observation/2a6773ac-2e5b-423d-91c1-9ba0be1a9e4c"},{"display":"Urea Nitrogen","reference":"Observation/92702469-be71-48e7-a71e-76e4f58a81d8"},{"display":"Creatinine","reference":"Observation/531d150b-c662-4f23-badd-b7ee2829aa41"},{"display":"Calcium","reference":"Observation/513d556c-b4af-46f3-8220-b6a937e58ce2"},{"display":"Sodium","reference":"Observation/a7545c0d-2460-42c1-aba1-89e1a6ff108d"},{"display":"Potassium","reference":"Observation/5d0b35c8-c639-46bb-bb9d-2943e204624d"},{"display":"Chloride","reference":"Observation/5ecd65a5-73d3-4526-8a9c-bb83ee66051a"},{"display":"Carbon Dioxide","reference":"Observation/bf023d92-0ee2-4a00-b807-aac3338587de"},{"display":"Glomerular filtration rate/1.73 sq M.predicted","reference":"Observation/36949bb6-23ac-48f7-9a49-4f9c8b887c2f"},{"display":"Protein [Mass/volume] in Serum or Plasma","reference":"Observation/f6f865a8-6422-4976-9dbb-e2988355ab2b"},{"display":"Albumin [Mass/volume] in Serum or Plasma","reference":"Observation/eead6589-4e71-460f-b69a-19aff006ede2"},{"display":"Globulin [Mass/volume] in Serum by calculation","reference":"Observation/f658f837-da75-439a-b16a-086388cc197b"},{"display":"Bilirubin.total [Mass/volume] in Serum or Plasma","reference":"Observation/8c26e296-43a4-4aeb-9f5d-3031220dc4f4"},{"display":"Alkaline phosphatase [Enzymatic activity/volume] in Serum or Plasma","reference":"Observation/cb9aa519-3ef8-43ff-b725-53483dc6c726"},{"display":"Alanine aminotransferase [Enzymatic activity/volume] in Serum or Plasma","reference":"Observation/3de7e423-1b82-4bca-9095-7ae75dd84777"},{"display":"Aspartate aminotransferase [Enzymatic activity/volume] in Serum or Plasma","reference":"Observation/53355aa7-c151-4610-9333-7dc654e9261e"}],"status":"final","subject":{"reference":"Patient/00c8c9ed-65fe-4f9a-8e75-7d31ac64a04b"}}},{"resource":{"code":{"coding":[{"code":"51990-0","display":"Basic Metabolic Panel","system":"http://loinc.org"}],"text":"Basic Metabolic Panel"},"context":{"reference":"Encounter/89b94a1e-59f4-43d1-9ee4-b81fd4fc4706"},"effectiveDateTime":"2015-11-08T10:44:59-05:00","id":"6ff3a5ff-1a83-49e0-bf61-20dfe8e73c45","issued":"2015-11-08T10:44:59.853-05:00","meta":{"lastUpdated":"2019-04-09T09:57:47.725657+00:00","versionId":"MTU1NDgwMzg2NzcyNTY1NzAwMA"},"resourceType":"DiagnosticReport","result":[{"display":"Glucose","reference":"Observation/22df982b-6ad1-48e1-859d-0faff6e814d2"},{"display":"Urea Nitrogen","reference":"Observation/630041c0-8672-4a59-9897-ee6ac056b427"},{"display":"Creatinine","reference":"Observation/51570f8a-8e65-4e6d-af46-1e5ad448f0fa"},{"display":"Calcium","reference":"Observation/6357e0c1-ffc1-415a-b43b-ef0825ebdb24"},{"display":"Sodium","reference":"Observation/02204dc7-4b09-4292-9a1f-929a001eb870"},{"display":"Potassium","reference":"Observation/10dd9eb8-0b71-4396-a3fc-45b3e40a8f54"},{"display":"Chloride","reference":"Observation/6e853ab8-063f-4a30-b39b-85c3bf0fe8f4"},{"display":"Carbon Dioxide","reference":"Observation/6f08a60f-23ab-4314-aa4c-afee4bb0a423"}],"status":"final","subject":{"reference":"Patient/00c8c9ed-65fe-4f9a-8e75-7d31ac64a04b"}}},{"resource":{"code":{"coding":[{"code":"51990-0","display":"Basic Metabolic Panel","system":"http://loinc.org"}],"text":"Basic Metabolic Panel"},"context":{"reference":"Encounter/b0ab14f8-36e6-431f-b7c9-d320e2945371"},"effectiveDateTime":"2010-06-06T11:44:59-04:00","id":"720cbff2-06fc-465c-b586-efe8bca01cc7","issued":"2010-06-06T11:44:59.853-04:00","meta":{"lastUpdated":"2019-04-09T09:57:19.568958+00:00","versionId":"MTU1NDgwMzgzOTU2ODk1ODAwMA"},"resourceType":"DiagnosticReport","result":[{"display":"Glucose","reference":"Observation/64d4e243-1da7-41b0-b089-3a7531101b5a"},{"display":"Urea Nitrogen","reference":"Observation/ae301058-8a49-4b00-80c3-370595cc96c0"},{"display":"Creatinine","reference":"Observation/e3d6b51c-ee87-4572-a297-016e895a04af"},{"display":"Calcium","reference":"Observation/44968a6a-58cf-421e-ae1d-af49b0b00cab"},{"display":"Sodium","reference":"Observation/6140e4a8-d91c-46f0-b9df-aa4f75f46b5a"},{"display":"Potassium","reference":"Observation/1b7a07e7-a51a-4686-8696-6e5b7c6e22e7"},{"display":"Chloride","reference":"Observation/32ce8c69-2130-4d9e-94bc-e7eaf7a41fad"},{"display":"Carbon Dioxide","reference":"Observation/5036edb4-1315-4f4c-8f66-d1cb7b89fa0f"}],"status":"final","subject":{"reference":"Patient/00c8c9ed-65fe-4f9a-8e75-7d31ac64a04b"}}},{"resource":{"code":{"coding":[{"code":"24323-8","display":"Comprehensive metabolic 2000 panel - Serum or Plasma","system":"http://loinc.org"}],"text":"Comprehensive metabolic 2000 panel - Serum or Plasma"},"context":{"reference":"Encounter/cd3cba46-f486-4d32-9b45-317eb44b927f"},"effectiveDateTime":"2013-08-10T11:44:59-04:00","id":"72695a6f-c64b-4730-9281-9db128743639","issued":"2013-08-10T11:44:59.853-04:00","meta":{"lastUpdated":"2019-04-09T09:57:33.925644+00:00","versionId":"MTU1NDgwMzg1MzkyNTY0NDAwMA"},"resourceType":"DiagnosticReport","result":[{"display":"Glucose","reference":"Observation/9b68c83a-78d4-4ccc-9b13-ce5c4b5d8fdf"},{"display":"Urea Nitrogen","reference":"Observation/ff8fa3df-cc7e-40cd-8603-6e6d7f8e181b"},{"display":"Creatinine","reference":"Observation/5e9f9a45-f134-4e5a-83f4-02dc1e9bae45"},{"display":"Calcium","reference":"Observation/e44a13e1-f316-49a7-9ac9-b2fc58cb5844"},{"display":"Sodium","reference":"Observation/873c41ab-db6d-43f1-9a0a-2aba403dab60"},{"display":"Potassium","reference":"Observation/6c94cf83-2923-421b-ad58-a2c9c65b452e"},{"display":"Chloride","reference":"Observation/9088bd2d-ca40-4c7a-8553-279ad4d915d0"},{"display":"Carbon Dioxide","reference":"Observation/2aaaa7b4-0ce7-409d-9ec7-ced499e8276b"},{"display":"Glomerular filtration rate/1.73 sq M.predicted","reference":"Observation/258d24f8-2a3f-4f23-bd21-a511b15cfe65"},{"display":"Protein [Mass/volume] in Serum or Plasma","reference":"Observation/7f791ba4-bb58-45ec-9488-aca89a15d5e6"},{"display":"Albumin [Mass/volume] in Serum or Plasma","reference":"Observation/7aa1641b-c066-4c68-98b6-b22583f2959a"},{"display":"Globulin [Mass/volume] in Serum by calculation","reference":"Observation/09abc61d-1ce1-47e1-b9f4-749d1dd6f425"},{"display":"Bilirubin.total [Mass/volume] in Serum or Plasma","reference":"Observation/2a18bf95-3662-4d74-9032-dcc5ee5a49f4"},{"display":"Alkaline phosphatase [Enzymatic activity/volume] in Serum or Plasma","reference":"Observation/d237c2e4-c70c-44ab-94e8-3eb9ac1e212b"},{"display":"Alanine aminotransferase [Enzymatic activity/volume] in Serum or Plasma","reference":"Observation/730f3c95-a578-4c4b-be18-428c2349676d"},{"display":"Aspartate aminotransferase [Enzymatic activity/volume] in Serum or Plasma","reference":"Observation/b717acc8-ee1c-4df3-bf33-deced82ca954"}],"status":"final","subject":{"reference":"Patient/00c8c9ed-65fe-4f9a-8e75-7d31ac64a04b"}}},{"resource":{"code":{"coding":[{"code":"51990-0","display":"Basic Metabolic Panel","system":"http://loinc.org"}],"text":"Basic Metabolic Panel"},"context":{"reference":"Encounter/540deed0-bf02-43bb-a9be-28f05d27fb28"},"effectiveDateTime":"2010-03-07T10:44:59-05:00","id":"72dd9a39-5b7d-4780-be8b-50e9e2421432","issued":"2010-03-07T10:44:59.853-05:00","meta":{"lastUpdated":"2019-04-09T09:57:18.547679+00:00","versionId":"MTU1NDgwMzgzODU0NzY3OTAwMA"},"resourceType":"DiagnosticReport","result":[{"display":"Glucose","reference":"Observation/0041af44-6d86-4909-ba63-5c84dde6026c"},{"display":"Urea Nitrogen","reference":"Observation/cd58bf49-945b-4c04-b3eb-d3d65df2c401"},{"display":"Creatinine","reference":"Observation/8ec4e9ac-06a6-4580-89d1-64c969ce1367"},{"display":"Calcium","reference":"Observation/3dde65d9-6f2a-4809-a870-3ba18fd65d83"},{"display":"Sodium","reference":"Observation/5ca8dd1e-e06f-4f76-85ed-b056d3f2b4f2"},{"display":"Potassium","reference":"Observation/4702c782-2d2d-472d-bbf3-75c2c3e2af11"},{"display":"Chloride","reference":"Observation/923565d9-de5d-430a-b471-56fc17ffde41"},{"display":"Carbon Dioxide","reference":"Observation/69d2594f-e16e-4a39-a136-04b71e712e23"}],"status":"final","subject":{"reference":"Patient/00c8c9ed-65fe-4f9a-8e75-7d31ac64a04b"}}},{"resource":{"code":{"coding":[{"code":"24323-8","display":"Comprehensive metabolic 2000 panel - Serum or Plasma","system":"http://loinc.org"}],"text":"Comprehensive metabolic 2000 panel - Serum or Plasma"},"context":{"reference":"Encounter/55ca6f5e-964a-4679-9467-89eb5a7bb003"},"effectiveDateTime":"2009-08-11T11:44:59-04:00","id":"73b385ed-87da-4110-a342-26541aa967ac","issued":"2009-08-11T11:44:59.853-04:00","meta":{"lastUpdated":"2019-04-09T09:57:15.473595+00:00","versionId":"MTU1NDgwMzgzNTQ3MzU5NTAwMA"},"resourceType":"DiagnosticReport","result":[{"display":"Glucose","reference":"Observation/173d5db3-fa8b-4e95-95b5-8bacf129eedd"},{"display":"Urea Nitrogen","reference":"Observation/14333545-5db1-484d-96af-5f1e7cadc828"},{"display":"Creatinine","reference":"Observation/51bc1efc-13c7-4fd8-8408-d43dca7147d6"},{"display":"Calcium","reference":"Observation/eb5a68cc-e095-4c3f-b65c-0b976e0ee09a"},{"display":"Sodium","reference":"Observation/1aff97ce-8d3a-4304-88cf-70d20b786bcd"},{"display":"Potassium","reference":"Observation/0699a853-2c86-4b90-a8d7-0f260dcc119a"},{"display":"Chloride","reference":"Observation/508bf973-88fa-4a38-8f01-4de35a4df00b"},{"display":"Carbon Dioxide","reference":"Observation/65af9655-6b88-4b27-9a4f-96f7e6cbbd0b"},{"display":"Glomerular filtration rate/1.73 sq M.predicted","reference":"Observation/5745a874-6f15-4a6b-a5e7-fc87f43f90c7"},{"display":"Protein [Mass/volume] in Serum or Plasma","reference":"Observation/2071e9fe-2499-4cbd-bc5c-aecdd03f3b20"},{"display":"Albumin [Mass/volume] in Serum or Plasma","reference":"Observation/d29f4856-8ff4-40df-85c2-cb551ce0869a"},{"display":"Globulin [Mass/volume] in Serum by calculation","reference":"Observation/3572f419-8c40-48a5-a209-b40cc8c2b1ed"},{"display":"Bilirubin.total [Mass/volume] in Serum or Plasma","reference":"Observation/d2d32eb9-14f3-4a49-b5b6-1f1a43569b68"},{"display":"Alkaline phosphatase [Enzymatic activity/volume] in Serum or Plasma","reference":"Observation/cb9e381b-05a0-45ba-b1d8-e8350829c9c7"},{"display":"Alanine aminotransferase [Enzymatic activity/volume] in Serum or Plasma","reference":"Observation/98149a88-7bf1-4a16-b7b4-37201430f5f9"},{"display":"Aspartate aminotransferase [Enzymatic activity/volume] in Serum or Plasma","reference":"Observation/79c4311b-573a-4a30-99e7-b2c7dd5d7b9c"}],"status":"final","subject":{"reference":"Patient/00c8c9ed-65fe-4f9a-8e75-7d31ac64a04b"}}},{"resource":{"code":{"coding":[{"code":"51990-0","display":"Basic Metabolic Panel","system":"http://loinc.org"}],"text":"Basic Metabolic Panel"},"context":{"reference":"Encounter/470d8359-367d-4286-a62a-0258ec500221"},"effectiveDateTime":"2013-06-16T11:44:59-04:00","id":"7528d0e3-3d48-4cef-a02b-606ba981f5aa","issued":"2013-06-16T11:44:59.853-04:00","meta":{"lastUpdated":"2019-04-09T09:57:32.903231+00:00","versionId":"MTU1NDgwMzg1MjkwMzIzMTAwMA"},"resourceType":"DiagnosticReport","result":[{"display":"Glucose","reference":"Observation/9933ad48-565f-4898-9bef-b1292afb5c79"},{"display":"Urea Nitrogen","reference":"Observation/b0556439-c286-40a1-9d4b-23383ecd489e"},{"display":"Creatinine","reference":"Observation/f5d37124-03fb-47d5-b8c3-e6726e52496f"},{"display":"Calcium","reference":"Observation/9720fe8c-5e57-4a31-8066-e0b42eb62e1e"},{"display":"Sodium","reference":"Observation/87ef45dc-5d1a-47dc-b1d3-6cd3d7bde379"},{"display":"Potassium","reference":"Observation/3d76612c-db11-4a16-b638-82e8321f3b31"},{"display":"Chloride","reference":"Observation/5585a73b-29ed-4bd9-a44d-32b221a4e395"},{"display":"Carbon Dioxide","reference":"Observation/69508676-1bda-42b5-9ec5-4b33a2157c42"}],"status":"final","subject":{"reference":"Patient/00c8c9ed-65fe-4f9a-8e75-7d31ac64a04b"}}},{"resource":{"code":{"coding":[{"code":"51990-0","display":"Basic Metabolic Panel","system":"http://loinc.org"}],"text":"Basic Metabolic Panel"},"context":{"reference":"Encounter/4da3a1c5-dd75-4bbe-a735-e5a3cefe96f4"},"effectiveDateTime":"2017-07-09T11:44:59-04:00","id":"7581102e-7c2a-40d3-be9c-e17fa3fca045","issued":"2017-07-09T11:44:59.853-04:00","meta":{"lastUpdated":"2019-04-09T09:57:58.155267+00:00","versionId":"MTU1NDgwMzg3ODE1NTI2NzAwMA"},"resourceType":"DiagnosticReport","result":[{"display":"Glucose","reference":"Observation/39880be3-2ea4-4460-92cc-6601f6f5eb30"},{"display":"Urea Nitrogen","reference":"Observation/a4d88d8d-9900-4f63-9ff8-ae772e1c8132"},{"display":"Creatinine","reference":"Observation/d03c0171-dff1-4197-aa4e-56dfdb03a90c"},{"display":"Calcium","reference":"Observation/f58099a1-b992-45a9-af49-d5f988acc302"},{"display":"Sodium","reference":"Observation/9ecaaf8d-e5e9-4cb4-aebc-be0bc71763fb"},{"display":"Potassium","reference":"Observation/351b78cf-d90d-4a28-a38a-ea3337731c32"},{"display":"Chloride","reference":"Observation/4ba2378c-e609-49ef-952d-e21bbcefc8fd"},{"display":"Carbon Dioxide","reference":"Observation/761bd7bd-2916-4328-be31-f867f960558e"}],"status":"final","subject":{"reference":"Patient/00c8c9ed-65fe-4f9a-8e75-7d31ac64a04b"}}},{"resource":{"code":{"coding":[{"code":"51990-0","display":"Basic Metabolic Panel","system":"http://loinc.org"}],"text":"Basic Metabolic Panel"},"context":{"reference":"Encounter/5dc6abb5-4fe0-4842-a172-71f4d6b6088d"},"effectiveDateTime":"2013-08-18T11:44:59-04:00","id":"766eb1e5-8517-45dd-9d43-d56632d3913f","issued":"2013-08-18T11:44:59.853-04:00","meta":{"lastUpdated":"2019-04-09T09:57:33.922622+00:00","versionId":"MTU1NDgwMzg1MzkyMjYyMjAwMA"},"resourceType":"DiagnosticReport","result":[{"display":"Glucose","reference":"Observation/5f239bf0-6e36-453c-878e-eca80cbfd334"},{"display":"Urea Nitrogen","reference":"Observation/ae69b629-35a9-4ed7-8188-27ab812a608e"},{"display":"Creatinine","reference":"Observation/a662836b-8d9a-499f-b569-907967d192c9"},{"display":"Calcium","reference":"Observation/2af4f7df-7537-4095-97f3-63b7cc71a869"},{"display":"Sodium","reference":"Observation/992d4f0f-ce20-45bd-bac9-4324a510a335"},{"display":"Potassium","reference":"Observation/7f1ddcee-4e6c-4cd9-99f3-7d87c015c868"},{"display":"Chloride","reference":"Observation/12c21b11-d394-4392-8217-a26bb8a945d1"},{"display":"Carbon Dioxide","reference":"Observation/691d3dcc-5546-4e23-b8f9-2a64f00ea11a"}],"status":"final","subject":{"reference":"Patient/00c8c9ed-65fe-4f9a-8e75-7d31ac64a04b"}}},{"resource":{"code":{"coding":[{"code":"51990-0","display":"Basic Metabolic Panel","system":"http://loinc.org"}],"text":"Basic Metabolic Panel"},"context":{"reference":"Encounter/ca7bb630-f344-46a9-8329-906a8d708a97"},"effectiveDateTime":"2013-01-06T10:44:59-05:00","id":"79aa21ff-f1c7-405d-a0ad-47364566d276","issued":"2013-01-06T10:44:59.853-05:00","meta":{"lastUpdated":"2019-04-09T09:57:30.804683+00:00","versionId":"MTU1NDgwMzg1MDgwNDY4MzAwMA"},"resourceType":"DiagnosticReport","result":[{"display":"Glucose","reference":"Observation/995abea7-2eb7-452a-a4ba-4e9ab0cf53e8"},{"display":"Urea Nitrogen","reference":"Observation/bf522777-38d6-4e91-828d-ba43fae957b7"},{"display":"Creatinine","reference":"Observation/e5ad9743-7f7b-4a89-bd04-efe5725e2f3f"},{"display":"Calcium","reference":"Observation/31f3f90f-9170-4546-824b-12f035d0b4b0"},{"display":"Sodium","reference":"Observation/4764b4a7-8c14-42fb-9a2a-f7df58a37d33"},{"display":"Potassium","reference":"Observation/5b94f310-93c6-460d-b04c-3dd97349fc52"},{"display":"Chloride","reference":"Observation/1b9915c8-68c9-473f-a4ef-fa0652d2bef9"},{"display":"Carbon Dioxide","reference":"Observation/ecd70c28-84a7-4d0a-a234-b26294c7955d"}],"status":"final","subject":{"reference":"Patient/00c8c9ed-65fe-4f9a-8e75-7d31ac64a04b"}}},{"resource":{"code":{"coding":[{"code":"57698-3","display":"Lipid Panel","system":"http://loinc.org"}],"text":"Lipid Panel"},"context":{"reference":"Encounter/09593a2a-c114-4dc1-bb4a-25fe216d196b"},"effectiveDateTime":"2011-02-06T10:44:59-05:00","id":"79f48a5c-adc5-41d0-b094-ff67b43503b0","issued":"2011-02-06T10:44:59.853-05:00","meta":{"lastUpdated":"2019-04-09T09:57:23.674791+00:00","versionId":"MTU1NDgwMzg0MzY3NDc5MTAwMA"},"resourceType":"DiagnosticReport","result":[{"display":"Total Cholesterol","reference":"Observation/6aed4297-10ae-4495-a89f-d3fa18e1d17d"},{"display":"Triglycerides","reference":"Observation/348036b1-551c-4a70-b87d-3f95fbfa1ea8"},{"display":"Low Density Lipoprotein Cholesterol","reference":"Observation/ddd8d13f-4fc4-4110-ab90-3a78b9994607"},{"display":"High Density Lipoprotein Cholesterol","reference":"Observation/a3695cfb-1fda-49d0-805c-bb0582d4bd21"}],"status":"final","subject":{"reference":"Patient/00c8c9ed-65fe-4f9a-8e75-7d31ac64a04b"}}},{"resource":{"code":{"coding":[{"code":"57698-3","display":"Lipid Panel","system":"http://loinc.org"}],"text":"Lipid Panel"},"context":{"reference":"Encounter/fcd5a4c8-3af7-4f92-9cb7-cf626279725c"},"effectiveDateTime":"2013-12-15T10:44:59-05:00","id":"7a16675c-6153-429b-a7f9-fa3ac616096a","issued":"2013-12-15T10:44:59.853-05:00","meta":{"lastUpdated":"2019-04-09T09:57:35.996553+00:00","versionId":"MTU1NDgwMzg1NTk5NjU1MzAwMA"},"resourceType":"DiagnosticReport","result":[{"display":"Total Cholesterol","reference":"Observation/92ce62bd-0c15-45ab-a02e-b45a1065778a"},{"display":"Triglycerides","reference":"Observation/29657783-ee0e-4935-b2da-81f41e1fe594"},{"display":"Low Density Lipoprotein Cholesterol","reference":"Observation/02bb9716-eba7-4dcb-bc0c-4a35f750ae01"},{"display":"High Density Lipoprotein Cholesterol","reference":"Observation/e3a145c7-193a-4c5f-9651-60676ecf8207"}],"status":"final","subject":{"reference":"Patient/00c8c9ed-65fe-4f9a-8e75-7d31ac64a04b"}}},{"resource":{"code":{"coding":[{"code":"51990-0","display":"Basic Metabolic Panel","system":"http://loinc.org"}],"text":"Basic Metabolic Panel"},"context":{"reference":"Encounter/057a6ba9-37b4-4eee-819a-2b8e8a7f05e1"},"effectiveDateTime":"2017-04-02T11:44:59-04:00","id":"7cbd1e26-3647-4e74-b1ab-2fae265b8e3c","issued":"2017-04-02T11:44:59.853-04:00","meta":{"lastUpdated":"2019-04-09T09:57:56.081867+00:00","versionId":"MTU1NDgwMzg3NjA4MTg2NzAwMA"},"resourceType":"DiagnosticReport","result":[{"display":"Glucose","reference":"Observation/ffeeef26-341f-43b1-a249-21fb373f643c"},{"display":"Urea Nitrogen","reference":"Observation/615f5839-e9c5-407f-be31-a5ab724f2e4f"},{"display":"Creatinine","reference":"Observation/8f230304-cf94-44d1-bd7d-208fea320347"},{"display":"Calcium","reference":"Observation/a4bb812b-4316-4c8d-8bc0-023d8ea06175"},{"display":"Sodium","reference":"Observation/7021ce66-5497-4f50-aba6-150b1db57e86"},{"display":"Potassium","reference":"Observation/aef69137-6982-419b-bdd9-9b79e751ef05"},{"display":"Chloride","reference":"Observation/72b557bf-e774-4cf1-8ed3-1a3343b65ee8"},{"display":"Carbon Dioxide","reference":"Observation/3e73ea54-757b-4849-a7dd-35c643a14e31"}],"status":"final","subject":{"reference":"Patient/00c8c9ed-65fe-4f9a-8e75-7d31ac64a04b"}}},{"resource":{"code":{"coding":[{"code":"57698-3","display":"Lipid Panel","system":"http://loinc.org"}],"text":"Lipid Panel"},"context":{"reference":"Encounter/0d9c9cd4-c437-486b-8074-9206f6b15da0"},"effectiveDateTime":"2013-05-19T11:44:59-04:00","id":"7cff3d47-b5b4-4ba4-ad94-332efaee6a65","issued":"2013-05-19T11:44:59.853-04:00","meta":{"lastUpdated":"2019-04-09T09:57:31.843618+00:00","versionId":"MTU1NDgwMzg1MTg0MzYxODAwMA"},"resourceType":"DiagnosticReport","result":[{"display":"Total Cholesterol","reference":"Observation/31b3ce7c-6a74-4533-891d-5ba36e2a6f12"},{"display":"Triglycerides","reference":"Observation/3d87e830-49df-4599-8066-182d221b3016"},{"display":"Low Density Lipoprotein Cholesterol","reference":"Observation/bfab6556-064c-4dc8-b240-d8830048fbce"},{"display":"High Density Lipoprotein Cholesterol","reference":"Observation/62444f93-a16d-4dcf-b2fa-fb40ea579981"}],"status":"final","subject":{"reference":"Patient/00c8c9ed-65fe-4f9a-8e75-7d31ac64a04b"}}},{"resource":{"code":{"coding":[{"code":"51990-0","display":"Basic Metabolic Panel","system":"http://loinc.org"}],"text":"Basic Metabolic Panel"},"context":{"reference":"Encounter/ec8f4011-99cc-4bb7-a419-eda9b495b179"},"effectiveDateTime":"2011-01-02T10:44:59-05:00","id":"7da3f3be-4479-480f-a371-8d16ec243290","issued":"2011-01-02T10:44:59.853-05:00","meta":{"lastUpdated":"2019-04-09T09:57:23.674790+00:00","versionId":"MTU1NDgwMzg0MzY3NDc5MDAwMA"},"resourceType":"DiagnosticReport","result":[{"display":"Glucose","reference":"Observation/131ce545-6152-417e-800d-bbd831825077"},{"display":"Urea Nitrogen","reference":"Observation/730c2c3e-eed6-4141-9b49-480b75fd0d88"},{"display":"Creatinine","reference":"Observation/39027cf6-45ea-4b6c-9c76-1347a849c9e5"},{"display":"Calcium","reference":"Observation/243a17b2-af0a-4abe-9415-bc700160f337"},{"display":"Sodium","reference":"Observation/b16ef1f8-8590-4614-9ad9-38ac09aaec99"},{"display":"Potassium","reference":"Observation/84d9c4dd-00a3-45fb-b20f-c44d9b78fed4"},{"display":"Chloride","reference":"Observation/6d942c76-ae9b-42d8-8d64-0c435a9b08ee"},{"display":"Carbon Dioxide","reference":"Observation/7e35394c-241d-4128-9199-f887200b80c3"}],"status":"final","subject":{"reference":"Patient/00c8c9ed-65fe-4f9a-8e75-7d31ac64a04b"}}},{"resource":{"code":{"coding":[{"code":"57698-3","display":"Lipid Panel","system":"http://loinc.org"}],"text":"Lipid Panel"},"context":{"reference":"Encounter/8cc73931-086c-47a6-bb8f-5d9429f5bd5a"},"effectiveDateTime":"2013-04-28T11:44:59-04:00","id":"7fb730e4-b745-4fbf-b617-f7b07dee62fa","issued":"2013-04-28T11:44:59.853-04:00","meta":{"lastUpdated":"2019-04-09T09:57:31.830573+00:00","versionId":"MTU1NDgwMzg1MTgzMDU3MzAwMA"},"resourceType":"DiagnosticReport","result":[{"display":"Total Cholesterol","reference":"Observation/de8764b3-f8c6-40e5-8897-577a08b2a385"},{"display":"Triglycerides","reference":"Observation/c6caae64-5fc6-42e3-b353-2624a983ab46"},{"display":"Low Density Lipoprotein Cholesterol","reference":"Observation/e1d2a1be-5a6f-449e-a2b6-e1e99e4a004a"},{"display":"High Density Lipoprotein Cholesterol","reference":"Observation/86bcc99e-f426-490d-9791-78d7715141ad"}],"status":"final","subject":{"reference":"Patient/00c8c9ed-65fe-4f9a-8e75-7d31ac64a04b"}}},{"resource":{"code":{"coding":[{"code":"57698-3","display":"Lipid Panel","system":"http://loinc.org"}],"text":"Lipid Panel"},"context":{"reference":"Encounter/7d38efe6-5c5e-4c41-8dd2-b20a03849a61"},"effectiveDateTime":"2010-10-03T11:44:59-04:00","id":"807c9826-f0f0-457d-a1a0-476b84c52b41","issued":"2010-10-03T11:44:59.853-04:00","meta":{"lastUpdated":"2019-04-09T09:57:22.664990+00:00","versionId":"MTU1NDgwMzg0MjY2NDk5MDAwMA"},"resourceType":"DiagnosticReport","result":[{"display":"Total Cholesterol","reference":"Observation/93b1d3d8-efa2-4bd0-aa7b-679cbf844d6c"},{"display":"Triglycerides","reference":"Observation/dfb06cfa-a129-4053-a8a2-38002205d3b2"},{"display":"Low Density Lipoprotein Cholesterol","reference":"Observation/dc7e0613-375c-4247-a85a-9ae554320044"},{"display":"High Density Lipoprotein Cholesterol","reference":"Observation/5529c83a-cdfc-4cf8-87c1-e40803346e24"}],"status":"final","subject":{"reference":"Patient/00c8c9ed-65fe-4f9a-8e75-7d31ac64a04b"}}},{"resource":{"code":{"coding":[{"code":"57698-3","display":"Lipid Panel","system":"http://loinc.org"}],"text":"Lipid Panel"},"context":{"reference":"Encounter/8db5f699-97d5-4d73-8577-28abe283fa02"},"effectiveDateTime":"2015-06-14T11:44:59-04:00","id":"82266d5d-1d4d-439b-b0d0-21d6b418e8d2","issued":"2015-06-14T11:44:59.853-04:00","meta":{"lastUpdated":"2019-04-09T09:57:43.402352+00:00","versionId":"MTU1NDgwMzg2MzQwMjM1MjAwMA"},"resourceType":"DiagnosticReport","result":[{"display":"Total Cholesterol","reference":"Observation/bb4494f9-0357-4843-930c-098ca44d6493"},{"display":"Triglycerides","reference":"Observation/5d1c7ebf-9cbf-493b-8c65-d5864dbe4184"},{"display":"Low Density Lipoprotein Cholesterol","reference":"Observation/1d56a7f8-a0d1-4f0a-a89e-a1a3be916d73"},{"display":"High Density Lipoprotein Cholesterol","reference":"Observation/114d27aa-c774-4420-9f59-c37c80795744"}],"status":"final","subject":{"reference":"Patient/00c8c9ed-65fe-4f9a-8e75-7d31ac64a04b"}}},{"resource":{"code":{"coding":[{"code":"57698-3","display":"Lipid Panel","system":"http://loinc.org"}],"text":"Lipid Panel"},"context":{"reference":"Encounter/caa990ac-6063-45f3-9e13-13cc9cfb0484"},"effectiveDateTime":"2009-09-06T11:44:59-04:00","id":"8273e32e-559e-4e1e-97b1-dd181a305bd4","issued":"2009-09-06T11:44:59.853-04:00","meta":{"lastUpdated":"2019-04-09T09:57:15.472991+00:00","versionId":"MTU1NDgwMzgzNTQ3Mjk5MTAwMA"},"resourceType":"DiagnosticReport","result":[{"display":"Total Cholesterol","reference":"Observation/f02794b8-ad2d-4b5a-adfd-9b09ae46d4ab"},{"display":"Triglycerides","reference":"Observation/1926cf5d-dce1-4463-a432-d4c77cc98f38"},{"display":"Low Density Lipoprotein Cholesterol","reference":"Observation/39185882-6afc-4474-af51-96863fc62288"},{"display":"High Density Lipoprotein Cholesterol","reference":"Observation/dc6118c9-d317-4fdc-aa0b-0e6d108b9480"}],"status":"final","subject":{"reference":"Patient/00c8c9ed-65fe-4f9a-8e75-7d31ac64a04b"}}},{"resource":{"code":{"coding":[{"code":"51990-0","display":"Basic Metabolic Panel","system":"http://loinc.org"}],"text":"Basic Metabolic Panel"},"context":{"reference":"Encounter/10e23bf3-ce79-4b1c-8e3f-f2da7502a882"},"effectiveDateTime":"2015-08-09T11:44:59-04:00","id":"827a24dc-e5bb-4809-a92f-2700724d2cc7","issued":"2015-08-09T11:44:59.853-04:00","meta":{"lastUpdated":"2019-04-09T09:57:44.511371+00:00","versionId":"MTU1NDgwMzg2NDUxMTM3MTAwMA"},"resourceType":"DiagnosticReport","result":[{"display":"Glucose","reference":"Observation/06947b67-6e93-48b4-b3e0-86d55822247e"},{"display":"Urea Nitrogen","reference":"Observation/9f859a8a-5f2c-4976-910b-7f88bdcce73d"},{"display":"Creatinine","reference":"Observation/147856a8-2c09-43f6-8590-531e6a82c7d4"},{"display":"Calcium","reference":"Observation/e6b0fec2-029c-4edc-ab46-671a69277b02"},{"display":"Sodium","reference":"Observation/c33e3476-6087-4720-b31c-f0f1d322bd5e"},{"display":"Potassium","reference":"Observation/63645954-1038-4be0-a732-9a4c150563e1"},{"display":"Chloride","reference":"Observation/2f20efe5-a9d4-4ce0-973f-dc879ef7b156"},{"display":"Carbon Dioxide","reference":"Observation/60ee79d2-df47-4bf0-8b07-06553085aabf"}],"status":"final","subject":{"reference":"Patient/00c8c9ed-65fe-4f9a-8e75-7d31ac64a04b"}}},{"resource":{"code":{"coding":[{"code":"51990-0","display":"Basic Metabolic Panel","system":"http://loinc.org"}],"text":"Basic Metabolic Panel"},"context":{"reference":"Encounter/8d4c3421-a78f-4fce-a0be-85e6719d39b7"},"effectiveDateTime":"2015-10-11T11:44:59-04:00","id":"84a1e65a-e071-4431-ab4d-1bdceee5f4d0","issued":"2015-10-11T11:44:59.853-04:00","meta":{"lastUpdated":"2019-04-09T09:57:46.559336+00:00","versionId":"MTU1NDgwMzg2NjU1OTMzNjAwMA"},"resourceType":"DiagnosticReport","result":[{"display":"Glucose","reference":"Observation/0bf6546a-a7d7-411a-a1c7-b284e62c8dbd"},{"display":"Urea Nitrogen","reference":"Observation/9bc2c9e7-2fd7-47d6-b434-d6c3fb9d5edc"},{"display":"Creatinine","reference":"Observation/e6f4bbcd-a53a-437e-bf1a-17e68121d6d0"},{"display":"Calcium","reference":"Observation/21dd66e2-7639-4388-8eaa-a9741a9603ce"},{"display":"Sodium","reference":"Observation/444f5ee6-89f8-4f81-b350-590d6cf553fb"},{"display":"Potassium","reference":"Observation/b9cf4a89-b7df-454d-a705-10a599a63f81"},{"display":"Chloride","reference":"Observation/1e301b0e-227c-47bc-91b6-c31825414b07"},{"display":"Carbon Dioxide","reference":"Observation/4340f170-f0f0-4a80-aa39-2bfb81a19433"}],"status":"final","subject":{"reference":"Patient/00c8c9ed-65fe-4f9a-8e75-7d31ac64a04b"}}},{"resource":{"code":{"coding":[{"code":"24323-8","display":"Comprehensive metabolic 2000 panel - Serum or Plasma","system":"http://loinc.org"}],"text":"Comprehensive metabolic 2000 panel - Serum or Plasma"},"context":{"reference":"Encounter/3d376cce-be65-4046-b460-c5509fbf9c70"},"effectiveDateTime":"2017-08-09T11:44:59-04:00","id":"851e1263-a1fa-46cb-abbb-267f4d88142b","issued":"2017-08-09T11:44:59.853-04:00","meta":{"lastUpdated":"2019-04-09T09:57:59.199384+00:00","versionId":"MTU1NDgwMzg3OTE5OTM4NDAwMA"},"resourceType":"DiagnosticReport","result":[{"display":"Glucose","reference":"Observation/30a180a4-1cf9-42ad-bab2-89b6b46bb3ae"},{"display":"Urea Nitrogen","reference":"Observation/2c70e620-aaa7-4856-b6a0-ee01b2bb10c7"},{"display":"Creatinine","reference":"Observation/a42e108b-495b-4bdc-9539-7d3475e4fbfb"},{"display":"Calcium","reference":"Observation/0e74eb45-c67e-4486-86da-38b54976a3d7"},{"display":"Sodium","reference":"Observation/f735684a-6659-44b0-9c51-229965e049e3"},{"display":"Potassium","reference":"Observation/bec5347c-c949-4320-8dc3-3e429b9f9bbb"},{"display":"Chloride","reference":"Observation/25daa510-4671-49da-9f01-3685540a1d10"},{"display":"Carbon Dioxide","reference":"Observation/507a0660-dcfe-4a4c-a556-b248bdd08fb3"},{"display":"Glomerular filtration rate/1.73 sq M.predicted","reference":"Observation/f2b3a7f0-138b-4c3b-a25f-06e03b6394cf"},{"display":"Protein [Mass/volume] in Serum or Plasma","reference":"Observation/acd5f9f3-3ad0-44b3-8c90-eb230fb8a2e7"},{"display":"Albumin [Mass/volume] in Serum or Plasma","reference":"Observation/ecec05c3-2be1-4ad5-8e62-8262c47545dd"},{"display":"Globulin [Mass/volume] in Serum by calculation","reference":"Observation/db42ee20-3999-49a1-926e-5728e2e28681"},{"display":"Bilirubin.total [Mass/volume] in Serum or Plasma","reference":"Observation/9ce39983-79e9-4e4d-afb5-734235fcefeb"},{"display":"Alkaline phosphatase [Enzymatic activity/volume] in Serum or Plasma","reference":"Observation/f9bce1e1-d669-4f6c-9a85-7c71d7437302"},{"display":"Alanine aminotransferase [Enzymatic activity/volume] in Serum or Plasma","reference":"Observation/a06f60e1-3593-4bba-82a1-e7770c3f0d5e"},{"display":"Aspartate aminotransferase [Enzymatic activity/volume] in Serum or Plasma","reference":"Observation/bc7187b3-1945-4790-86f0-a796dac42777"}],"status":"final","subject":{"reference":"Patient/00c8c9ed-65fe-4f9a-8e75-7d31ac64a04b"}}},{"resource":{"code":{"coding":[{"code":"57698-3","display":"Lipid Panel","system":"http://loinc.org"}],"text":"Lipid Panel"},"context":{"reference":"Encounter/81b946a0-ed66-441c-b386-3a2b01022ac1"},"effectiveDateTime":"2018-08-19T11:44:59-04:00","id":"8ec30d3a-38ae-4d66-853b-722ca8308405","issued":"2018-08-19T11:44:59.853-04:00","meta":{"lastUpdated":"2019-04-09T09:58:04.493135+00:00","versionId":"MTU1NDgwMzg4NDQ5MzEzNTAwMA"},"resourceType":"DiagnosticReport","result":[{"display":"Total Cholesterol","reference":"Observation/8de2315b-c85a-42fc-8f6a-29a929b7b78c"},{"display":"Triglycerides","reference":"Observation/e7ed388e-a0d7-4bc2-94ec-de45b93d14b9"},{"display":"Low Density Lipoprotein Cholesterol","reference":"Observation/45d84fd9-d9ba-41c6-909f-b661a255022d"},{"display":"High Density Lipoprotein Cholesterol","reference":"Observation/9e74ab51-de2f-46e9-b1d2-d1e4232b94b5"}],"status":"final","subject":{"reference":"Patient/00c8c9ed-65fe-4f9a-8e75-7d31ac64a04b"}}},{"resource":{"code":{"coding":[{"code":"51990-0","display":"Basic Metabolic Panel","system":"http://loinc.org"}],"text":"Basic Metabolic Panel"},"context":{"reference":"Encounter/5803a2ac-12b9-4500-afb8-0420ffb957c1"},"effectiveDateTime":"2017-03-05T10:44:59-05:00","id":"8f05c8e3-b8ed-4034-a01f-e5e903a24592","issued":"2017-03-05T10:44:59.853-05:00","meta":{"lastUpdated":"2019-04-09T09:57:56.088411+00:00","versionId":"MTU1NDgwMzg3NjA4ODQxMTAwMA"},"resourceType":"DiagnosticReport","result":[{"display":"Glucose","reference":"Observation/77f145cb-f7ec-46f4-8aa7-5cd082ad504c"},{"display":"Urea Nitrogen","reference":"Observation/4cfe4179-a979-418e-ae43-c6ad10b1092b"},{"display":"Creatinine","reference":"Observation/ad5956e8-e9d5-4d95-847a-db8705e94cd0"},{"display":"Calcium","reference":"Observation/a7bf6cae-9a19-4d4f-a75f-38c81c5cea2c"},{"display":"Sodium","reference":"Observation/85cf6e82-a49d-4319-9065-f9fb849bf7f2"},{"display":"Potassium","reference":"Observation/8a657994-3dd0-44a4-b3c2-29b2bd501ffe"},{"display":"Chloride","reference":"Observation/0b1dc05d-c3f3-46a2-a946-9db3b629ec4a"},{"display":"Carbon Dioxide","reference":"Observation/962060b4-fd6b-4b91-a9fa-ec20fab27f2a"}],"status":"final","subject":{"reference":"Patient/00c8c9ed-65fe-4f9a-8e75-7d31ac64a04b"}}},{"resource":{"code":{"coding":[{"code":"51990-0","display":"Basic Metabolic Panel","system":"http://loinc.org"}],"text":"Basic Metabolic Panel"},"context":{"reference":"Encounter/5c6e91b8-89c6-4bb5-813b-d294876cc99e"},"effectiveDateTime":"2017-09-03T11:44:59-04:00","id":"914d2b67-4895-49bf-8b91-780b55647c7c","issued":"2017-09-03T11:44:59.853-04:00","meta":{"lastUpdated":"2019-04-09T09:57:59.204048+00:00","versionId":"MTU1NDgwMzg3OTIwNDA0ODAwMA"},"resourceType":"DiagnosticReport","result":[{"display":"Glucose","reference":"Observation/6611e918-aabf-4740-8b23-316e064a5107"},{"display":"Urea Nitrogen","reference":"Observation/7f5c4689-0600-4810-babc-921556369d4b"},{"display":"Creatinine","reference":"Observation/cc8ddde7-e4a4-428a-922e-23e7ad37cb46"},{"display":"Calcium","reference":"Observation/1a658d1f-5359-4019-bcfb-b97875d40d51"},{"display":"Sodium","reference":"Observation/2de186bf-6fac-4f8a-9fa8-ebeb88d6cc64"},{"display":"Potassium","reference":"Observation/96c4fa52-ff1f-4c84-9fcd-801b90ffa47c"},{"display":"Chloride","reference":"Observation/bcedde85-7d1f-4eeb-854e-368f59abf541"},{"display":"Carbon Dioxide","reference":"Observation/8708f74c-3453-416f-8e66-c1ca674dfd28"}],"status":"final","subject":{"reference":"Patient/00c8c9ed-65fe-4f9a-8e75-7d31ac64a04b"}}},{"resource":{"code":{"coding":[{"code":"57698-3","display":"Lipid Panel","system":"http://loinc.org"}],"text":"Lipid Panel"},"context":{"reference":"Encounter/326c82dc-3c14-4b82-bd68-41c1668d6921"},"effectiveDateTime":"2017-01-01T10:44:59-05:00","id":"92158903-f505-4465-a67c-c7f6a545da37","issued":"2017-01-01T10:44:59.853-05:00","meta":{"lastUpdated":"2019-04-09T09:57:54.002356+00:00","versionId":"MTU1NDgwMzg3NDAwMjM1NjAwMA"},"resourceType":"DiagnosticReport","result":[{"display":"Total Cholesterol","reference":"Observation/3d9c3cdd-d71c-4118-8508-44c263a36c8f"},{"display":"Triglycerides","reference":"Observation/ceb4586d-930d-41d1-97fc-c3a683e70fdb"},{"display":"Low Density Lipoprotein Cholesterol","reference":"Observation/3b65e150-84a5-484d-9d52-cf5204c47cce"},{"display":"High Density Lipoprotein Cholesterol","reference":"Observation/287595d7-c481-4d4b-88b7-55f0b066c7d4"}],"status":"final","subject":{"reference":"Patient/00c8c9ed-65fe-4f9a-8e75-7d31ac64a04b"}}},{"resource":{"code":{"coding":[{"code":"24323-8","display":"Comprehensive metabolic 2000 panel - Serum or Plasma","system":"http://loinc.org"}],"text":"Comprehensive metabolic 2000 panel - Serum or Plasma"},"context":{"reference":"Encounter/14c885b4-f356-4b90-aa1c-68fda783d4e2"},"effectiveDateTime":"2015-08-10T11:44:59-04:00","id":"94d6ea0b-67f7-4f5c-ad02-59eb9e78b7e6","issued":"2015-08-10T11:44:59.853-04:00","meta":{"lastUpdated":"2019-04-09T09:57:45.494510+00:00","versionId":"MTU1NDgwMzg2NTQ5NDUxMDAwMA"},"resourceType":"DiagnosticReport","result":[{"display":"Glucose","reference":"Observation/26cfd32e-762c-4be0-b921-22ac395e0249"},{"display":"Urea Nitrogen","reference":"Observation/c34464f9-76f4-4cd7-828f-63e9075736fc"},{"display":"Creatinine","reference":"Observation/e20541ce-0c84-48d1-99f6-caf1a18bb5b6"},{"display":"Calcium","reference":"Observation/23b5df36-1f51-4b47-a9c2-42d5b752f303"},{"display":"Sodium","reference":"Observation/af77036c-7ff8-400e-a14b-96b0d4c54ec3"},{"display":"Potassium","reference":"Observation/4fd03205-3fde-4fb6-a852-5fee26fe53e3"},{"display":"Chloride","reference":"Observation/dd4daeb8-d26a-4ef4-b241-3f19bfcae7a9"},{"display":"Carbon Dioxide","reference":"Observation/3fcabf8c-5644-4a04-99d3-3a695b721633"},{"display":"Glomerular filtration rate/1.73 sq M.predicted","reference":"Observation/02619c5a-33a2-4af0-8cc6-7b3340d7c972"},{"display":"Protein [Mass/volume] in Serum or Plasma","reference":"Observation/6f128241-f9bf-4771-80c7-2dff52073d53"},{"display":"Albumin [Mass/volume] in Serum or Plasma","reference":"Observation/6461a41e-4e81-41e5-8909-4ffec8b147ce"},{"display":"Globulin [Mass/volume] in Serum by calculation","reference":"Observation/2fea1efd-4302-47f1-9f09-e9190c7edb0f"},{"display":"Bilirubin.total [Mass/volume] in Serum or Plasma","reference":"Observation/2383914c-1127-4bdb-885a-18fbdb4eb5cb"},{"display":"Alkaline phosphatase [Enzymatic activity/volume] in Serum or Plasma","reference":"Observation/305b0669-c237-4376-8b5c-f04508c5b29f"},{"display":"Alanine aminotransferase [Enzymatic activity/volume] in Serum or Plasma","reference":"Observation/b46a7ed8-ff9b-4d12-832e-0fea9f66b341"},{"display":"Aspartate aminotransferase [Enzymatic activity/volume] in Serum or Plasma","reference":"Observation/ac4ebcf0-b400-4878-96ec-8bc09929b130"}],"status":"final","subject":{"reference":"Patient/00c8c9ed-65fe-4f9a-8e75-7d31ac64a04b"}}},{"resource":{"code":{"coding":[{"code":"51990-0","display":"Basic Metabolic Panel","system":"http://loinc.org"}],"text":"Basic Metabolic Panel"},"context":{"reference":"Encounter/2fd54842-ff58-47ab-90b6-773312bf305c"},"effectiveDateTime":"2014-01-12T10:44:59-05:00","id":"954c37b7-c9b5-4d16-8da5-82c0f94e56e5","issued":"2014-01-12T10:44:59.853-05:00","meta":{"lastUpdated":"2019-04-09T09:57:35.999446+00:00","versionId":"MTU1NDgwMzg1NTk5OTQ0NjAwMA"},"resourceType":"DiagnosticReport","result":[{"display":"Glucose","reference":"Observation/991520d1-8665-4700-8609-a9f8caef7d6a"},{"display":"Urea Nitrogen","reference":"Observation/df0390a0-b578-4616-9729-50c860cb9367"},{"display":"Creatinine","reference":"Observation/787ff08d-3a36-4938-9031-6fac1b7045df"},{"display":"Calcium","reference":"Observation/07a4b71d-5820-4c90-884a-774c1f95b180"},{"display":"Sodium","reference":"Observation/16d64e88-0085-42ea-a95a-da62f843fd2d"},{"display":"Potassium","reference":"Observation/ee9b9be4-00d9-4e1f-8377-3a02ceb0996f"},{"display":"Chloride","reference":"Observation/d25e1e45-d299-4cea-80c4-d8627351aa77"},{"display":"Carbon Dioxide","reference":"Observation/cc010bfa-2858-4040-afbd-ea9173ec3fdc"}],"status":"final","subject":{"reference":"Patient/00c8c9ed-65fe-4f9a-8e75-7d31ac64a04b"}}},{"resource":{"code":{"coding":[{"code":"24323-8","display":"Comprehensive metabolic 2000 panel - Serum or Plasma","system":"http://loinc.org"}],"text":"Comprehensive metabolic 2000 panel - Serum or Plasma"},"context":{"reference":"Encounter/60bdf30a-71e0-4987-8498-ac12c6c3cab7"},"effectiveDateTime":"2012-08-10T11:44:59-04:00","id":"9892a511-7267-433b-a06a-28877813220e","issued":"2012-08-10T11:44:59.853-04:00","meta":{"lastUpdated":"2019-04-09T09:57:29.760337+00:00","versionId":"MTU1NDgwMzg0OTc2MDMzNzAwMA"},"resourceType":"DiagnosticReport","result":[{"display":"Glucose","reference":"Observation/af50d8d2-5fe7-4606-8862-e16fef764af2"},{"display":"Urea Nitrogen","reference":"Observation/463aa948-b8eb-4be0-9a0c-3c09b2918d66"},{"display":"Creatinine","reference":"Observation/6aa34747-956b-4d58-9800-a53836d5d24f"},{"display":"Calcium","reference":"Observation/d58af733-bbe4-42df-8ff3-6dcf713abee4"},{"display":"Sodium","reference":"Observation/f47236f5-e810-4e2d-807d-dbabcbe0510c"},{"display":"Potassium","reference":"Observation/eecf2c27-8698-4ed8-bedf-7e5159dc27df"},{"display":"Chloride","reference":"Observation/39c077fe-f8b9-49e2-b956-2185e7662f53"},{"display":"Carbon Dioxide","reference":"Observation/ce197140-f3f7-490d-b429-d95e183400b6"},{"display":"Glomerular filtration rate/1.73 sq M.predicted","reference":"Observation/391121a5-1380-4f63-b8d5-1e47a6651428"},{"display":"Protein [Mass/volume] in Serum or Plasma","reference":"Observation/ec7230c5-002b-402f-84f5-cf8abc478f61"},{"display":"Albumin [Mass/volume] in Serum or Plasma","reference":"Observation/637fbe5d-1f49-4b8c-a684-29924ec4f101"},{"display":"Globulin [Mass/volume] in Serum by calculation","reference":"Observation/04c8c28c-829d-42de-94dd-e216deb7080b"},{"display":"Bilirubin.total [Mass/volume] in Serum or Plasma","reference":"Observation/39eca2ac-880b-45bd-952a-5759d9e8b546"},{"display":"Alkaline phosphatase [Enzymatic activity/volume] in Serum or Plasma","reference":"Observation/c24542d7-bb3e-4371-ba45-116b69e81249"},{"display":"Alanine aminotransferase [Enzymatic activity/volume] in Serum or Plasma","reference":"Observation/31ed68fe-4c27-4cc0-b1f6-81db2b65618c"},{"display":"Aspartate aminotransferase [Enzymatic activity/volume] in Serum or Plasma","reference":"Observation/41e02008-f4d6-469d-ac99-dbf2ebea47b6"}],"status":"final","subject":{"reference":"Patient/00c8c9ed-65fe-4f9a-8e75-7d31ac64a04b"}}},{"resource":{"code":{"coding":[{"code":"51990-0","display":"Basic Metabolic Panel","system":"http://loinc.org"}],"text":"Basic Metabolic Panel"},"context":{"reference":"Encounter/09593a2a-c114-4dc1-bb4a-25fe216d196b"},"effectiveDateTime":"2011-02-06T10:44:59-05:00","id":"9932a9fc-f1d1-49a3-82ed-e5f7f1e9617c","issued":"2011-02-06T10:44:59.853-05:00","meta":{"lastUpdated":"2019-04-09T09:57:23.673568+00:00","versionId":"MTU1NDgwMzg0MzY3MzU2ODAwMA"},"resourceType":"DiagnosticReport","result":[{"display":"Glucose","reference":"Observation/ec7ddf36-b419-4552-a7ca-97d1d504758a"},{"display":"Urea Nitrogen","reference":"Observation/34e7a0b2-7fe3-4b4a-989c-9f3beb59d916"},{"display":"Creatinine","reference":"Observation/a2309408-2941-402a-9581-4da0a39749f3"},{"display":"Calcium","reference":"Observation/613e94bd-365f-4e6d-b7b0-8acc51997a20"},{"display":"Sodium","reference":"Observation/4b2cac1b-d594-4893-97fd-d537de84487f"},{"display":"Potassium","reference":"Observation/4c416a67-c69f-4723-b661-1b3efd4fff9f"},{"display":"Chloride","reference":"Observation/324e5f24-1a3d-4416-9348-fbd2a8a2cf4d"},{"display":"Carbon Dioxide","reference":"Observation/da76bb26-4447-4083-88a3-eef0b3c07ab2"}],"status":"final","subject":{"reference":"Patient/00c8c9ed-65fe-4f9a-8e75-7d31ac64a04b"}}},{"resource":{"code":{"coding":[{"code":"57698-3","display":"Lipid Panel","system":"http://loinc.org"}],"text":"Lipid Panel"},"context":{"reference":"Encounter/ca951e95-2560-427c-a867-b0172d854bba"},"effectiveDateTime":"2010-01-03T10:44:59-05:00","id":"9d84d52e-8ee6-4f97-8f34-28f6237599a1","issued":"2010-01-03T10:44:59.853-05:00","meta":{"lastUpdated":"2019-04-09T09:57:17.524371+00:00","versionId":"MTU1NDgwMzgzNzUyNDM3MTAwMA"},"resourceType":"DiagnosticReport","result":[{"display":"Total Cholesterol","reference":"Observation/acbd5c14-2f5c-450b-8b5a-d038881e72c1"},{"display":"Triglycerides","reference":"Observation/58dcce9f-cd01-4197-87fe-1f08ecd778d6"},{"display":"Low Density Lipoprotein Cholesterol","reference":"Observation/9f2b0a65-3d4f-4749-81be-fe7515583fe2"},{"display":"High Density Lipoprotein Cholesterol","reference":"Observation/09112856-deaa-4a29-b59e-3881c5bbdba5"}],"status":"final","subject":{"reference":"Patient/00c8c9ed-65fe-4f9a-8e75-7d31ac64a04b"}}},{"resource":{"code":{"coding":[{"code":"24323-8","display":"Comprehensive metabolic 2000 panel - Serum or Plasma","system":"http://loinc.org"}],"text":"Comprehensive metabolic 2000 panel - Serum or Plasma"},"context":{"reference":"Encounter/12232552-ce41-4b3b-879e-ebef82b33c4b"},"effectiveDateTime":"2011-08-11T11:44:59-04:00","id":"a01b226b-01c1-4979-8b6b-bdbfe37f34f5","issued":"2011-08-11T11:44:59.853-04:00","meta":{"lastUpdated":"2019-04-09T09:57:27.778032+00:00","versionId":"MTU1NDgwMzg0Nzc3ODAzMjAwMA"},"resourceType":"DiagnosticReport","result":[{"display":"Glucose","reference":"Observation/b42b698f-731e-4d05-9fdc-21472b7cf0bc"},{"display":"Urea Nitrogen","reference":"Observation/2a710db8-4314-437c-9d64-8deb74a27fcd"},{"display":"Creatinine","reference":"Observation/99d94c79-b645-45bc-a044-01f38fae5a49"},{"display":"Calcium","reference":"Observation/c40bc12f-4a16-4d34-8ef6-7feff8b555c3"},{"display":"Sodium","reference":"Observation/5b9f486a-e1a7-4d24-b2d8-4c24e86b6eb5"},{"display":"Potassium","reference":"Observation/3c9c2eaa-5ab1-47f5-92f4-643a3c359b5a"},{"display":"Chloride","reference":"Observation/2c4d8816-bf5d-430e-a991-2b9eaffb31b6"},{"display":"Carbon Dioxide","reference":"Observation/5980618b-8d9b-4d37-b004-a6dfb9475f40"},{"display":"Glomerular filtration rate/1.73 sq M.predicted","reference":"Observation/e65d8039-dc0c-4ed8-aa99-293bcbfd4004"},{"display":"Protein [Mass/volume] in Serum or Plasma","reference":"Observation/c65c50f3-bce3-4260-9872-029f054b66f3"},{"display":"Albumin [Mass/volume] in Serum or Plasma","reference":"Observation/421d8a50-106c-4a1f-bab6-00790afa9d2e"},{"display":"Globulin [Mass/volume] in Serum by calculation","reference":"Observation/bdc95afc-417c-4e3e-bda0-a2852ddb7784"},{"display":"Bilirubin.total [Mass/volume] in Serum or Plasma","reference":"Observation/c54e88cd-5a52-41c0-9487-a4d44e6015b1"},{"display":"Alkaline phosphatase [Enzymatic activity/volume] in Serum or Plasma","reference":"Observation/a4329545-b121-4430-bc6f-d82f6fb41538"},{"display":"Alanine aminotransferase [Enzymatic activity/volume] in Serum or Plasma","reference":"Observation/fec9cb25-508c-4c61-8d25-6a702cb294b3"},{"display":"Aspartate aminotransferase [Enzymatic activity/volume] in Serum or Plasma","reference":"Observation/ee3dcc57-5fc4-4d64-9f31-84454e0e0248"}],"status":"final","subject":{"reference":"Patient/00c8c9ed-65fe-4f9a-8e75-7d31ac64a04b"}}},{"resource":{"code":{"coding":[{"code":"57698-3","display":"Lipid Panel","system":"http://loinc.org"}],"text":"Lipid Panel"},"context":{"reference":"Encounter/f3d97342-a817-49bc-9578-e38a0da06edb"},"effectiveDateTime":"2010-08-01T11:44:59-04:00","id":"a5bfca70-0343-4595-8beb-811197123304","issued":"2010-08-01T11:44:59.853-04:00","meta":{"lastUpdated":"2019-04-09T09:57:20.792031+00:00","versionId":"MTU1NDgwMzg0MDc5MjAzMTAwMA"},"resourceType":"DiagnosticReport","result":[{"display":"Total Cholesterol","reference":"Observation/710572c4-9650-42f7-b9c1-ae999321664d"},{"display":"Triglycerides","reference":"Observation/0e616100-4381-46cd-8278-1ed7dddf78d7"},{"display":"Low Density Lipoprotein Cholesterol","reference":"Observation/a9e2b608-1f8d-416b-9b8b-0c5aaf4e30b2"},{"display":"High Density Lipoprotein Cholesterol","reference":"Observation/6aafd513-1215-4a63-bf62-cf3ad23b5305"}],"status":"final","subject":{"reference":"Patient/00c8c9ed-65fe-4f9a-8e75-7d31ac64a04b"}}},{"resource":{"code":{"coding":[{"code":"51990-0","display":"Basic Metabolic Panel","system":"http://loinc.org"}],"text":"Basic Metabolic Panel"},"context":{"reference":"Encounter/9cf183df-5bae-47a2-b834-2a76ec972903"},"effectiveDateTime":"2015-09-06T11:44:59-04:00","id":"a68226f2-7af4-4fcb-82b7-a7ced93c98e8","issued":"2015-09-06T11:44:59.853-04:00","meta":{"lastUpdated":"2019-04-09T09:57:45.481248+00:00","versionId":"MTU1NDgwMzg2NTQ4MTI0ODAwMA"},"resourceType":"DiagnosticReport","result":[{"display":"Glucose","reference":"Observation/c557f677-abc9-4de7-b839-c27366dca144"},{"display":"Urea Nitrogen","reference":"Observation/8f12ac4e-91d4-4b5c-a54b-68499ddaf468"},{"display":"Creatinine","reference":"Observation/9fc6b270-acc8-4cf0-b3f4-715e4a511f07"},{"display":"Calcium","reference":"Observation/ceb5f3e9-176e-4cc2-9420-2bfeae4da4ce"},{"display":"Sodium","reference":"Observation/302ee232-9b71-448e-a02f-c45dbb122849"},{"display":"Potassium","reference":"Observation/00cf7126-04a6-426c-a924-c5adb18e8a98"},{"display":"Chloride","reference":"Observation/1c0a365d-0ab1-48d4-ad2b-c2ae97432079"},{"display":"Carbon Dioxide","reference":"Observation/0e0b7a65-feee-44b4-81a1-450082f7f2ac"}],"status":"final","subject":{"reference":"Patient/00c8c9ed-65fe-4f9a-8e75-7d31ac64a04b"}}},{"resource":{"code":{"coding":[{"code":"57698-3","display":"Lipid Panel","system":"http://loinc.org"}],"text":"Lipid Panel"},"context":{"reference":"Encounter/5817a889-8c69-41a0-92f5-029c469f25f3"},"effectiveDateTime":"2018-08-09T11:44:59-04:00","id":"aa574fe6-7d84-4475-a111-151642e58ac9","issued":"2018-08-09T11:44:59.853-04:00","meta":{"lastUpdated":"2019-04-09T09:58:04.486045+00:00","versionId":"MTU1NDgwMzg4NDQ4NjA0NTAwMA"},"resourceType":"DiagnosticReport","result":[{"display":"Total Cholesterol","reference":"Observation/db06493e-e541-46c3-b55c-498d2869bb95"},{"display":"Triglycerides","reference":"Observation/5924e37c-bec8-446e-a431-8bdbdc76d335"},{"display":"Low Density Lipoprotein Cholesterol","reference":"Observation/547d16fd-7f61-4cc4-b835-d288bd4638bd"},{"display":"High Density Lipoprotein Cholesterol","reference":"Observation/45fe6197-3fcf-4a73-ba0d-edb00b4fd0c2"}],"status":"final","subject":{"reference":"Patient/00c8c9ed-65fe-4f9a-8e75-7d31ac64a04b"}}},{"resource":{"code":{"coding":[{"code":"51990-0","display":"Basic Metabolic Panel","system":"http://loinc.org"}],"text":"Basic Metabolic Panel"},"context":{"reference":"Encounter/c7283afd-e175-4848-9a21-a0c5366c4eda"},"effectiveDateTime":"2016-10-09T11:44:59-04:00","id":"b00bf2eb-ffed-4330-8e24-d8823ea78b4b","issued":"2016-10-09T11:44:59.853-04:00","meta":{"lastUpdated":"2019-04-09T09:57:52.962301+00:00","versionId":"MTU1NDgwMzg3Mjk2MjMwMTAwMA"},"resourceType":"DiagnosticReport","result":[{"display":"Glucose","reference":"Observation/dabebbca-2f58-4197-9c5d-650cf26a5c3d"},{"display":"Urea Nitrogen","reference":"Observation/d28bc195-2313-4232-9cce-1919873ba952"},{"display":"Creatinine","reference":"Observation/4b0e2cfb-a7d9-4a7e-86e9-0ab542d6640e"},{"display":"Calcium","reference":"Observation/ea151fbe-eac2-48c0-b153-3be901aedcdf"},{"display":"Sodium","reference":"Observation/040c320d-c5e1-4150-98da-ccf77a59250c"},{"display":"Potassium","reference":"Observation/4188a9e7-baa4-4999-b85c-0e9b96687d90"},{"display":"Chloride","reference":"Observation/780775e5-bbe0-4b81-b825-b7cfa0bf7ec1"},{"display":"Carbon Dioxide","reference":"Observation/d616c60a-f72b-4a26-aa8c-892c4e26751f"}],"status":"final","subject":{"reference":"Patient/00c8c9ed-65fe-4f9a-8e75-7d31ac64a04b"}}},{"resource":{"code":{"coding":[{"code":"57698-3","display":"Lipid Panel","system":"http://loinc.org"}],"text":"Lipid Panel"},"context":{"reference":"Encounter/49f85215-2ce2-4869-b241-e6a07428b424"},"effectiveDateTime":"2013-10-13T11:44:59-04:00","id":"b03e79bd-d6de-4dc2-bfa8-5a4ac6a923a8","issued":"2013-10-13T11:44:59.853-04:00","meta":{"lastUpdated":"2019-04-09T09:57:34.934082+00:00","versionId":"MTU1NDgwMzg1NDkzNDA4MjAwMA"},"resourceType":"DiagnosticReport","result":[{"display":"Total Cholesterol","reference":"Observation/8bb5a9e6-8da6-4927-bed2-25a3de5a013a"},{"display":"Triglycerides","reference":"Observation/b792570f-9b3c-4874-8b1a-ba69dd98ff17"},{"display":"Low Density Lipoprotein Cholesterol","reference":"Observation/64c331b5-01e7-4aa4-a0f6-6d1534f12569"},{"display":"High Density Lipoprotein Cholesterol","reference":"Observation/405c28ad-fcac-4979-9214-e81f5843e3dc"}],"status":"final","subject":{"reference":"Patient/00c8c9ed-65fe-4f9a-8e75-7d31ac64a04b"}}},{"resource":{"code":{"coding":[{"code":"57698-3","display":"Lipid Panel","system":"http://loinc.org"}],"text":"Lipid Panel"},"context":{"reference":"Encounter/057a6ba9-37b4-4eee-819a-2b8e8a7f05e1"},"effectiveDateTime":"2017-04-02T11:44:59-04:00","id":"b668c2db-e4d9-4590-8f46-2f3d9d707b5b","issued":"2017-04-02T11:44:59.853-04:00","meta":{"lastUpdated":"2019-04-09T09:57:56.088235+00:00","versionId":"MTU1NDgwMzg3NjA4ODIzNTAwMA"},"resourceType":"DiagnosticReport","result":[{"display":"Total Cholesterol","reference":"Observation/11a8d6e4-9b29-4e2e-b398-477300ce1837"},{"display":"Triglycerides","reference":"Observation/d49b0c76-729a-4037-a3e4-2570f4625c43"},{"display":"Low Density Lipoprotein Cholesterol","reference":"Observation/167ad625-1315-4c2b-9872-444aa3bf5ade"},{"display":"High Density Lipoprotein Cholesterol","reference":"Observation/a07dbd8b-e587-4f86-8d31-723aa0caef57"}],"status":"final","subject":{"reference":"Patient/00c8c9ed-65fe-4f9a-8e75-7d31ac64a04b"}}},{"resource":{"code":{"coding":[{"code":"57698-3","display":"Lipid Panel","system":"http://loinc.org"}],"text":"Lipid Panel"},"context":{"reference":"Encounter/c141a25b-0b7e-46db-a46c-779f906014ff"},"effectiveDateTime":"2010-04-11T11:44:59-04:00","id":"b917c978-f7cb-4ac5-b56b-7787114674e1","issued":"2010-04-11T11:44:59.853-04:00","meta":{"lastUpdated":"2019-04-09T09:57:18.551504+00:00","versionId":"MTU1NDgwMzgzODU1MTUwNDAwMA"},"resourceType":"DiagnosticReport","result":[{"display":"Total Cholesterol","reference":"Observation/5b4e71d8-6ede-47ea-a5f6-dc1654686aed"},{"display":"Triglycerides","reference":"Observation/4bb2d611-eeb3-4871-9bc4-6d745da88b30"},{"display":"Low Density Lipoprotein Cholesterol","reference":"Observation/4601b6a8-69fe-493f-a03d-c26adc85ed50"},{"display":"High Density Lipoprotein Cholesterol","reference":"Observation/ad337d21-d9e5-431a-ac4c-9db3aa87ac71"}],"status":"final","subject":{"reference":"Patient/00c8c9ed-65fe-4f9a-8e75-7d31ac64a04b"}}},{"resource":{"code":{"coding":[{"code":"51990-0","display":"Basic Metabolic Panel","system":"http://loinc.org"}],"text":"Basic Metabolic Panel"},"context":{"reference":"Encounter/4d7e2eb5-cac0-4c41-9288-ee9beb8e2d2b"},"effectiveDateTime":"2010-01-31T10:44:59-05:00","id":"bb31e8b3-1759-4bb4-b5e4-c708d8e9c358","issued":"2010-01-31T10:44:59.853-05:00","meta":{"lastUpdated":"2019-04-09T09:57:17.528022+00:00","versionId":"MTU1NDgwMzgzNzUyODAyMjAwMA"},"resourceType":"DiagnosticReport","result":[{"display":"Glucose","reference":"Observation/4114b610-ace1-4f0f-8649-a884bfadd9e3"},{"display":"Urea Nitrogen","reference":"Observation/fdcc9e1a-10b6-4f6c-bed8-868adbf0f638"},{"display":"Creatinine","reference":"Observation/93672b7b-f695-4836-9030-b8edb8b9bc26"},{"display":"Calcium","reference":"Observation/a52d0a4e-1db4-452c-bb26-f2b78a75b103"},{"display":"Sodium","reference":"Observation/6f8d38ec-86af-4377-b141-0f481cbc25bb"},{"display":"Potassium","reference":"Observation/ac975e53-18eb-42b3-83db-54d7bd1eb57f"},{"display":"Chloride","reference":"Observation/c58799ad-79c2-4d4f-85d1-3e702deb6e53"},{"display":"Carbon Dioxide","reference":"Observation/48f36438-0a6d-4939-a3aa-eb61a0abea62"}],"status":"final","subject":{"reference":"Patient/00c8c9ed-65fe-4f9a-8e75-7d31ac64a04b"}}},{"resource":{"code":{"coding":[{"code":"57698-3","display":"Lipid Panel","system":"http://loinc.org"}],"text":"Lipid Panel"},"context":{"reference":"Encounter/89b94a1e-59f4-43d1-9ee4-b81fd4fc4706"},"effectiveDateTime":"2015-11-08T10:44:59-05:00","id":"bb939b12-7984-4d28-ae07-2f6d59d19751","issued":"2015-11-08T10:44:59.853-05:00","meta":{"lastUpdated":"2019-04-09T09:57:47.733397+00:00","versionId":"MTU1NDgwMzg2NzczMzM5NzAwMA"},"resourceType":"DiagnosticReport","result":[{"display":"Total Cholesterol","reference":"Observation/3ce8d411-8f9c-44ff-b202-873e576ab2fc"},{"display":"Triglycerides","reference":"Observation/1d0135e5-30a5-4ed1-bf6c-a815d416a12b"},{"display":"Low Density Lipoprotein Cholesterol","reference":"Observation/ee3db8d5-7a78-41ae-bbce-cd946a02ad83"},{"display":"High Density Lipoprotein Cholesterol","reference":"Observation/b23eb1b3-4d11-45da-85be-19be2a2f1cdb"}],"status":"final","subject":{"reference":"Patient/00c8c9ed-65fe-4f9a-8e75-7d31ac64a04b"}}},{"resource":{"code":{"coding":[{"code":"51990-0","display":"Basic Metabolic Panel","system":"http://loinc.org"}],"text":"Basic Metabolic Panel"},"context":{"reference":"Encounter/8c5992af-1204-42f7-882c-771b3fe481b8"},"effectiveDateTime":"2010-07-04T11:44:59-04:00","id":"bbb4c44c-4a6a-41a3-9cc8-39bf6bd9fc34","issued":"2010-07-04T11:44:59.853-04:00","meta":{"lastUpdated":"2019-04-09T09:57:19.595670+00:00","versionId":"MTU1NDgwMzgzOTU5NTY3MDAwMA"},"resourceType":"DiagnosticReport","result":[{"display":"Glucose","reference":"Observation/d92c1ad4-21f3-4b23-a67f-a0fff920adfb"},{"display":"Urea Nitrogen","reference":"Observation/3d1b88ba-f223-469f-b932-505e5641c96b"},{"display":"Creatinine","reference":"Observation/abe8055b-474b-4a20-b817-5b0b38530a2a"},{"display":"Calcium","reference":"Observation/125d04ce-5d5a-40d5-bfaf-75a7f4c021f4"},{"display":"Sodium","reference":"Observation/5ed9cfc4-972c-444f-b726-0780848c4920"},{"display":"Potassium","reference":"Observation/83082846-6044-4fe1-b79b-d7c35c892908"},{"display":"Chloride","reference":"Observation/a1c4e4c4-e4dc-4388-be3d-97b5a9f84c65"},{"display":"Carbon Dioxide","reference":"Observation/19ff52e3-4916-4901-9375-1f2e73adbb34"}],"status":"final","subject":{"reference":"Patient/00c8c9ed-65fe-4f9a-8e75-7d31ac64a04b"}}},{"resource":{"code":{"coding":[{"code":"51990-0","display":"Basic Metabolic Panel","system":"http://loinc.org"}],"text":"Basic Metabolic Panel"},"context":{"reference":"Encounter/326c82dc-3c14-4b82-bd68-41c1668d6921"},"effectiveDateTime":"2017-01-01T10:44:59-05:00","id":"bf3d664d-abf6-4431-afab-48cff8d9e514","issued":"2017-01-01T10:44:59.853-05:00","meta":{"lastUpdated":"2019-04-09T09:57:53.963359+00:00","versionId":"MTU1NDgwMzg3Mzk2MzM1OTAwMA"},"resourceType":"DiagnosticReport","result":[{"display":"Glucose","reference":"Observation/3a82a85c-9f23-4a58-ae2d-7c80819d1089"},{"display":"Urea Nitrogen","reference":"Observation/5d0fc961-b0c8-4929-9070-4a6f7c272bb6"},{"display":"Creatinine","reference":"Observation/7a934fab-8697-4160-99b7-2c3143721ff7"},{"display":"Calcium","reference":"Observation/34e0bf6d-f765-4c0e-931c-374bcf3149be"},{"display":"Sodium","reference":"Observation/0b5726ea-5b39-4c40-9fb1-192f6975bec5"},{"display":"Potassium","reference":"Observation/902ae24d-5cb4-4891-bdb9-b9a35c903eb2"},{"display":"Chloride","reference":"Observation/58888da5-1703-4eb9-b55c-668db11b6277"},{"display":"Carbon Dioxide","reference":"Observation/43493d7e-c05e-4224-a8b1-5be5200d6db1"}],"status":"final","subject":{"reference":"Patient/00c8c9ed-65fe-4f9a-8e75-7d31ac64a04b"}}},{"resource":{"code":{"coding":[{"code":"51990-0","display":"Basic Metabolic Panel","system":"http://loinc.org"}],"text":"Basic Metabolic Panel"},"context":{"reference":"Encounter/eb4aa10a-3166-429f-b0a7-f4cbb7c91e40"},"effectiveDateTime":"2013-07-14T11:44:59-04:00","id":"c0a3738f-e645-490d-bcaf-6dcba3b2a0db","issued":"2013-07-14T11:44:59.853-04:00","meta":{"lastUpdated":"2019-04-09T09:57:32.881725+00:00","versionId":"MTU1NDgwMzg1Mjg4MTcyNTAwMA"},"resourceType":"DiagnosticReport","result":[{"display":"Glucose","reference":"Observation/7207a8e0-4503-4c1e-8edd-3658d795faef"},{"display":"Urea Nitrogen","reference":"Observation/327dba72-6655-41b8-b329-7a1b13323043"},{"display":"Creatinine","reference":"Observation/e86d4f47-bcec-46f1-a18b-4e7ac1552841"},{"display":"Calcium","reference":"Observation/4a58b86d-b662-4629-9e7f-0de881322d0c"},{"display":"Sodium","reference":"Observation/9c29f968-a2fa-4750-883a-25ed11c923e2"},{"display":"Potassium","reference":"Observation/7d3313d6-796b-4745-b3fb-909f31cd8106"},{"display":"Chloride","reference":"Observation/08444636-70ae-4545-a3c8-c1b26e911f03"},{"display":"Carbon Dioxide","reference":"Observation/38323549-14a5-4d8f-83d5-858cf47f2eb7"}],"status":"final","subject":{"reference":"Patient/00c8c9ed-65fe-4f9a-8e75-7d31ac64a04b"}}},{"resource":{"code":{"coding":[{"code":"57698-3","display":"Lipid Panel","system":"http://loinc.org"}],"text":"Lipid Panel"},"context":{"reference":"Encounter/fb1a4d20-00e4-4253-b72c-bb22cf7be316"},"effectiveDateTime":"2016-02-07T10:44:59-05:00","id":"c1932e31-24ed-49c1-bb40-49e519076548","issued":"2016-02-07T10:44:59.853-05:00","meta":{"lastUpdated":"2019-04-09T09:57:48.705997+00:00","versionId":"MTU1NDgwMzg2ODcwNTk5NzAwMA"},"resourceType":"DiagnosticReport","result":[{"display":"Total Cholesterol","reference":"Observation/17402864-b686-4974-8e82-e8e7541a5d10"},{"display":"Triglycerides","reference":"Observation/78623e06-de39-4bf8-8839-9892f471140e"},{"display":"Low Density Lipoprotein Cholesterol","reference":"Observation/6b1a86fe-2b43-4df4-985b-a1650f671c0a"},{"display":"High Density Lipoprotein Cholesterol","reference":"Observation/85696bb3-d60a-42cf-9590-05dc02e54592"}],"status":"final","subject":{"reference":"Patient/00c8c9ed-65fe-4f9a-8e75-7d31ac64a04b"}}},{"resource":{"code":{"coding":[{"code":"51990-0","display":"Basic Metabolic Panel","system":"http://loinc.org"}],"text":"Basic Metabolic Panel"},"context":{"reference":"Encounter/1b648e79-a52b-4d23-ba62-efb56a7c1ab5"},"effectiveDateTime":"2015-07-05T11:44:59-04:00","id":"c1eb8d3e-8be6-4b72-8731-3f9d355eff5c","issued":"2015-07-05T11:44:59.853-04:00","meta":{"lastUpdated":"2019-04-09T09:57:43.413644+00:00","versionId":"MTU1NDgwMzg2MzQxMzY0NDAwMA"},"resourceType":"DiagnosticReport","result":[{"display":"Glucose","reference":"Observation/d089fbc2-84d3-421b-a9dc-a6b1a3c6aa2e"},{"display":"Urea Nitrogen","reference":"Observation/c4260f22-bc0b-4452-bd9d-e74bd3f14820"},{"display":"Creatinine","reference":"Observation/2665475d-3f6a-40ff-a6b4-88d12367488c"},{"display":"Calcium","reference":"Observation/24208683-4569-4f09-9a1f-a406e3446dbc"},{"display":"Sodium","reference":"Observation/10dcf767-0e28-4968-8956-1cc341483e01"},{"display":"Potassium","reference":"Observation/307be411-b5dc-472c-9303-f69d6dc91cee"},{"display":"Chloride","reference":"Observation/47df5cb0-01b2-449c-9032-1e33e88a29c1"},{"display":"Carbon Dioxide","reference":"Observation/ec3e46e3-a841-4b3f-a322-9a774c8d684d"}],"status":"final","subject":{"reference":"Patient/00c8c9ed-65fe-4f9a-8e75-7d31ac64a04b"}}},{"resource":{"code":{"coding":[{"code":"57698-3","display":"Lipid Panel","system":"http://loinc.org"}],"text":"Lipid Panel"},"context":{"reference":"Encounter/10e23bf3-ce79-4b1c-8e3f-f2da7502a882"},"effectiveDateTime":"2015-08-09T11:44:59-04:00","id":"c5c7856d-eb8f-47d0-90d1-29a971421093","issued":"2015-08-09T11:44:59.853-04:00","meta":{"lastUpdated":"2019-04-09T09:57:44.535895+00:00","versionId":"MTU1NDgwMzg2NDUzNTg5NTAwMA"},"resourceType":"DiagnosticReport","result":[{"display":"Total Cholesterol","reference":"Observation/5d7897cc-fe87-4488-9a81-16d789f2b5a7"},{"display":"Triglycerides","reference":"Observation/ee3da58e-c4c5-470b-963b-36957960f8ea"},{"display":"Low Density Lipoprotein Cholesterol","reference":"Observation/2f8b9e44-ecd9-4942-96f5-5ebf8ba6d34c"},{"display":"High Density Lipoprotein Cholesterol","reference":"Observation/92013343-bc81-48e8-bf88-a6aebfdeac3f"}],"status":"final","subject":{"reference":"Patient/00c8c9ed-65fe-4f9a-8e75-7d31ac64a04b"}}},{"resource":{"code":{"coding":[{"code":"51990-0","display":"Basic Metabolic Panel","system":"http://loinc.org"}],"text":"Basic Metabolic Panel"},"context":{"reference":"Encounter/fcd5a4c8-3af7-4f92-9cb7-cf626279725c"},"effectiveDateTime":"2013-12-15T10:44:59-05:00","id":"c5f49061-bc76-4dc8-b1d5-244a71a3dee5","issued":"2013-12-15T10:44:59.853-05:00","meta":{"lastUpdated":"2019-04-09T09:57:36.003384+00:00","versionId":"MTU1NDgwMzg1NjAwMzM4NDAwMA"},"resourceType":"DiagnosticReport","result":[{"display":"Glucose","reference":"Observation/ce093631-771c-4e1b-9119-1056e75e543b"},{"display":"Urea Nitrogen","reference":"Observation/5499c839-789b-4476-902b-c58a5c579091"},{"display":"Creatinine","reference":"Observation/fcb5904f-88ae-4cda-881a-050cbc8d63d8"},{"display":"Calcium","reference":"Observation/9748e569-a29d-4f2b-ad0c-a92a981cb047"},{"display":"Sodium","reference":"Observation/4ca11c82-e17d-4494-95fb-ca3c07114707"},{"display":"Potassium","reference":"Observation/bf1c4d17-5628-47b8-8f61-4f11c0aff116"},{"display":"Chloride","reference":"Observation/d6252ce2-dc92-463d-8661-4ff7202cb517"},{"display":"Carbon Dioxide","reference":"Observation/a46c6fd0-dc8a-4970-be00-ac3e31744b10"}],"status":"final","subject":{"reference":"Patient/00c8c9ed-65fe-4f9a-8e75-7d31ac64a04b"}}},{"resource":{"code":{"coding":[{"code":"51990-0","display":"Basic Metabolic Panel","system":"http://loinc.org"}],"text":"Basic Metabolic Panel"},"context":{"reference":"Encounter/caa990ac-6063-45f3-9e13-13cc9cfb0484"},"effectiveDateTime":"2009-09-06T11:44:59-04:00","id":"c6209255-9005-4e39-8117-b7b90cd096c2","issued":"2009-09-06T11:44:59.853-04:00","meta":{"lastUpdated":"2019-04-09T09:57:15.473597+00:00","versionId":"MTU1NDgwMzgzNTQ3MzU5NzAwMA"},"resourceType":"DiagnosticReport","result":[{"display":"Glucose","reference":"Observation/799c3c61-b933-4332-9cd7-a39d72da2889"},{"display":"Urea Nitrogen","reference":"Observation/589136e9-a409-47c5-922f-0b34c63fafd7"},{"display":"Creatinine","reference":"Observation/0358a357-e9bf-49c6-9989-5ff18ea11da4"},{"display":"Calcium","reference":"Observation/135049f3-6cb4-448b-a9bc-5b5708797b17"},{"display":"Sodium","reference":"Observation/ce816931-b8b7-4fd3-88e1-dec25410115e"},{"display":"Potassium","reference":"Observation/f39541c2-8489-491e-8637-b09699e80475"},{"display":"Chloride","reference":"Observation/0a8ce279-f6d0-41cd-b983-52625ed0369f"},{"display":"Carbon Dioxide","reference":"Observation/0464cbea-a740-4aa9-a5af-e4419adf958a"}],"status":"final","subject":{"reference":"Patient/00c8c9ed-65fe-4f9a-8e75-7d31ac64a04b"}}},{"resource":{"code":{"coding":[{"code":"51990-0","display":"Basic Metabolic Panel","system":"http://loinc.org"}],"text":"Basic Metabolic Panel"},"context":{"reference":"Encounter/fb1a4d20-00e4-4253-b72c-bb22cf7be316"},"effectiveDateTime":"2016-02-07T10:44:59-05:00","id":"c6239b95-c05d-425f-9bbf-4ee0eb9ca220","issued":"2016-02-07T10:44:59.853-05:00","meta":{"lastUpdated":"2019-04-09T09:57:48.709581+00:00","versionId":"MTU1NDgwMzg2ODcwOTU4MTAwMA"},"resourceType":"DiagnosticReport","result":[{"display":"Glucose","reference":"Observation/20db683c-3c01-496e-b4da-f8f5b10e0758"},{"display":"Urea Nitrogen","reference":"Observation/084f781e-ad6e-40fc-a3a8-429be09cb85f"},{"display":"Creatinine","reference":"Observation/2caa3c3e-cb20-4fa6-bc32-3f4a1ebe8c2f"},{"display":"Calcium","reference":"Observation/f65f1cd5-a682-4b52-a1c1-a11522a46205"},{"display":"Sodium","reference":"Observation/b05eb50f-29f8-4361-b8bd-048763d357a0"},{"display":"Potassium","reference":"Observation/210a39a3-dcc7-4d2e-bde1-15d91a6984a8"},{"display":"Chloride","reference":"Observation/33920d83-0b46-42af-b148-80ba2c01d278"},{"display":"Carbon Dioxide","reference":"Observation/4514295a-3cfe-49ce-9fcf-14cf5c397334"}],"status":"final","subject":{"reference":"Patient/00c8c9ed-65fe-4f9a-8e75-7d31ac64a04b"}}},{"resource":{"code":{"coding":[{"code":"57698-3","display":"Lipid Panel","system":"http://loinc.org"}],"text":"Lipid Panel"},"context":{"reference":"Encounter/103e675f-5a88-4825-9ebf-972cc9a98f1e"},"effectiveDateTime":"2011-05-08T11:44:59-04:00","id":"c6e649a1-ec96-4b08-ab68-01b5c8ab7c8f","issued":"2011-05-08T11:44:59.853-04:00","meta":{"lastUpdated":"2019-04-09T09:57:25.721227+00:00","versionId":"MTU1NDgwMzg0NTcyMTIyNzAwMA"},"resourceType":"DiagnosticReport","result":[{"display":"Total Cholesterol","reference":"Observation/56f26a89-6384-471c-8de6-501a6af04c35"},{"display":"Triglycerides","reference":"Observation/5833fa20-1107-43cb-b43d-810f1a274315"},{"display":"Low Density Lipoprotein Cholesterol","reference":"Observation/0e9008ee-8cd1-4832-9b4b-5d17106c5461"},{"display":"High Density Lipoprotein Cholesterol","reference":"Observation/7c605a08-5aeb-4bd0-a0b7-5e6d78fa4c85"}],"status":"final","subject":{"reference":"Patient/00c8c9ed-65fe-4f9a-8e75-7d31ac64a04b"}}},{"resource":{"code":{"coding":[{"code":"57698-3","display":"Lipid Panel","system":"http://loinc.org"}],"text":"Lipid Panel"},"context":{"reference":"Encounter/61e9c967-6adc-4fbf-8a2d-edd44c34e46e"},"effectiveDateTime":"2014-04-20T11:44:59-04:00","id":"c6ffa447-c0d0-43f5-abe2-3b36054de034","issued":"2014-04-20T11:44:59.853-04:00","meta":{"lastUpdated":"2019-04-09T09:57:38.064697+00:00","versionId":"MTU1NDgwMzg1ODA2NDY5NzAwMA"},"resourceType":"DiagnosticReport","result":[{"display":"Total Cholesterol","reference":"Observation/89f0f6c9-eb89-41b5-a362-03b9d902fa05"},{"display":"Triglycerides","reference":"Observation/84dc62d8-52ea-42cd-9480-896202d3f5de"},{"display":"Low Density Lipoprotein Cholesterol","reference":"Observation/b3559c5d-90fb-40ab-ad1d-8ad1d5818ef2"},{"display":"High Density Lipoprotein Cholesterol","reference":"Observation/2e4e0b67-75f1-4f69-945d-dead608d4476"}],"status":"final","subject":{"reference":"Patient/00c8c9ed-65fe-4f9a-8e75-7d31ac64a04b"}}},{"resource":{"code":{"coding":[{"code":"51990-0","display":"Basic Metabolic Panel","system":"http://loinc.org"}],"text":"Basic Metabolic Panel"},"context":{"reference":"Encounter/325f851d-867d-468b-bef4-ace59eac3d5a"},"effectiveDateTime":"2018-07-29T11:44:59-04:00","id":"c71ad196-44e2-4558-908a-c9ec0e82704d","issued":"2018-07-29T11:44:59.853-04:00","meta":{"lastUpdated":"2019-04-09T09:58:03.419802+00:00","versionId":"MTU1NDgwMzg4MzQxOTgwMjAwMA"},"resourceType":"DiagnosticReport","result":[{"display":"Glucose","reference":"Observation/4e134d67-3715-4206-8f53-cf3bf456e113"},{"display":"Urea Nitrogen","reference":"Observation/ccfbb55d-2abe-4c14-a844-6130a9637499"},{"display":"Creatinine","reference":"Observation/1881371a-1d9d-4a47-8cc7-2036926c7e9f"},{"display":"Calcium","reference":"Observation/e135d114-43cd-4dcd-a93a-f12283b3db55"},{"display":"Sodium","reference":"Observation/c436cf98-fd0a-459f-a725-9ad78e8111ee"},{"display":"Potassium","reference":"Observation/26a78a08-3030-498a-8bbc-41cd05bb83fd"},{"display":"Chloride","reference":"Observation/4d83a979-7b43-493b-8c3f-3e6da4e5e0d6"},{"display":"Carbon Dioxide","reference":"Observation/8d17f289-3c80-4c78-9f71-f89493291835"}],"status":"final","subject":{"reference":"Patient/00c8c9ed-65fe-4f9a-8e75-7d31ac64a04b"}}},{"resource":{"code":{"coding":[{"code":"51990-0","display":"Basic Metabolic Panel","system":"http://loinc.org"}],"text":"Basic Metabolic Panel"},"context":{"reference":"Encounter/507b957c-f569-46bc-b771-37e6334f90a8"},"effectiveDateTime":"2018-04-01T11:44:59-04:00","id":"c789ed73-78a9-48b8-99aa-300ea8ef086f","issued":"2018-04-01T11:44:59.853-04:00","meta":{"lastUpdated":"2019-04-09T09:58:02.372875+00:00","versionId":"MTU1NDgwMzg4MjM3Mjg3NTAwMA"},"resourceType":"DiagnosticReport","result":[{"display":"Glucose","reference":"Observation/a60ffaf9-1d4b-4743-8374-18bdb50c3d28"},{"display":"Urea Nitrogen","reference":"Observation/d861d97c-62fa-4be5-81a6-015f98661181"},{"display":"Creatinine","reference":"Observation/d1d6c4f9-da3b-4dbe-aaf1-b86d72363bb5"},{"display":"Calcium","reference":"Observation/067e9c8e-1483-4c43-a555-b39faa636803"},{"display":"Sodium","reference":"Observation/848c6ebb-25a9-4351-a075-7093f2bb056f"},{"display":"Potassium","reference":"Observation/641865e9-9e40-4833-8eea-8c647cb7dd51"},{"display":"Chloride","reference":"Observation/ff278d21-396c-4af6-aa8c-d7d62d547934"},{"display":"Carbon Dioxide","reference":"Observation/2a3a1c48-25ef-4877-a889-e6d46b2b59e5"}],"status":"final","subject":{"reference":"Patient/00c8c9ed-65fe-4f9a-8e75-7d31ac64a04b"}}},{"resource":{"code":{"coding":[{"code":"51990-0","display":"Basic Metabolic Panel","system":"http://loinc.org"}],"text":"Basic Metabolic Panel"},"context":{"reference":"Encounter/daf8f6d9-4c78-4657-ad76-2ac189379168"},"effectiveDateTime":"2018-09-23T11:44:59-04:00","id":"c9dd0dc3-cc10-488f-8d44-73db1446d554","issued":"2018-09-23T11:44:59.853-04:00","meta":{"lastUpdated":"2019-04-09T09:58:05.523706+00:00","versionId":"MTU1NDgwMzg4NTUyMzcwNjAwMA"},"resourceType":"DiagnosticReport","result":[{"display":"Glucose","reference":"Observation/b7e61341-6ce6-4e50-80e1-1a42ded2bb3a"},{"display":"Urea Nitrogen","reference":"Observation/eea448a9-aba9-468e-9408-bd9ff0fcd4fc"},{"display":"Creatinine","reference":"Observation/0293bc77-60df-4c06-b1cf-bea937728134"},{"display":"Calcium","reference":"Observation/3073f54c-6ddd-437d-84eb-27eeeb10a735"},{"display":"Sodium","reference":"Observation/2bd7cb66-d322-4781-8658-eb3766b9cd39"},{"display":"Potassium","reference":"Observation/c1fc46f8-24c8-48ca-975d-bd47df28cfc3"},{"display":"Chloride","reference":"Observation/7a5b4e04-c86d-487f-9736-5479513db39d"},{"display":"Carbon Dioxide","reference":"Observation/7328a43f-bf5e-4d77-b1ea-6c384c7fcf37"}],"status":"final","subject":{"reference":"Patient/00c8c9ed-65fe-4f9a-8e75-7d31ac64a04b"}}},{"resource":{"code":{"coding":[{"code":"57698-3","display":"Lipid Panel","system":"http://loinc.org"}],"text":"Lipid Panel"},"context":{"reference":"Encounter/a07eb3e2-489b-4928-ae93-3047d118851b"},"effectiveDateTime":"2014-03-16T11:44:59-04:00","id":"ca47da3f-72d7-4a04-9113-6f725421c183","issued":"2014-03-16T11:44:59.853-04:00","meta":{"lastUpdated":"2019-04-09T09:57:38.075160+00:00","versionId":"MTU1NDgwMzg1ODA3NTE2MDAwMA"},"resourceType":"DiagnosticReport","result":[{"display":"Total Cholesterol","reference":"Observation/3442af5e-5add-4ae1-906d-9a88fdfe56c2"},{"display":"Triglycerides","reference":"Observation/8d08179a-cc1d-4557-9830-b66916883b69"},{"display":"Low Density Lipoprotein Cholesterol","reference":"Observation/dabe6a73-27e4-473b-a881-a35bdafe4ed4"},{"display":"High Density Lipoprotein Cholesterol","reference":"Observation/7e4e89c5-b848-4014-8d6e-4cb410fc8e09"}],"status":"final","subject":{"reference":"Patient/00c8c9ed-65fe-4f9a-8e75-7d31ac64a04b"}}},{"resource":{"code":{"coding":[{"code":"57698-3","display":"Lipid Panel","system":"http://loinc.org"}],"text":"Lipid Panel"},"context":{"reference":"Encounter/470d8359-367d-4286-a62a-0258ec500221"},"effectiveDateTime":"2013-06-16T11:44:59-04:00","id":"ce3df3da-e9a9-4273-8057-d7382149e659","issued":"2013-06-16T11:44:59.853-04:00","meta":{"lastUpdated":"2019-04-09T09:57:32.905363+00:00","versionId":"MTU1NDgwMzg1MjkwNTM2MzAwMA"},"resourceType":"DiagnosticReport","result":[{"display":"Total Cholesterol","reference":"Observation/8e94c3e5-33ca-4fbf-935b-68be547c78ff"},{"display":"Triglycerides","reference":"Observation/a8d7c552-9fce-45d0-90ab-764712a534bd"},{"display":"Low Density Lipoprotein Cholesterol","reference":"Observation/2e72b3f2-8ea1-4305-ac32-39e603311411"},{"display":"High Density Lipoprotein Cholesterol","reference":"Observation/59aea0f9-5048-4caf-abdd-0d9fc2c576b3"}],"status":"final","subject":{"reference":"Patient/00c8c9ed-65fe-4f9a-8e75-7d31ac64a04b"}}},{"resource":{"code":{"coding":[{"code":"51990-0","display":"Basic Metabolic Panel","system":"http://loinc.org"}],"text":"Basic Metabolic Panel"},"context":{"reference":"Encounter/aab12746-91ef-4e4c-871d-ad6e33970676"},"effectiveDateTime":"2009-06-07T11:44:59-04:00","id":"d02439d0-1ee7-4e65-b522-6011df62595a","issued":"2009-06-07T11:44:59.853-04:00","meta":{"lastUpdated":"2019-04-09T09:57:13.366493+00:00","versionId":"MTU1NDgwMzgzMzM2NjQ5MzAwMA"},"resourceType":"DiagnosticReport","result":[{"display":"Glucose","reference":"Observation/879e9ce4-605a-4822-9da9-0b2ba3cf1719"},{"display":"Urea Nitrogen","reference":"Observation/3d62920d-95a2-483f-8cb1-dc3e4baff602"},{"display":"Creatinine","reference":"Observation/e6e1820d-e34f-4c3b-b731-caaedae140e5"},{"display":"Calcium","reference":"Observation/83343b95-de84-41e1-9059-7149c649f708"},{"display":"Sodium","reference":"Observation/54ac5e1e-8b6d-4897-bdf5-208ac96abd42"},{"display":"Potassium","reference":"Observation/80a36767-681f-4511-8abe-30e0e2bd872c"},{"display":"Chloride","reference":"Observation/6df5f481-ab30-4f22-ac0d-75073f9a93c9"},{"display":"Carbon Dioxide","reference":"Observation/8b48a102-c669-410c-bc9d-8d3bcd7b1382"}],"status":"final","subject":{"reference":"Patient/00c8c9ed-65fe-4f9a-8e75-7d31ac64a04b"}}},{"resource":{"code":{"coding":[{"code":"51990-0","display":"Basic Metabolic Panel","system":"http://loinc.org"}],"text":"Basic Metabolic Panel"},"context":{"reference":"Encounter/81b946a0-ed66-441c-b386-3a2b01022ac1"},"effectiveDateTime":"2018-08-19T11:44:59-04:00","id":"d0267f60-d7dc-426d-94b9-de986482861e","issued":"2018-08-19T11:44:59.853-04:00","meta":{"lastUpdated":"2019-04-09T09:58:04.452092+00:00","versionId":"MTU1NDgwMzg4NDQ1MjA5MjAwMA"},"resourceType":"DiagnosticReport","result":[{"display":"Glucose","reference":"Observation/0c906fd0-2f00-4bd5-b08e-257352a6be0d"},{"display":"Urea Nitrogen","reference":"Observation/3feb2b1d-978c-4930-92a1-e50aa8e90349"},{"display":"Creatinine","reference":"Observation/7ccf7d0a-e26f-49ff-8431-c4f6a10af81f"},{"display":"Calcium","reference":"Observation/70215814-542e-44a2-a0f1-44a83dbc7fc2"},{"display":"Sodium","reference":"Observation/d6058f3c-eed5-4bb5-8ca5-6c8fa5aa0995"},{"display":"Potassium","reference":"Observation/a506f674-9d84-49ae-b83b-4f01366d6587"},{"display":"Chloride","reference":"Observation/02fb3923-112b-48d7-85b4-99f68fc86b75"},{"display":"Carbon Dioxide","reference":"Observation/8d634b71-58b5-48f0-8a90-a43c6b7f45a1"}],"status":"final","subject":{"reference":"Patient/00c8c9ed-65fe-4f9a-8e75-7d31ac64a04b"}}},{"resource":{"code":{"coding":[{"code":"51990-0","display":"Basic Metabolic Panel","system":"http://loinc.org"}],"text":"Basic Metabolic Panel"},"context":{"reference":"Encounter/30a12be0-8366-401c-8de9-eceed9771238"},"effectiveDateTime":"2009-07-12T11:44:59-04:00","id":"d0569b04-b8a8-4d3f-a790-a1c206700fb7","issued":"2009-07-12T11:44:59.853-04:00","meta":{"lastUpdated":"2019-04-09T09:57:14.404317+00:00","versionId":"MTU1NDgwMzgzNDQwNDMxNzAwMA"},"resourceType":"DiagnosticReport","result":[{"display":"Glucose","reference":"Observation/6eda1af7-cbfb-4147-924f-4d47c5038905"},{"display":"Urea Nitrogen","reference":"Observation/f8d86cc5-96b7-4521-92f1-297a16bb29b0"},{"display":"Creatinine","reference":"Observation/af8f3397-cb41-4db6-88c5-2d7b29aa69a3"},{"display":"Calcium","reference":"Observation/a8a6060f-6121-41ff-bd69-992a545a1195"},{"display":"Sodium","reference":"Observation/8dd3b47f-2b3c-491f-bd72-cf510441bdba"},{"display":"Potassium","reference":"Observation/a0dc37b3-65a8-42e8-915b-7e823776c748"},{"display":"Chloride","reference":"Observation/9864c227-96eb-4ccd-95f8-4367177b25ca"},{"display":"Carbon Dioxide","reference":"Observation/e4321897-1ea2-46fd-8355-180bef5c9ddc"}],"status":"final","subject":{"reference":"Patient/00c8c9ed-65fe-4f9a-8e75-7d31ac64a04b"}}},{"resource":{"code":{"coding":[{"code":"57698-3","display":"Lipid Panel","system":"http://loinc.org"}],"text":"Lipid Panel"},"context":{"reference":"Encounter/30a12be0-8366-401c-8de9-eceed9771238"},"effectiveDateTime":"2009-07-12T11:44:59-04:00","id":"d16850a6-8114-4b7d-960e-fab295b5b382","issued":"2009-07-12T11:44:59.853-04:00","meta":{"lastUpdated":"2019-04-09T09:57:14.406504+00:00","versionId":"MTU1NDgwMzgzNDQwNjUwNDAwMA"},"resourceType":"DiagnosticReport","result":[{"display":"Total Cholesterol","reference":"Observation/e4c67fa2-3c76-46b9-bfe1-636cb10bd037"},{"display":"Triglycerides","reference":"Observation/6016bf89-64d3-4a3b-8f9e-4d51d2f01fcb"},{"display":"Low Density Lipoprotein Cholesterol","reference":"Observation/b22b646f-d741-49fb-8a79-a0d73c489577"},{"display":"High Density Lipoprotein Cholesterol","reference":"Observation/bd2256ae-0699-453b-a0fd-8734718d069e"}],"status":"final","subject":{"reference":"Patient/00c8c9ed-65fe-4f9a-8e75-7d31ac64a04b"}}},{"resource":{"code":{"coding":[{"code":"57698-3","display":"Lipid Panel","system":"http://loinc.org"}],"text":"Lipid Panel"},"context":{"reference":"Encounter/cd3cba46-f486-4d32-9b45-317eb44b927f"},"effectiveDateTime":"2013-08-10T11:44:59-04:00","id":"d4284669-187a-4a9c-999f-88147da692a5","issued":"2013-08-10T11:44:59.853-04:00","meta":{"lastUpdated":"2019-04-09T09:57:33.950282+00:00","versionId":"MTU1NDgwMzg1Mzk1MDI4MjAwMA"},"resourceType":"DiagnosticReport","result":[{"display":"Total Cholesterol","reference":"Observation/ab8fa0d8-2b7d-430f-81d7-bb600263129c"},{"display":"Triglycerides","reference":"Observation/f0c00c1a-e69a-4a8e-aa6b-3082b26856db"},{"display":"Low Density Lipoprotein Cholesterol","reference":"Observation/aec2530b-4c68-4d2c-953b-38774c97122c"},{"display":"High Density Lipoprotein Cholesterol","reference":"Observation/70687d5b-f9a5-4faf-861b-cbc214c274ee"}],"status":"final","subject":{"reference":"Patient/00c8c9ed-65fe-4f9a-8e75-7d31ac64a04b"}}},{"resource":{"code":{"coding":[{"code":"51990-0","display":"Basic Metabolic Panel","system":"http://loinc.org"}],"text":"Basic Metabolic Panel"},"context":{"reference":"Encounter/ca951e95-2560-427c-a867-b0172d854bba"},"effectiveDateTime":"2010-01-03T10:44:59-05:00","id":"d58d29fd-5feb-4e10-94e6-2fb53d7fe21a","issued":"2010-01-03T10:44:59.853-05:00","meta":{"lastUpdated":"2019-04-09T09:57:17.747376+00:00","versionId":"MTU1NDgwMzgzNzc0NzM3NjAwMA"},"resourceType":"DiagnosticReport","result":[{"display":"Glucose","reference":"Observation/6f69c06b-47df-47ae-a247-d1c8a3c1e913"},{"display":"Urea Nitrogen","reference":"Observation/bdc5c3fb-08f1-4cd9-8daf-d8dcff0d1354"},{"display":"Creatinine","reference":"Observation/8d4178b3-7254-46a1-88ad-c1dcbfa76494"},{"display":"Calcium","reference":"Observation/b98bb901-e87d-4526-b78f-80f364a63658"},{"display":"Sodium","reference":"Observation/3e406193-f961-42dc-b13e-7335fa4bd366"},{"display":"Potassium","reference":"Observation/71851997-2b0d-4b43-b84d-1399a89feef3"},{"display":"Chloride","reference":"Observation/fe830d7b-7271-45ad-93b7-2b94f8a9dc31"},{"display":"Carbon Dioxide","reference":"Observation/efa97690-caca-46cd-ab19-9cc9da89fdf8"}],"status":"final","subject":{"reference":"Patient/00c8c9ed-65fe-4f9a-8e75-7d31ac64a04b"}}},{"resource":{"code":{"coding":[{"code":"57698-3","display":"Lipid Panel","system":"http://loinc.org"}],"text":"Lipid Panel"},"context":{"reference":"Encounter/507b957c-f569-46bc-b771-37e6334f90a8"},"effectiveDateTime":"2018-04-01T11:44:59-04:00","id":"d8ca9b57-03dc-40bb-9110-a38de598cbbf","issued":"2018-04-01T11:44:59.853-04:00","meta":{"lastUpdated":"2019-04-09T09:58:02.382423+00:00","versionId":"MTU1NDgwMzg4MjM4MjQyMzAwMA"},"resourceType":"DiagnosticReport","result":[{"display":"Total Cholesterol","reference":"Observation/36b41004-03f7-408b-858f-393ef561724e"},{"display":"Triglycerides","reference":"Observation/18755167-53cf-4765-b9a5-7bae84a903d3"},{"display":"Low Density Lipoprotein Cholesterol","reference":"Observation/d1d22a48-9ab5-43b4-9a40-c569e9f6048c"},{"display":"High Density Lipoprotein Cholesterol","reference":"Observation/71658bff-5385-4dc2-8bc9-014c4f844d4c"}],"status":"final","subject":{"reference":"Patient/00c8c9ed-65fe-4f9a-8e75-7d31ac64a04b"}}},{"resource":{"code":{"coding":[{"code":"57698-3","display":"Lipid Panel","system":"http://loinc.org"}],"text":"Lipid Panel"},"context":{"reference":"Encounter/1cbf3237-0aa5-418f-88c7-ea9b8285293b"},"effectiveDateTime":"2009-04-19T11:44:59-04:00","id":"d9869e40-7811-4ed7-a1c7-52a9649f712d","issued":"2009-04-19T11:44:59.853-04:00","meta":{"lastUpdated":"2019-04-09T09:57:12.402915+00:00","versionId":"MTU1NDgwMzgzMjQwMjkxNTAwMA"},"resourceType":"DiagnosticReport","result":[{"display":"Total Cholesterol","reference":"Observation/69722971-1358-448d-aee4-994dd6212c4b"},{"display":"Triglycerides","reference":"Observation/4ba2d3b1-36fc-4043-9927-39046be078dc"},{"display":"Low Density Lipoprotein Cholesterol","reference":"Observation/ed832128-0358-4e24-8f49-41f25177277e"},{"display":"High Density Lipoprotein Cholesterol","reference":"Observation/c1776c62-c16f-409e-8544-f07a43b4519f"}],"status":"final","subject":{"reference":"Patient/00c8c9ed-65fe-4f9a-8e75-7d31ac64a04b"}}},{"resource":{"code":{"coding":[{"code":"51990-0","display":"Basic Metabolic Panel","system":"http://loinc.org"}],"text":"Basic Metabolic Panel"},"context":{"reference":"Encounter/f3d97342-a817-49bc-9578-e38a0da06edb"},"effectiveDateTime":"2010-08-01T11:44:59-04:00","id":"dbeb61cf-2cbc-4187-b1b4-5afad3994d5d","issued":"2010-08-01T11:44:59.853-04:00","meta":{"lastUpdated":"2019-04-09T09:57:20.923987+00:00","versionId":"MTU1NDgwMzg0MDkyMzk4NzAwMA"},"resourceType":"DiagnosticReport","result":[{"display":"Glucose","reference":"Observation/dcc29a6f-1a56-4012-8a0f-699316175f5f"},{"display":"Urea Nitrogen","reference":"Observation/b2e8de64-19cc-476c-9e29-fcb3dd06ccd5"},{"display":"Creatinine","reference":"Observation/6b9891fb-01f4-4a77-b38f-f2b8243a6d7b"},{"display":"Calcium","reference":"Observation/91a12394-9df6-4d23-ba47-1e6f2139d9b6"},{"display":"Sodium","reference":"Observation/c71eb33b-f912-42cf-94f5-633161c48fb8"},{"display":"Potassium","reference":"Observation/4a4b3013-b7de-46bb-907e-3f4ca6ef9957"},{"display":"Chloride","reference":"Observation/1b8287b1-c2bb-4a41-80b4-492fe705b15d"},{"display":"Carbon Dioxide","reference":"Observation/83f24f7d-2f32-4d0a-a54f-524b273abfdb"}],"status":"final","subject":{"reference":"Patient/00c8c9ed-65fe-4f9a-8e75-7d31ac64a04b"}}},{"resource":{"code":{"coding":[{"code":"51990-0","display":"Basic Metabolic Panel","system":"http://loinc.org"}],"text":"Basic Metabolic Panel"},"context":{"reference":"Encounter/49f85215-2ce2-4869-b241-e6a07428b424"},"effectiveDateTime":"2013-10-13T11:44:59-04:00","id":"dbf94245-e7eb-44ff-9b56-76d18392025b","issued":"2013-10-13T11:44:59.853-04:00","meta":{"lastUpdated":"2019-04-09T09:57:34.947975+00:00","versionId":"MTU1NDgwMzg1NDk0Nzk3NTAwMA"},"resourceType":"DiagnosticReport","result":[{"display":"Glucose","reference":"Observation/c9c54072-2b1f-47d5-a012-9079dbd0e614"},{"display":"Urea Nitrogen","reference":"Observation/627e5c86-b3ae-4806-bc63-d6344bf816be"},{"display":"Creatinine","reference":"Observation/7db80e11-0b22-45e9-9ff8-2d9f924d0305"},{"display":"Calcium","reference":"Observation/423f89de-ad52-466c-96f6-7aacc386ee94"},{"display":"Sodium","reference":"Observation/117dd79f-a9b9-4686-b187-b973ffb76cf2"},{"display":"Potassium","reference":"Observation/0180c49c-4686-4186-9fcb-ccc52ae77db8"},{"display":"Chloride","reference":"Observation/c3562b25-ea7f-4f7c-91e3-0f64d670c441"},{"display":"Carbon Dioxide","reference":"Observation/2ae5ea82-15bd-4262-bcb4-6799d9040099"}],"status":"final","subject":{"reference":"Patient/00c8c9ed-65fe-4f9a-8e75-7d31ac64a04b"}}},{"resource":{"code":{"coding":[{"code":"57698-3","display":"Lipid Panel","system":"http://loinc.org"}],"text":"Lipid Panel"},"context":{"reference":"Encounter/ec8f4011-99cc-4bb7-a419-eda9b495b179"},"effectiveDateTime":"2011-01-02T10:44:59-05:00","id":"de01ad22-2aba-402a-9dab-432634ff94b9","issued":"2011-01-02T10:44:59.853-05:00","meta":{"lastUpdated":"2019-04-09T09:57:23.743914+00:00","versionId":"MTU1NDgwMzg0Mzc0MzkxNDAwMA"},"resourceType":"DiagnosticReport","result":[{"display":"Total Cholesterol","reference":"Observation/ecb20561-94c5-44c5-bffa-f8e87c87aa9f"},{"display":"Triglycerides","reference":"Observation/5d07aadb-5da1-44cc-93fa-68d91f8d740c"},{"display":"Low Density Lipoprotein Cholesterol","reference":"Observation/d3f8f5d8-53f8-4a86-9695-fb77d39b19c5"},{"display":"High Density Lipoprotein Cholesterol","reference":"Observation/a6831c74-dd15-4db6-8be2-90849028b75f"}],"status":"final","subject":{"reference":"Patient/00c8c9ed-65fe-4f9a-8e75-7d31ac64a04b"}}},{"resource":{"code":{"coding":[{"code":"51990-0","display":"Basic Metabolic Panel","system":"http://loinc.org"}],"text":"Basic Metabolic Panel"},"context":{"reference":"Encounter/f7f9f3cc-943b-4683-bbf7-2dcd93675dd1"},"effectiveDateTime":"2012-01-01T10:44:59-05:00","id":"df845f76-4d34-4300-8cb0-3321102ec466","issued":"2012-01-01T10:44:59.853-05:00","meta":{"lastUpdated":"2019-04-09T09:57:29.056582+00:00","versionId":"MTU1NDgwMzg0OTA1NjU4MjAwMA"},"resourceType":"DiagnosticReport","result":[{"display":"Glucose","reference":"Observation/049e52e1-59dd-48c8-9223-e4f2100d7564"},{"display":"Urea Nitrogen","reference":"Observation/8d780a57-2607-4dde-a9b3-68326c27e474"},{"display":"Creatinine","reference":"Observation/9c76a19a-d5d7-491e-b97d-b0c5ed51da1a"},{"display":"Calcium","reference":"Observation/0940ae55-64d9-4a24-bb2d-78838f9ffcd8"},{"display":"Sodium","reference":"Observation/2762cd1b-b7ed-4724-b14e-02baa97371ec"},{"display":"Potassium","reference":"Observation/05b66d58-3d30-4e73-8797-b7d4131691fe"},{"display":"Chloride","reference":"Observation/90564596-e48a-4fcb-8a99-a0b886df4cb8"},{"display":"Carbon Dioxide","reference":"Observation/8fe18ba7-db30-4cf7-9d2c-7abb229e8068"}],"status":"final","subject":{"reference":"Patient/00c8c9ed-65fe-4f9a-8e75-7d31ac64a04b"}}},{"resource":{"code":{"coding":[{"code":"57698-3","display":"Lipid Panel","system":"http://loinc.org"}],"text":"Lipid Panel"},"context":{"reference":"Encounter/4d7e2eb5-cac0-4c41-9288-ee9beb8e2d2b"},"effectiveDateTime":"2010-01-31T10:44:59-05:00","id":"e093bb7d-5b2f-4926-bbfe-97d7f7e8894a","issued":"2010-01-31T10:44:59.853-05:00","meta":{"lastUpdated":"2019-04-09T09:57:17.751793+00:00","versionId":"MTU1NDgwMzgzNzc1MTc5MzAwMA"},"resourceType":"DiagnosticReport","result":[{"display":"Total Cholesterol","reference":"Observation/f09aa550-b848-4090-864b-22d1f0617a6a"},{"display":"Triglycerides","reference":"Observation/c41dee9b-4c5e-44cb-a08e-e84749b319f1"},{"display":"Low Density Lipoprotein Cholesterol","reference":"Observation/c49f7510-62e0-4ddf-9f1a-fabd2e3ae041"},{"display":"High Density Lipoprotein Cholesterol","reference":"Observation/8da63790-ff07-4c6d-b43d-57f5fe8ae931"}],"status":"final","subject":{"reference":"Patient/00c8c9ed-65fe-4f9a-8e75-7d31ac64a04b"}}},{"resource":{"code":{"coding":[{"code":"51990-0","display":"Basic Metabolic Panel","system":"http://loinc.org"}],"text":"Basic Metabolic Panel"},"context":{"reference":"Encounter/3e50c6b7-ea17-44f1-bd7a-0717ff67b6d5"},"effectiveDateTime":"2010-08-29T11:44:59-04:00","id":"e363ccdd-00b4-4f64-951a-496bf6f1ee06","issued":"2010-08-29T11:44:59.853-04:00","meta":{"lastUpdated":"2019-04-09T09:57:22.689333+00:00","versionId":"MTU1NDgwMzg0MjY4OTMzMzAwMA"},"resourceType":"DiagnosticReport","result":[{"display":"Glucose","reference":"Observation/e70bfcab-56cf-4002-8473-0fd8b0548346"},{"display":"Urea Nitrogen","reference":"Observation/47f217e0-f67e-420d-b1be-90d948c53398"},{"display":"Creatinine","reference":"Observation/a4fee1e2-4de8-4af9-b8f9-4b0098abbf6d"},{"display":"Calcium","reference":"Observation/87fa5c59-bc99-42c7-b6d9-ff7006b32204"},{"display":"Sodium","reference":"Observation/7bad46b2-6b11-489e-bf42-e7f156478f28"},{"display":"Potassium","reference":"Observation/6495f1f6-b927-4a5c-943e-5c1fcb3f0180"},{"display":"Chloride","reference":"Observation/6a29d9a0-eac6-49a6-855f-ad6b1de7d9e1"},{"display":"Carbon Dioxide","reference":"Observation/ac1d5acf-3225-4e47-8401-3632c5f5df19"}],"status":"final","subject":{"reference":"Patient/00c8c9ed-65fe-4f9a-8e75-7d31ac64a04b"}}},{"resource":{"code":{"coding":[{"code":"57698-3","display":"Lipid Panel","system":"http://loinc.org"}],"text":"Lipid Panel"},"context":{"reference":"Encounter/10ed80e2-476d-4ccc-950c-9d1674e60375"},"effectiveDateTime":"2011-08-07T11:44:59-04:00","id":"e3c7720a-bfa1-4520-8af6-ddbf6947502e","issued":"2011-08-07T11:44:59.853-04:00","meta":{"lastUpdated":"2019-04-09T09:57:26.736831+00:00","versionId":"MTU1NDgwMzg0NjczNjgzMTAwMA"},"resourceType":"DiagnosticReport","result":[{"display":"Total Cholesterol","reference":"Observation/bf4b36c3-e8be-497d-bbbb-52e8e7c49363"},{"display":"Triglycerides","reference":"Observation/98e91a69-9d28-401f-938f-c8779af5036f"},{"display":"Low Density Lipoprotein Cholesterol","reference":"Observation/2cef3589-77c0-452b-8e4d-589d00540255"},{"display":"High Density Lipoprotein Cholesterol","reference":"Observation/82504717-24eb-4fb8-87a2-a40b67293f5f"}],"status":"final","subject":{"reference":"Patient/00c8c9ed-65fe-4f9a-8e75-7d31ac64a04b"}}},{"resource":{"code":{"coding":[{"code":"57698-3","display":"Lipid Panel","system":"http://loinc.org"}],"text":"Lipid Panel"},"context":{"reference":"Encounter/f7f9f3cc-943b-4683-bbf7-2dcd93675dd1"},"effectiveDateTime":"2012-01-01T10:44:59-05:00","id":"e587f1f2-fc00-4dc7-9d30-9d6b99103f89","issued":"2012-01-01T10:44:59.853-05:00","meta":{"lastUpdated":"2019-04-09T09:57:29.054405+00:00","versionId":"MTU1NDgwMzg0OTA1NDQwNTAwMA"},"resourceType":"DiagnosticReport","result":[{"display":"Total Cholesterol","reference":"Observation/6eca0ab2-296a-4a1d-aedf-f0d3fb8a88e1"},{"display":"Triglycerides","reference":"Observation/c704ae92-6315-412d-98d5-cc1e75966a65"},{"display":"Low Density Lipoprotein Cholesterol","reference":"Observation/01c1cd0f-4db0-4776-9762-83699c6722d5"},{"display":"High Density Lipoprotein Cholesterol","reference":"Observation/eb0ba89e-b7ea-4931-aee1-21f3c1bb8dac"}],"status":"final","subject":{"reference":"Patient/00c8c9ed-65fe-4f9a-8e75-7d31ac64a04b"}}},{"resource":{"code":{"coding":[{"code":"51990-0","display":"Basic Metabolic Panel","system":"http://loinc.org"}],"text":"Basic Metabolic Panel"},"context":{"reference":"Encounter/1d7d99e8-5d15-4e22-b1f5-aca89b8933e1"},"effectiveDateTime":"2015-04-12T11:44:59-04:00","id":"e6250113-1e9d-4a7d-83ea-11eeff684bd5","issued":"2015-04-12T11:44:59.853-04:00","meta":{"lastUpdated":"2019-04-09T09:57:42.314203+00:00","versionId":"MTU1NDgwMzg2MjMxNDIwMzAwMA"},"resourceType":"DiagnosticReport","result":[{"display":"Glucose","reference":"Observation/699dafe9-2529-40c6-b687-a4383c6a7bc4"},{"display":"Urea Nitrogen","reference":"Observation/b3140e05-b103-4cd8-a290-d9b1b4fd53e8"},{"display":"Creatinine","reference":"Observation/cff934e3-1d52-4ab9-9459-892e651849b8"},{"display":"Calcium","reference":"Observation/c4a551d2-c257-4c19-b116-7ba54f44ddd1"},{"display":"Sodium","reference":"Observation/059a529b-cd3c-47f4-ae7e-0e334355b6bc"},{"display":"Potassium","reference":"Observation/7b80f5ea-e65b-47dc-8950-616dcfe9c200"},{"display":"Chloride","reference":"Observation/22afb215-047e-4296-93f9-fd4e411fd0ac"},{"display":"Carbon Dioxide","reference":"Observation/af5fc880-fab9-478e-aba8-36f2afffe54f"}],"status":"final","subject":{"reference":"Patient/00c8c9ed-65fe-4f9a-8e75-7d31ac64a04b"}}},{"resource":{"code":{"coding":[{"code":"51990-0","display":"Basic Metabolic Panel","system":"http://loinc.org"}],"text":"Basic Metabolic Panel"},"context":{"reference":"Encounter/dc12ebf1-9c9e-4bda-a89b-2f4d9dc2be2c"},"effectiveDateTime":"2009-03-15T11:44:59-04:00","id":"e83a3185-750a-4fa1-8390-6bc396433dcc","issued":"2009-03-15T11:44:59.853-04:00","meta":{"lastUpdated":"2019-04-09T09:57:12.396247+00:00","versionId":"MTU1NDgwMzgzMjM5NjI0NzAwMA"},"resourceType":"DiagnosticReport","result":[{"display":"Glucose","reference":"Observation/e833d9b3-efa8-4e03-8cba-525755aa9953"},{"display":"Urea Nitrogen","reference":"Observation/16ce861d-0bce-42b6-a260-902cb7c8f1c3"},{"display":"Creatinine","reference":"Observation/59543fb3-17f4-4832-8e50-b9cc287a1cd2"},{"display":"Calcium","reference":"Observation/de52d9ad-990a-466a-b590-26530e9dc614"},{"display":"Sodium","reference":"Observation/04ef1d83-81b6-47b2-aa85-c84f1d839b72"},{"display":"Potassium","reference":"Observation/c032adf6-36cf-4f9e-b403-5b439921400c"},{"display":"Chloride","reference":"Observation/c492f377-bcbd-45bb-a89b-4c020456ca2d"},{"display":"Carbon Dioxide","reference":"Observation/dfc1a566-488e-4165-9dc0-0cc6f7493c3f"}],"status":"final","subject":{"reference":"Patient/00c8c9ed-65fe-4f9a-8e75-7d31ac64a04b"}}},{"resource":{"code":{"coding":[{"code":"57698-3","display":"Lipid Panel","system":"http://loinc.org"}],"text":"Lipid Panel"},"context":{"reference":"Encounter/daf8f6d9-4c78-4657-ad76-2ac189379168"},"effectiveDateTime":"2018-09-23T11:44:59-04:00","id":"ebfaf310-df73-4136-9a79-ba41a34588c2","issued":"2018-09-23T11:44:59.853-04:00","meta":{"lastUpdated":"2019-04-09T09:58:05.534858+00:00","versionId":"MTU1NDgwMzg4NTUzNDg1ODAwMA"},"resourceType":"DiagnosticReport","result":[{"display":"Total Cholesterol","reference":"Observation/07f7e47a-6278-49ff-9cc3-541bdd6c71a6"},{"display":"Triglycerides","reference":"Observation/ca72b54a-6244-4952-9e64-54e0fc8f02fa"},{"display":"Low Density Lipoprotein Cholesterol","reference":"Observation/4c438b3e-ac70-4ca6-8717-bb0948e4df34"},{"display":"High Density Lipoprotein Cholesterol","reference":"Observation/564fa6ba-7d44-4eda-9537-969dec7985cf"}],"status":"final","subject":{"reference":"Patient/00c8c9ed-65fe-4f9a-8e75-7d31ac64a04b"}}},{"resource":{"code":{"coding":[{"code":"57698-3","display":"Lipid Panel","system":"http://loinc.org"}],"text":"Lipid Panel"},"context":{"reference":"Encounter/75ee3dd6-c1f2-4a02-bf1c-41b2e51438cf"},"effectiveDateTime":"2009-11-08T10:44:59-05:00","id":"ec44dfc0-faf1-4c4a-b6dd-a0985abe6b54","issued":"2009-11-08T10:44:59.853-05:00","meta":{"lastUpdated":"2019-04-09T09:57:16.546486+00:00","versionId":"MTU1NDgwMzgzNjU0NjQ4NjAwMA"},"resourceType":"DiagnosticReport","result":[{"display":"Total Cholesterol","reference":"Observation/338789cb-0a35-45fe-adc9-bdc96898f97a"},{"display":"Triglycerides","reference":"Observation/97920bd2-baee-40a5-96d8-2cd122b28f15"},{"display":"Low Density Lipoprotein Cholesterol","reference":"Observation/a2a86fb2-6634-4178-a344-ed62e2a72d19"},{"display":"High Density Lipoprotein Cholesterol","reference":"Observation/4feb93a5-3dae-4047-8c5d-57c353138a1f"}],"status":"final","subject":{"reference":"Patient/00c8c9ed-65fe-4f9a-8e75-7d31ac64a04b"}}},{"resource":{"code":{"coding":[{"code":"57698-3","display":"Lipid Panel","system":"http://loinc.org"}],"text":"Lipid Panel"},"context":{"reference":"Encounter/2fa41261-13c4-42b4-9aed-48a648633a9c"},"effectiveDateTime":"2010-08-11T11:44:59-04:00","id":"eca2b4af-eb1f-4879-be01-49c35b7b8fc9","issued":"2010-08-11T11:44:59.853-04:00","meta":{"lastUpdated":"2019-04-09T09:57:21.693125+00:00","versionId":"MTU1NDgwMzg0MTY5MzEyNTAwMA"},"resourceType":"DiagnosticReport","result":[{"display":"Total Cholesterol","reference":"Observation/e6fcdf14-5bf0-4153-808e-511296d7b493"},{"display":"Triglycerides","reference":"Observation/53d1c0e8-f479-42c4-a66d-fa9e9458b372"},{"display":"Low Density Lipoprotein Cholesterol","reference":"Observation/7fb7f19a-8a49-4e42-8c90-21634e020dc9"},{"display":"High Density Lipoprotein Cholesterol","reference":"Observation/e33be12a-fee6-41b7-912a-8fdfc5b4d7d5"}],"status":"final","subject":{"reference":"Patient/00c8c9ed-65fe-4f9a-8e75-7d31ac64a04b"}}},{"resource":{"code":{"coding":[{"code":"51990-0","display":"Basic Metabolic Panel","system":"http://loinc.org"}],"text":"Basic Metabolic Panel"},"context":{"reference":"Encounter/bedcae49-1dbc-4f46-bd7e-6fd42fd2a362"},"effectiveDateTime":"2011-10-30T11:44:59-04:00","id":"ef28f0e3-cdf0-48db-a929-0e49d131568f","issued":"2011-10-30T11:44:59.853-04:00","meta":{"lastUpdated":"2019-04-09T09:57:28.299770+00:00","versionId":"MTU1NDgwMzg0ODI5OTc3MDAwMA"},"resourceType":"DiagnosticReport","result":[{"display":"Glucose","reference":"Observation/42166a55-4c93-465a-bd4f-8b5aa4686821"},{"display":"Urea Nitrogen","reference":"Observation/57d52ca8-06e9-4f66-89da-4901d4cd6374"},{"display":"Creatinine","reference":"Observation/934e3b0b-401a-441c-bfa4-010fd57222bb"},{"display":"Calcium","reference":"Observation/4204c23d-33ed-4cec-9056-6bc93d0afc80"},{"display":"Sodium","reference":"Observation/e1579086-fb4b-423d-a9b4-ddb4e5e2f338"},{"display":"Potassium","reference":"Observation/62719b4d-64ad-467d-b311-f3f4129ca3d9"},{"display":"Chloride","reference":"Observation/1b1dda17-e7bd-4984-bbe2-470f4621276f"},{"display":"Carbon Dioxide","reference":"Observation/a2154c22-a80e-4e4e-b5e4-c809e9f89808"}],"status":"final","subject":{"reference":"Patient/00c8c9ed-65fe-4f9a-8e75-7d31ac64a04b"}}},{"resource":{"code":{"coding":[{"code":"51990-0","display":"Basic Metabolic Panel","system":"http://loinc.org"}],"text":"Basic Metabolic Panel"},"context":{"reference":"Encounter/10ed80e2-476d-4ccc-950c-9d1674e60375"},"effectiveDateTime":"2011-08-07T11:44:59-04:00","id":"efac2e3c-0ad0-40e3-a77b-58563c61ed4a","issued":"2011-08-07T11:44:59.853-04:00","meta":{"lastUpdated":"2019-04-09T09:57:26.739508+00:00","versionId":"MTU1NDgwMzg0NjczOTUwODAwMA"},"resourceType":"DiagnosticReport","result":[{"display":"Glucose","reference":"Observation/508bf0bc-e58c-41ac-94a6-fb867e541329"},{"display":"Urea Nitrogen","reference":"Observation/a9872c4b-e362-4451-98ac-1a0a189e175d"},{"display":"Creatinine","reference":"Observation/05c17398-1cbd-4a0f-af76-0106b6819d7b"},{"display":"Calcium","reference":"Observation/9dd281b7-39d9-4366-9f11-e5ba9343878d"},{"display":"Sodium","reference":"Observation/6cd635eb-ec9c-44b6-8358-b9318717e2c1"},{"display":"Potassium","reference":"Observation/a1cecd51-370a-4023-afd6-5d357bec95e2"},{"display":"Chloride","reference":"Observation/b20de15a-c810-4dfd-953e-216f923382ba"},{"display":"Carbon Dioxide","reference":"Observation/0b921305-d97f-4d86-9116-b50b3120e784"}],"status":"final","subject":{"reference":"Patient/00c8c9ed-65fe-4f9a-8e75-7d31ac64a04b"}}},{"resource":{"code":{"coding":[{"code":"57698-3","display":"Lipid Panel","system":"http://loinc.org"}],"text":"Lipid Panel"},"context":{"reference":"Encounter/a0b368f8-c1a9-4c4b-a866-9dade8e33199"},"effectiveDateTime":"2016-09-04T11:44:59-04:00","id":"f04bf62d-99bb-49c2-a413-0407d4a23e84","issued":"2016-09-04T11:44:59.853-04:00","meta":{"lastUpdated":"2019-04-09T09:57:52.941604+00:00","versionId":"MTU1NDgwMzg3Mjk0MTYwNDAwMA"},"resourceType":"DiagnosticReport","result":[{"display":"Total Cholesterol","reference":"Observation/fd516376-5b2b-4a3c-a67d-68ded9b37b41"},{"display":"Triglycerides","reference":"Observation/f905ec2f-3509-4f8a-b39b-2f3eae20a063"},{"display":"Low Density Lipoprotein Cholesterol","reference":"Observation/4cd8a63e-0eb2-4e87-bd2c-8f8a8dd47f0e"},{"display":"High Density Lipoprotein Cholesterol","reference":"Observation/64d6c314-1e84-470e-b79d-9a27cab0d800"}],"status":"final","subject":{"reference":"Patient/00c8c9ed-65fe-4f9a-8e75-7d31ac64a04b"}}},{"resource":{"code":{"coding":[{"code":"58410-2","display":"Complete blood count (hemogram) panel - Blood by Automated count","system":"http://loinc.org"}],"text":"Complete blood count (hemogram) panel - Blood by Automated count"},"context":{"reference":"Encounter/dc12ebf1-9c9e-4bda-a89b-2f4d9dc2be2c"},"effectiveDateTime":"2009-03-15T11:44:59-04:00","id":"f0c48bb3-8cfd-492f-8451-87c1141bd16e","issued":"2009-03-15T11:44:59.853-04:00","meta":{"lastUpdated":"2019-04-09T09:57:12.369223+00:00","versionId":"MTU1NDgwMzgzMjM2OTIyMzAwMA"},"resourceType":"DiagnosticReport","result":[{"display":"Leukocytes [#/volume] in Blood by Automated count","reference":"Observation/c285dac0-659f-476e-a85c-7c7149647189"},{"display":"Erythrocytes [#/volume] in Blood by Automated count","reference":"Observation/395cdb0d-e885-401c-a94e-4a6f3587e5ac"},{"display":"Hemoglobin [Mass/volume] in Blood","reference":"Observation/5dd4fbf4-fefd-4b02-9b59-683b61b57fb8"},{"display":"Hematocrit [Volume Fraction] of Blood by Automated count","reference":"Observation/c88323db-1288-4630-85f3-4bbbdff0657f"},{"display":"MCV [Entitic volume] by Automated count","reference":"Observation/0109410c-fd0e-4293-8f07-85a5b7b8e3fe"},{"display":"MCH [Entitic mass] by Automated count","reference":"Observation/f9091b8c-79ef-4dfe-a2ed-a171cd855bab"},{"display":"MCHC [Mass/volume] by Automated count","reference":"Observation/9fb79431-1357-42d2-b7e0-19f0d83d2323"},{"display":"Erythrocyte distribution width [Entitic volume] by Automated count","reference":"Observation/705f05d1-b9f0-4526-b80f-49d943f37660"},{"display":"Platelets [#/volume] in Blood by Automated count","reference":"Observation/7977df0c-8278-407f-865d-d938a3de13d6"},{"display":"Platelet distribution width [Entitic volume] in Blood by Automated count","reference":"Observation/f08a12a4-9f33-4f23-b256-3e6083388f30"},{"display":"Platelet mean volume [Entitic volume] in Blood by Automated count","reference":"Observation/2ea5f6bd-36cc-4612-91bd-962f99f7b059"}],"status":"final","subject":{"reference":"Patient/00c8c9ed-65fe-4f9a-8e75-7d31ac64a04b"}}},{"resource":{"code":{"coding":[{"code":"51990-0","display":"Basic Metabolic Panel","system":"http://loinc.org"}],"text":"Basic Metabolic Panel"},"context":{"reference":"Encounter/813fe5c6-e645-4de3-9827-d9212d16f332"},"effectiveDateTime":"2016-11-06T10:44:59-05:00","id":"f14d87eb-e970-4252-b0c7-27630e4d2499","issued":"2016-11-06T10:44:59.853-05:00","meta":{"lastUpdated":"2019-04-09T09:57:54.016788+00:00","versionId":"MTU1NDgwMzg3NDAxNjc4ODAwMA"},"resourceType":"DiagnosticReport","result":[{"display":"Glucose","reference":"Observation/70d6cc53-9cac-46bc-aa5d-5036f48fe4b1"},{"display":"Urea Nitrogen","reference":"Observation/248acaa0-f3c8-4c0f-b08b-b3281466cf58"},{"display":"Creatinine","reference":"Observation/2086b501-b2ee-4c77-8b09-8e19a86f03d5"},{"display":"Calcium","reference":"Observation/0ab0fb7a-cee1-43b1-b827-6d13b98c813b"},{"display":"Sodium","reference":"Observation/e49bf51e-b0b5-4520-9aeb-dd3677077193"},{"display":"Potassium","reference":"Observation/e86b61e6-e0b5-43a7-bf7a-c9a2b1163a46"},{"display":"Chloride","reference":"Observation/b5bf93fd-9b01-41d5-ad04-40538e2742b7"},{"display":"Carbon Dioxide","reference":"Observation/d8155214-67cc-40f4-a460-4db34c2595ab"}],"status":"final","subject":{"reference":"Patient/00c8c9ed-65fe-4f9a-8e75-7d31ac64a04b"}}},{"resource":{"code":{"coding":[{"code":"57698-3","display":"Lipid Panel","system":"http://loinc.org"}],"text":"Lipid Panel"},"context":{"reference":"Encounter/3e50c6b7-ea17-44f1-bd7a-0717ff67b6d5"},"effectiveDateTime":"2010-08-29T11:44:59-04:00","id":"f209e036-5b3f-4023-a79f-aa4fdd7d0d14","issued":"2010-08-29T11:44:59.853-04:00","meta":{"lastUpdated":"2019-04-09T09:57:22.665131+00:00","versionId":"MTU1NDgwMzg0MjY2NTEzMTAwMA"},"resourceType":"DiagnosticReport","result":[{"display":"Total Cholesterol","reference":"Observation/150f9af6-dc0e-4c15-8ec8-67b7c23accc5"},{"display":"Triglycerides","reference":"Observation/eb2f9637-e8a0-44ab-9899-49249e907017"},{"display":"Low Density Lipoprotein Cholesterol","reference":"Observation/db90513b-0535-4a52-99b4-5ce60b7a9f0d"},{"display":"High Density Lipoprotein Cholesterol","reference":"Observation/e7660a89-e109-41dd-a350-9593d3c88383"}],"status":"final","subject":{"reference":"Patient/00c8c9ed-65fe-4f9a-8e75-7d31ac64a04b"}}},{"resource":{"code":{"coding":[{"code":"57698-3","display":"Lipid Panel","system":"http://loinc.org"}],"text":"Lipid Panel"},"context":{"reference":"Encounter/8d4c3421-a78f-4fce-a0be-85e6719d39b7"},"effectiveDateTime":"2015-10-11T11:44:59-04:00","id":"f380486e-6059-4d16-bf5d-5cb13d1380a9","issued":"2015-10-11T11:44:59.853-04:00","meta":{"lastUpdated":"2019-04-09T09:57:46.542927+00:00","versionId":"MTU1NDgwMzg2NjU0MjkyNzAwMA"},"resourceType":"DiagnosticReport","result":[{"display":"Total Cholesterol","reference":"Observation/60c50f1d-de67-4fe8-a233-f67fb0ec80ab"},{"display":"Triglycerides","reference":"Observation/b2e4e310-e7fd-4c97-926f-1c366641ff97"},{"display":"Low Density Lipoprotein Cholesterol","reference":"Observation/dbc81530-58ea-4126-a09c-359fda00920b"},{"display":"High Density Lipoprotein Cholesterol","reference":"Observation/b6714df4-6281-4d93-ab0c-13bf61d7f405"}],"status":"final","subject":{"reference":"Patient/00c8c9ed-65fe-4f9a-8e75-7d31ac64a04b"}}},{"resource":{"code":{"coding":[{"code":"58410-2","display":"Complete blood count (hemogram) panel - Blood by Automated count","system":"http://loinc.org"}],"text":"Complete blood count (hemogram) panel - Blood by Automated count"},"context":{"reference":"Encounter/a07eb3e2-489b-4928-ae93-3047d118851b"},"effectiveDateTime":"2014-03-16T11:44:59-04:00","id":"f67c0fbb-0fcb-4974-8c11-dd33176741d8","issued":"2014-03-16T11:44:59.853-04:00","meta":{"lastUpdated":"2019-04-09T09:57:38.037337+00:00","versionId":"MTU1NDgwMzg1ODAzNzMzNzAwMA"},"resourceType":"DiagnosticReport","result":[{"display":"Leukocytes [#/volume] in Blood by Automated count","reference":"Observation/fac10d59-653c-4d12-9ced-7baf3ecc1330"},{"display":"Erythrocytes [#/volume] in Blood by Automated count","reference":"Observation/0957b4f8-3138-4b04-b7fe-0560bc88f9fd"},{"display":"Hemoglobin [Mass/volume] in Blood","reference":"Observation/5bf2e97d-0422-4a18-b930-5ab01837d2e6"},{"display":"Hematocrit [Volume Fraction] of Blood by Automated count","reference":"Observation/2040f3cc-a053-4f19-8366-f3dcb8a3eb06"},{"display":"MCV [Entitic volume] by Automated count","reference":"Observation/1312e0d8-0790-464f-a7c4-f90df65f0741"},{"display":"MCH [Entitic mass] by Automated count","reference":"Observation/a56fc160-e6ae-451a-8022-d16e3d6da882"},{"display":"MCHC [Mass/volume] by Automated count","reference":"Observation/8e3d7443-aec4-46c1-ae4b-4fe92929a824"},{"display":"Erythrocyte distribution width [Entitic volume] by Automated count","reference":"Observation/6af5cd62-6e2a-4768-8c17-c7b2136f6231"},{"display":"Platelets [#/volume] in Blood by Automated count","reference":"Observation/ece2958e-7e26-483f-a17c-a4140ec112ae"},{"display":"Platelet distribution width [Entitic volume] in Blood by Automated count","reference":"Observation/3abecff7-e8a7-42f7-9848-841a88d4ff24"},{"display":"Platelet mean volume [Entitic volume] in Blood by Automated count","reference":"Observation/ba1da843-468f-4418-9fb4-250d2ad7a8ff"}],"status":"final","subject":{"reference":"Patient/00c8c9ed-65fe-4f9a-8e75-7d31ac64a04b"}}},{"resource":{"code":{"coding":[{"code":"51990-0","display":"Basic Metabolic Panel","system":"http://loinc.org"}],"text":"Basic Metabolic Panel"},"context":{"reference":"Encounter/6f9b2fbe-864d-4a7a-b61e-f3511077a5ec"},"effectiveDateTime":"2018-02-25T10:44:59-05:00","id":"f7219b22-3a3a-49ce-9557-c47d63b5db54","issued":"2018-02-25T10:44:59.853-05:00","meta":{"lastUpdated":"2019-04-09T09:58:01.344790+00:00","versionId":"MTU1NDgwMzg4MTM0NDc5MDAwMA"},"resourceType":"DiagnosticReport","result":[{"display":"Glucose","reference":"Observation/fc656d19-3f3d-4a88-afc8-756983770f72"},{"display":"Urea Nitrogen","reference":"Observation/7628dff5-b140-44e3-aa8c-0b7c17a5bde8"},{"display":"Creatinine","reference":"Observation/9258d2b2-b84b-4d1b-81a0-40b69837fe50"},{"display":"Calcium","reference":"Observation/6d0b51d1-5a55-43c1-b488-61a546eebc13"},{"display":"Sodium","reference":"Observation/77d7c6ec-4626-4e9b-85d9-f137f535fccb"},{"display":"Potassium","reference":"Observation/2615aa90-a086-43af-a06a-5bfc387b9449"},{"display":"Chloride","reference":"Observation/f2767a40-4657-44cb-b316-36dae4762dec"},{"display":"Carbon Dioxide","reference":"Observation/15eec7a1-7b86-4c4f-b4bf-d95711921c3b"}],"status":"final","subject":{"reference":"Patient/00c8c9ed-65fe-4f9a-8e75-7d31ac64a04b"}}},{"resource":{"code":{"coding":[{"code":"57698-3","display":"Lipid Panel","system":"http://loinc.org"}],"text":"Lipid Panel"},"context":{"reference":"Encounter/325f851d-867d-468b-bef4-ace59eac3d5a"},"effectiveDateTime":"2018-07-29T11:44:59-04:00","id":"fa574007-9376-4123-914b-902327a45038","issued":"2018-07-29T11:44:59.853-04:00","meta":{"lastUpdated":"2019-04-09T09:58:03.419804+00:00","versionId":"MTU1NDgwMzg4MzQxOTgwNDAwMA"},"resourceType":"DiagnosticReport","result":[{"display":"Total Cholesterol","reference":"Observation/0dd74593-6400-465b-a0ea-bf405f5fd815"},{"display":"Triglycerides","reference":"Observation/2fc2ebb1-deb2-4ca0-8a72-8dfa6fbd2c4e"},{"display":"Low Density Lipoprotein Cholesterol","reference":"Observation/39a36061-8fd3-410f-a46c-db6de44035c0"},{"display":"High Density Lipoprotein Cholesterol","reference":"Observation/ff015332-8432-4950-a21f-64a985fbd475"}],"status":"final","subject":{"reference":"Patient/00c8c9ed-65fe-4f9a-8e75-7d31ac64a04b"}}},{"resource":{"class":{"code":"URGENTCARE"},"id":"04ec88b9-2842-4208-9e14-fe12e7ec1ba8","meta":{"lastUpdated":"2019-04-09T09:57:29.767589+00:00","versionId":"MTU1NDgwMzg0OTc2NzU4OTAwMA"},"participant":[{"individual":{"reference":"Practitioner/10bd6f21-a8d8-44eb-94c1-5eb7fa9920ba"}}],"period":{"end":"2012-11-18T10:59:59-05:00","start":"2012-11-18T10:44:59-05:00"},"resourceType":"Encounter","serviceProvider":{"reference":"Organization/958d48d5-22b1-4971-9dda-f5992f666ea4"},"status":"finished","subject":{"reference":"Patient/00c8c9ed-65fe-4f9a-8e75-7d31ac64a04b"},"type":[{"coding":[{"code":"371883000","display":"Outpatient procedure (procedure)","system":"http://snomed.info/sct"}],"text":"Outpatient procedure (procedure)"}]}},{"resource":{"class":{"code":"WELLNESS"},"id":"057a6ba9-37b4-4eee-819a-2b8e8a7f05e1","meta":{"lastUpdated":"2019-04-09T09:57:56.082503+00:00","versionId":"MTU1NDgwMzg3NjA4MjUwMzAwMA"},"participant":[{"individual":{"reference":"Practitioner/f426ec46-b3b9-4259-93bc-3972d2d34c89"}}],"period":{"end":"2017-04-02T11:59:59-04:00","start":"2017-04-02T11:44:59-04:00"},"resourceType":"Encounter","serviceProvider":{"reference":"Organization/b5106795-a455-454b-8962-6c5232594630"},"status":"finished","subject":{"reference":"Patient/00c8c9ed-65fe-4f9a-8e75-7d31ac64a04b"},"type":[{"coding":[{"code":"185349003","display":"Encounter for check up (procedure)","system":"http://snomed.info/sct"}],"text":"Encounter for check up (procedure)"}]}},{"resource":{"class":{"code":"URGENTCARE"},"id":"0661ae81-dcd4-487d-8f72-3ff069673d86","meta":{"lastUpdated":"2019-04-09T09:57:48.702850+00:00","versionId":"MTU1NDgwMzg2ODcwMjg1MDAwMA"},"participant":[{"individual":{"reference":"Practitioner/10bd6f21-a8d8-44eb-94c1-5eb7fa9920ba"}}],"period":{"end":"2016-01-31T10:59:59-05:00","start":"2016-01-31T10:44:59-05:00"},"resourceType":"Encounter","serviceProvider":{"reference":"Organization/958d48d5-22b1-4971-9dda-f5992f666ea4"},"status":"finished","subject":{"reference":"Patient/00c8c9ed-65fe-4f9a-8e75-7d31ac64a04b"},"type":[{"coding":[{"code":"371883000","display":"Outpatient procedure (procedure)","system":"http://snomed.info/sct"}],"text":"Outpatient procedure (procedure)"}]}},{"resource":{"class":{"code":"WELLNESS"},"id":"09593a2a-c114-4dc1-bb4a-25fe216d196b","meta":{"lastUpdated":"2019-04-09T09:57:23.676412+00:00","versionId":"MTU1NDgwMzg0MzY3NjQxMjAwMA"},"participant":[{"individual":{"reference":"Practitioner/f426ec46-b3b9-4259-93bc-3972d2d34c89"}}],"period":{"end":"2011-02-06T10:59:59-05:00","start":"2011-02-06T10:44:59-05:00"},"resourceType":"Encounter","serviceProvider":{"reference":"Organization/b5106795-a455-454b-8962-6c5232594630"},"status":"finished","subject":{"reference":"Patient/00c8c9ed-65fe-4f9a-8e75-7d31ac64a04b"},"type":[{"coding":[{"code":"185349003","display":"Encounter for check up (procedure)","system":"http://snomed.info/sct"}],"text":"Encounter for check up (procedure)"}]}},{"resource":{"class":{"code":"URGENTCARE"},"id":"0b3a4ddb-10a6-4724-bfe8-6f36dc1d08a3","meta":{"lastUpdated":"2019-04-09T09:57:12.334520+00:00","versionId":"MTU1NDgwMzgzMjMzNDUyMDAwMA"},"participant":[{"individual":{"reference":"Practitioner/10bd6f21-a8d8-44eb-94c1-5eb7fa9920ba"}}],"period":{"end":"2009-05-10T11:59:59-04:00","start":"2009-05-10T11:44:59-04:00"},"resourceType":"Encounter","serviceProvider":{"reference":"Organization/958d48d5-22b1-4971-9dda-f5992f666ea4"},"status":"finished","subject":{"reference":"Patient/00c8c9ed-65fe-4f9a-8e75-7d31ac64a04b"},"type":[{"coding":[{"code":"371883000","display":"Outpatient procedure (procedure)","system":"http://snomed.info/sct"}],"text":"Outpatient procedure (procedure)"}]}},{"resource":{"class":{"code":"WELLNESS"},"id":"0d9c9cd4-c437-486b-8074-9206f6b15da0","meta":{"lastUpdated":"2019-04-09T09:57:31.830753+00:00","versionId":"MTU1NDgwMzg1MTgzMDc1MzAwMA"},"participant":[{"individual":{"reference":"Practitioner/f426ec46-b3b9-4259-93bc-3972d2d34c89"}}],"period":{"end":"2013-05-19T11:59:59-04:00","start":"2013-05-19T11:44:59-04:00"},"resourceType":"Encounter","serviceProvider":{"reference":"Organization/b5106795-a455-454b-8962-6c5232594630"},"status":"finished","subject":{"reference":"Patient/00c8c9ed-65fe-4f9a-8e75-7d31ac64a04b"},"type":[{"coding":[{"code":"185349003","display":"Encounter for check up (procedure)","system":"http://snomed.info/sct"}],"text":"Encounter for check up (procedure)"}]}},{"resource":{"class":{"code":"URGENTCARE"},"id":"0e5535aa-ce8d-4910-83fa-fccdd7d255fa","meta":{"lastUpdated":"2019-04-09T09:58:03.403169+00:00","versionId":"MTU1NDgwMzg4MzQwMzE2OTAwMA"},"participant":[{"individual":{"reference":"Practitioner/10bd6f21-a8d8-44eb-94c1-5eb7fa9920ba"}}],"period":{"end":"2018-06-24T11:59:59-04:00","start":"2018-06-24T11:44:59-04:00"},"resourceType":"Encounter","serviceProvider":{"reference":"Organization/958d48d5-22b1-4971-9dda-f5992f666ea4"},"status":"finished","subject":{"reference":"Patient/00c8c9ed-65fe-4f9a-8e75-7d31ac64a04b"},"type":[{"coding":[{"code":"371883000","display":"Outpatient procedure (procedure)","system":"http://snomed.info/sct"}],"text":"Outpatient procedure (procedure)"}]}}],"link":[{"url":"https://syntheticmass.mitre.org/v1/fhir/Patient/00c8c9ed-65fe-4f9a-8e75-7d31ac64a04b/$everything?_count=100&page_token=CoIBcHJvamVjdHMvc3ludGhlYS9sb2NhdGlvbnMvdXMtY2VudHJhbDEvZGF0YXNldHMvMjAxOTAyL2ZoaXJTdG9yZXMvc3ludGhldGljLW1hc3MvZmhpci9QYXRpZW50LzAwYzhjOWVkLTY1ZmUtNGY5YS04ZTc1LTdkMzFhYzY0YTA0YiDIAQ%3D%3D","relation":"previous"},{"url":"https://syntheticmass.mitre.org/v1/fhir/Patient/00c8c9ed-65fe-4f9a-8e75-7d31ac64a04b/$everything?_count=100&page_token=CoIBcHJvamVjdHMvc3ludGhlYS9sb2NhdGlvbnMvdXMtY2VudHJhbDEvZGF0YXNldHMvMjAxOTAyL2ZoaXJTdG9yZXMvc3ludGhldGljLW1hc3MvZmhpci9QYXRpZW50LzAwYzhjOWVkLTY1ZmUtNGY5YS04ZTc1LTdkMzFhYzY0YTA0YiCQAw%3D%3D","relation":"next"}],"total":2485}
