{"resourceType":"Bundle","type":"searchset","entry":[{"resource":{"class":{"code":"WELLNESS"},"id":"8894b4b4-109b-4934-8c58-f274fa48309b","meta":{"lastUpdated":"2019-04-09T09:57:50.796223+00:00","versionId":"MTU1NDgwMzg3MDc5NjIyMzAwMA"},"participant":[{"individual":{"reference":"Practitioner/f426ec46-b3b9-4259-93bc-3972d2d34c89"}}],"period":{"end":"2016-08-07T11:59:59-04:00","start":"2016-08-07T11:44:59-04:00"},"resourceType":"Encounter","serviceProvider":{"reference":"Organization/b5106795-a455-454b-8962-6c5232594630"},"status":"finished","subject":{"reference":"Patient/00c8c9ed-65fe-4f9a-8e75-7d31ac64a04b"},"type":[{"coding":[{"code":"185349003","display":"Encounter for check up (procedure)","system":"http://snomed.info/sct"}],"text":"Encounter for check up (procedure)"}]}},{"resource":{"class":{"code":"URGENTCARE"},"id":"89073404-eee5-4619-8b1e-fced5302877e","meta":{"lastUpdated":"2019-04-09T09:57:12.326715+00:00","versionId":"MTU1NDgwMzgzMjMyNjcxNTAwMA"},"participant":[{"individual":{"reference":"Practitioner/10bd6f21-a8d8-44eb-94c1-5eb7fa9920ba"}}],"period":{"end":"2009-02-08T10:59:59-05:00","start":"2009-02-08T10:44:59-05:00"},"resourceType":"Encounter","serviceProvider":{"reference":"Organization/958d48d5-22b1-4971-9dda-f5992f666ea4"},"status":"finished","subject":{"reference":"Patient/00c8c9ed-65fe-4f9a-8e75-7d31ac64a04b"},"type":[{"coding":[{"code":"371883000","display":"Outpatient procedure (procedure)","system":"http://snomed.info/sct"}],"text":"Outpatient procedure (procedure)"}]}},{"resource":{"class":{"code":"WELLNESS"},"id":"89b94a1e-59f4-43d1-9ee4-b81fd4fc4706","meta":{"lastUpdated":"2019-04-09T09:57:46.521682+00:00","versionId":"MTU1NDgwMzg2NjUyMTY4MjAwMA"},"participant":[{"individual":{"reference":"Practitioner/f426ec46-b3b9-4259-93bc-3972d2d34c89"}}],"period":{"end":"2015-11-08T10:59:59-05:00","start":"2015-11-08T10:44:59-05:00"},"resourceType":"Encounter","serviceProvider":{"reference":"Organization/b5106795-a455-454b-8962-6c5232594630"},"status":"finished","subject":{"reference":"Patient/00c8c9ed-65fe-4f9a-8e75-7d31ac64a04b"},"type":[{"coding":[{"code":"185349003","display":"Encounter for check up (procedure)","system":"http://snomed.info/sct"}],"text":"Encounter for check up (procedure)"}]}},{"resource":{"class":{"code":"URGENTCARE"},"id":"8a7a32e8-ef1a-4d82-b867-f6834e3b6a17","meta":{"lastUpdated":"2019-04-09T09:57:56.078793+00:00","versionId":"MTU1NDgwMzg3NjA3ODc5MzAwMA"},"participant":[{"individual":{"reference":"Practitioner/10bd6f21-a8d8-44eb-94c1-5eb7fa9920ba"}}],"period":{"end":"2017-05-28T11:59:59-04:00","start":"2017-05-28T11:44:59-04:00"},"resourceType":"Encounter","serviceProvider":{"reference":"Organization/958d48d5-22b1-4971-9dda-f5992f666ea4"},"status":"finished","subject":{"reference":"Patient/00c8c9ed-65fe-4f9a-8e75-7d31ac64a04b"},"type":[{"coding":[{"code":"371883000","display":"Outpatient procedure (procedure)","system":"http://snomed.info/sct"}],"text":"Outpatient procedure (procedure)"}]}},{"resource":{"class":{"code":"URGENTCARE"},"id":"8baad5ca-e870-4652-8819-ab5c0b8790fb","meta":{"lastUpdated":"2019-04-09T09:58:00.210158+00:00","versionId":"MTU1NDgwMzg4MDIxMDE1ODAwMA"},"participant":[{"individual":{"reference":"Practitioner/10bd6f21-a8d8-44eb-94c1-5eb7fa9920ba"}}],"period":{"end":"2017-11-26T10:59:59-05:00","start":"2017-11-26T10:44:59-05:00"},"resourceType":"Encounter","serviceProvider":{"reference":"Organization/958d48d5-22b1-4971-9dda-f5992f666ea4"},"status":"finished","subject":{"reference":"Patient/00c8c9ed-65fe-4f9a-8e75-7d31ac64a04b"},"type":[{"coding":[{"code":"371883000","display":"Outpatient procedure (procedure)","system":"http://snomed.info/sct"}],"text":"Outpatient procedure (procedure)"}]}},{"resource":{"class":{"code":"URGENTCARE"},"id":"8be11332-7e04-4356-9a26-20e47cc62c91","meta":{"lastUpdated":"2019-04-09T09:57:49.724367+00:00","versionId":"MTU1NDgwMzg2OTcyNDM2NzAwMA"},"participant":[{"individual":{"reference":"Practitioner/10bd6f21-a8d8-44eb-94c1-5eb7fa9920ba"}}],"period":{"end":"2016-07-03T11:59:59-04:00","start":"2016-07-03T11:44:59-04:00"},"resourceType":"Encounter","serviceProvider":{"reference":"Organization/958d48d5-22b1-4971-9dda-f5992f666ea4"},"status":"finished","subject":{"reference":"Patient/00c8c9ed-65fe-4f9a-8e75-7d31ac64a04b"},"type":[{"coding":[{"code":"371883000","display":"Outpatient procedure (procedure)","system":"http://snomed.info/sct"}],"text":"Outpatient procedure (procedure)"}]}},{"resource":{"class":{"code":"WELLNESS"},"id":"8c5992af-1204-42f7-882c-771b3fe481b8","meta":{"lastUpdated":"2019-04-09T09:57:19.575414+00:00","versionId":"MTU1NDgwMzgzOTU3NTQxNDAwMA"},"participant":[{"individual":{"reference":"Practitioner/f426ec46-b3b9-4259-93bc-3972d2d34c89"}}],"period":{"end":"2010-07-04T11:59:59-04:00","start":"2010-07-04T11:44:59-04:00"},"resourceType":"Encounter","serviceProvider":{"reference":"Organization/b5106795-a455-454b-8962-6c5232594630"},"status":"finished","subject":{"reference":"Patient/00c8c9ed-65fe-4f9a-8e75-7d31ac64a04b"},"type":[{"coding":[{"code":"185349003","display":"Encounter for check up (procedure)","system":"http://snomed.info/sct"}],"text":"Encounter for check up (procedure)"}]}},{"resource":{"class":{"code":"WELLNESS"},"id":"8cc73931-086c-47a6-bb8f-5d9429f5bd5a","meta":{"lastUpdated":"2019-04-09T09:57:30.798451+00:00","versionId":"MTU1NDgwMzg1MDc5ODQ1MTAwMA"},"participant":[{"individual":{"reference":"Practitioner/f426ec46-b3b9-4259-93bc-3972d2d34c89"}}],"period":{"end":"2013-04-28T12:14:59-04:00","start":"2013-04-28T11:44:59-04:00"},"resourceType":"Encounter","serviceProvider":{"reference":"Organization/b5106795-a455-454b-8962-6c5232594630"},"status":"finished","subject":{"reference":"Patient/00c8c9ed-65fe-4f9a-8e75-7d31ac64a04b"},"type":[{"coding":[{"code":"185349003","display":"Encounter for check up (procedure)","system":"http://snomed.info/sct"}],"text":"Encounter for check up (procedure)"}]}},{"resource":{"class":{"code":"WELLNESS"},"id":"8d4c3421-a78f-4fce-a0be-85e6719d39b7","meta":{"lastUpdated":"2019-04-09T09:57:46.527786+00:00","versionId":"MTU1NDgwMzg2NjUyNzc4NjAwMA"},"participant":[{"individual":{"reference":"Practitioner/f426ec46-b3b9-4259-93bc-3972d2d34c89"}}],"period":{"end":"2015-10-11T12:14:59-04:00","start":"2015-10-11T11:44:59-04:00"},"resourceType":"Encounter","serviceProvider":{"reference":"Organization/b5106795-a455-454b-8962-6c5232594630"},"status":"finished","subject":{"reference":"Patient/00c8c9ed-65fe-4f9a-8e75-7d31ac64a04b"},"type":[{"coding":[{"code":"185349003","display":"Encounter for check up (procedure)","system":"http://snomed.info/sct"}],"text":"Encounter for check up (procedure)"}]}},{"resource":{"class":{"code":"WELLNESS"},"id":"8db5f699-97d5-4d73-8577-28abe283fa02","meta":{"lastUpdated":"2019-04-09T09:57:42.272794+00:00","versionId":"MTU1NDgwMzg2MjI3Mjc5NDAwMA"},"participant":[{"individual":{"reference":"Practitioner/f426ec46-b3b9-4259-93bc-3972d2d34c89"}}],"period":{"end":"2015-06-14T11:59:59-04:00","start":"2015-06-14T11:44:59-04:00"},"resourceType":"Encounter","serviceProvider":{"reference":"Organization/b5106795-a455-454b-8962-6c5232594630"},"status":"finished","subject":{"reference":"Patient/00c8c9ed-65fe-4f9a-8e75-7d31ac64a04b"},"type":[{"coding":[{"code":"185349003","display":"Encounter for check up (procedure)","system":"http://snomed.info/sct"}],"text":"Encounter for check up (procedure)"}]}},{"resource":{"class":{"code":"ambulatory"},"id":"8e4e7107-b531-4c54-9861-7ad6a18f549a","meta":{"lastUpdated":"2019-04-09T09:57:12.326828+00:00","versionId":"MTU1NDgwMzgzMjMyNjgyODAwMA"},"participant":[{"individual":{"reference":"Practitioner/f426ec46-b3b9-4259-93bc-3972d2d34c89"}}],"period":{"end":"2008-08-11T11:59:59-04:00","start":"2008-08-11T11:44:59-04:00"},"reason":[{"coding":[{"code":"55822004","display":"Hyperlipidemia","system":"http://snomed.info/sct"}]}],"resourceType":"Encounter","serviceProvider":{"reference":"Organization/b5106795-a455-454b-8962-6c5232594630"},"status":"finished","subject":{"reference":"Patient/00c8c9ed-65fe-4f9a-8e75-7d31ac64a04b"},"type":[{"coding":[{"code":"390906007","display":"Follow-up encounter","system":"http://snomed.info/sct"}],"text":"Follow-up encounter"}]}},{"resource":{"class":{"code":"URGENTCARE"},"id":"8e811dae-46b6-455e-86b3-9a957701c3b6","meta":{"lastUpdated":"2019-04-09T09:57:52.943893+00:00","versionId":"MTU1NDgwMzg3Mjk0Mzg5MzAwMA"},"participant":[{"individual":{"reference":"Practitioner/10bd6f21-a8d8-44eb-94c1-5eb7fa9920ba"}}],"period":{"end":"2016-10-30T11:59:59-04:00","start":"2016-10-30T11:44:59-04:00"},"resourceType":"Encounter","serviceProvider":{"reference":"Organization/958d48d5-22b1-4971-9dda-f5992f666ea4"},"status":"finished","subject":{"reference":"Patient/00c8c9ed-65fe-4f9a-8e75-7d31ac64a04b"},"type":[{"coding":[{"code":"371883000","display":"Outpatient procedure (procedure)","system":"http://snomed.info/sct"}],"text":"Outpatient procedure (procedure)"}]}},{"resource":{"class":{"code":"URGENTCARE"},"id":"8ecc56ce-7d41-494e-8cf1-ab07c714de70","meta":{"lastUpdated":"2019-04-09T09:57:28.749544+00:00","versionId":"MTU1NDgwMzg0ODc0OTU0NDAwMA"},"participant":[{"individual":{"reference":"Practitioner/10bd6f21-a8d8-44eb-94c1-5eb7fa9920ba"}}],"period":{"end":"2012-06-24T11:59:59-04:00","start":"2012-06-24T11:44:59-04:00"},"resourceType":"Encounter","serviceProvider":{"reference":"Organization/958d48d5-22b1-4971-9dda-f5992f666ea4"},"status":"finished","subject":{"reference":"Patient/00c8c9ed-65fe-4f9a-8e75-7d31ac64a04b"},"type":[{"coding":[{"code":"371883000","display":"Outpatient procedure (procedure)","system":"http://snomed.info/sct"}],"text":"Outpatient procedure (procedure)"}]}},{"resource":{"class":{"code":"URGENTCARE"},"id":"902cb425-03b0-452d-b009-2feea8a724a3","meta":{"lastUpdated":"2019-04-09T09:57:33.928361+00:00","versionId":"MTU1NDgwMzg1MzkyODM2MTAwMA"},"participant":[{"individual":{"reference":"Practitioner/10bd6f21-a8d8-44eb-94c1-5eb7fa9920ba"}}],"period":{"end":"2013-09-15T11:59:59-04:00","start":"2013-09-15T11:44:59-04:00"},"resourceType":"Encounter","serviceProvider":{"reference":"Organization/958d48d5-22b1-4971-9dda-f5992f666ea4"},"status":"finished","subject":{"reference":"Patient/00c8c9ed-65fe-4f9a-8e75-7d31ac64a04b"},"type":[{"coding":[{"code":"371883000","display":"Outpatient procedure (procedure)","system":"http://snomed.info/sct"}],"text":"Outpatient procedure (procedure)"}]}},{"resource":{"class":{"code":"URGENTCARE"},"id":"92ae4f93-7d6e-43b2-843d-0bcbd7137c27","meta":{"lastUpdated":"2019-04-09T09:57:13.381161+00:00","versionId":"MTU1NDgwMzgzMzM4MTE2MTAwMA"},"participant":[{"individual":{"reference":"Practitioner/10bd6f21-a8d8-44eb-94c1-5eb7fa9920ba"}}],"period":{"end":"2009-07-05T11:59:59-04:00","start":"2009-07-05T11:44:59-04:00"},"resourceType":"Encounter","serviceProvider":{"reference":"Organization/958d48d5-22b1-4971-9dda-f5992f666ea4"},"status":"finished","subject":{"reference":"Patient/00c8c9ed-65fe-4f9a-8e75-7d31ac64a04b"},"type":[{"coding":[{"code":"371883000","display":"Outpatient procedure (procedure)","system":"http://snomed.info/sct"}],"text":"Outpatient procedure (procedure)"}]}},{"resource":{"class":{"code":"URGENTCARE"},"id":"95dd8e69-69c5-4379-b6bd-f5465c7b82c0","meta":{"lastUpdated":"2019-04-09T09:57:38.031741+00:00","versionId":"MTU1NDgwMzg1ODAzMTc0MTAwMA"},"participant":[{"individual":{"reference":"Practitioner/10bd6f21-a8d8-44eb-94c1-5eb7fa9920ba"}}],"period":{"end":"2014-05-11T11:59:59-04:00","start":"2014-05-11T11:44:59-04:00"},"resourceType":"Encounter","serviceProvider":{"reference":"Organization/958d48d5-22b1-4971-9dda-f5992f666ea4"},"status":"finished","subject":{"reference":"Patient/00c8c9ed-65fe-4f9a-8e75-7d31ac64a04b"},"type":[{"coding":[{"code":"371883000","display":"Outpatient procedure (procedure)","system":"http://snomed.info/sct"}],"text":"Outpatient procedure (procedure)"}]}},{"resource":{"class":{"code":"URGENTCARE"},"id":"98500cb4-9d3d-4bb7-a866-8f6814103a85","meta":{"lastUpdated":"2019-04-09T09:57:27.762836+00:00","versionId":"MTU1NDgwMzg0Nzc2MjgzNjAwMA"},"participant":[{"individual":{"reference":"Practitioner/10bd6f21-a8d8-44eb-94c1-5eb7fa9920ba"}}],"period":{"end":"2011-08-28T11:59:59-04:00","start":"2011-08-28T11:44:59-04:00"},"resourceType":"Encounter","serviceProvider":{"reference":"Organization/958d48d5-22b1-4971-9dda-f5992f666ea4"},"status":"finished","subject":{"reference":"Patient/00c8c9ed-65fe-4f9a-8e75-7d31ac64a04b"},"type":[{"coding":[{"code":"371883000","display":"Outpatient procedure (procedure)","system":"http://snomed.info/sct"}],"text":"Outpatient procedure (procedure)"}]}},{"resource":{"class":{"code":"WELLNESS"},"id":"9cf183df-5bae-47a2-b834-2a76ec972903","meta":{"lastUpdated":"2019-04-09T09:57:45.485243+00:00","versionId":"MTU1NDgwMzg2NTQ4NTI0MzAwMA"},"participant":[{"individual":{"reference":"Practitioner/f426ec46-b3b9-4259-93bc-3972d2d34c89"}}],"period":{"end":"2015-09-06T11:59:59-04:00","start":"2015-09-06T11:44:59-04:00"},"resourceType":"Encounter","serviceProvider":{"reference":"Organization/b5106795-a455-454b-8962-6c5232594630"},"status":"finished","subject":{"reference":"Patient/00c8c9ed-65fe-4f9a-8e75-7d31ac64a04b"},"type":[{"coding":[{"code":"185349003","display":"Encounter for check up (procedure)","system":"http://snomed.info/sct"}],"text":"Encounter for check up (procedure)"}]}},{"resource":{"class":{"code":"URGENTCARE"},"id":"9d7ebfde-60a4-4166-9f37-2b232ed27a20","meta":{"lastUpdated":"2019-04-09T09:57:28.751115+00:00","versionId":"MTU1NDgwMzg0ODc1MTExNTAwMA"},"participant":[{"individual":{"reference":"Practitioner/10bd6f21-a8d8-44eb-94c1-5eb7fa9920ba"}}],"period":{"end":"2012-05-20T11:59:59-04:00","start":"2012-05-20T11:44:59-04:00"},"resourceType":"Encounter","serviceProvider":{"reference":"Organization/958d48d5-22b1-4971-9dda-f5992f666ea4"},"status":"finished","subject":{"reference":"Patient/00c8c9ed-65fe-4f9a-8e75-7d31ac64a04b"},"type":[{"coding":[{"code":"371883000","display":"Outpatient procedure (procedure)","system":"http://snomed.info/sct"}],"text":"Outpatient procedure (procedure)"}]}},{"resource":{"class":{"code":"URGENTCARE"},"id":"9f4e4f6d-86af-4367-8931-eca20d78d173","meta":{"lastUpdated":"2019-04-09T09:57:57.090372+00:00","versionId":"MTU1NDgwMzg3NzA5MDM3MjAwMA"},"participant":[{"individual":{"reference":"Practitioner/10bd6f21-a8d8-44eb-94c1-5eb7fa9920ba"}}],"period":{"end":"2017-06-25T11:59:59-04:00","start":"2017-06-25T11:44:59-04:00"},"resourceType":"Encounter","serviceProvider":{"reference":"Organization/958d48d5-22b1-4971-9dda-f5992f666ea4"},"status":"finished","subject":{"reference":"Patient/00c8c9ed-65fe-4f9a-8e75-7d31ac64a04b"},"type":[{"coding":[{"code":"371883000","display":"Outpatient procedure (procedure)","system":"http://snomed.info/sct"}],"text":"Outpatient procedure (procedure)"}]}},{"resource":{"class":{"code":"WELLNESS"},"id":"a07eb3e2-489b-4928-ae93-3047d118851b","meta":{"lastUpdated":"2019-04-09T09:57:37.034422+00:00","versionId":"MTU1NDgwMzg1NzAzNDQyMjAwMA"},"participant":[{"individual":{"reference":"Practitioner/f426ec46-b3b9-4259-93bc-3972d2d34c89"}}],"period":{"end":"2014-03-16T12:14:59-04:00","start":"2014-03-16T11:44:59-04:00"},"resourceType":"Encounter","serviceProvider":{"reference":"Organization/b5106795-a455-454b-8962-6c5232594630"},"status":"finished","subject":{"reference":"Patient/00c8c9ed-65fe-4f9a-8e75-7d31ac64a04b"},"type":[{"coding":[{"code":"185349003","display":"Encounter for check up (procedure)","system":"http://snomed.info/sct"}],"text":"Encounter for check up (procedure)"}]}},{"resource":{"class":{"code":"WELLNESS"},"id":"a0b368f8-c1a9-4c4b-a866-9dade8e33199","meta":{"lastUpdated":"2019-04-09T09:57:51.901561+00:00","versionId":"MTU1NDgwMzg3MTkwMTU2MTAwMA"},"participant":[{"individual":{"reference":"Practitioner/f426ec46-b3b9-4259-93bc-3972d2d34c89"}}],"period":{"end":"2016-09-04T12:14:59-04:00","start":"2016-09-04T11:44:59-04:00"},"resourceType":"Encounter","serviceProvider":{"reference":"Organization/b5106795-a455-454b-8962-6c5232594630"},"status":"finished","subject":{"reference":"Patient/00c8c9ed-65fe-4f9a-8e75-7d31ac64a04b"},"type":[{"coding":[{"code":"185349003","display":"Encounter for check up (procedure)","system":"http://snomed.info/sct"}],"text":"Encounter for check up (procedure)"}]}},{"resource":{"class":{"code":"URGENTCARE"},"id":"a0e0a2e7-336f-4c9d-a61d-0a60b3c7f180","meta":{"lastUpdated":"2019-04-09T09:58:00.210157+00:00","versionId":"MTU1NDgwMzg4MDIxMDE1NzAwMA"},"participant":[{"individual":{"reference":"Practitioner/10bd6f21-a8d8-44eb-94c1-5eb7fa9920ba"}}],"period":{"end":"2017-10-22T11:59:59-04:00","start":"2017-10-22T11:44:59-04:00"},"resourceType":"Encounter","serviceProvider":{"reference":"Organization/958d48d5-22b1-4971-9dda-f5992f666ea4"},"status":"finished","subject":{"reference":"Patient/00c8c9ed-65fe-4f9a-8e75-7d31ac64a04b"},"type":[{"coding":[{"code":"371883000","display":"Outpatient procedure (procedure)","system":"http://snomed.info/sct"}],"text":"Outpatient procedure (procedure)"}]}},{"resource":{"class":{"code":"WELLNESS"},"id":"a2486a35-029c-41e2-ae3c-4252c4d60263","meta":{"lastUpdated":"2019-04-09T09:57:54.005528+00:00","versionId":"MTU1NDgwMzg3NDAwNTUyODAwMA"},"participant":[{"individual":{"reference":"Practitioner/f426ec46-b3b9-4259-93bc-3972d2d34c89"}}],"period":{"end":"2017-02-05T10:59:59-05:00","start":"2017-02-05T10:44:59-05:00"},"resourceType":"Encounter","serviceProvider":{"reference":"Organization/b5106795-a455-454b-8962-6c5232594630"},"status":"finished","subject":{"reference":"Patient/00c8c9ed-65fe-4f9a-8e75-7d31ac64a04b"},"type":[{"coding":[{"code":"185349003","display":"Encounter for check up (procedure)","system":"http://snomed.info/sct"}],"text":"Encounter for check up (procedure)"}]}},{"resource":{"class":{"code":"URGENTCARE"},"id":"a303cec1-f359-4fd8-8a24-ef19bc76916e","meta":{"lastUpdated":"2019-04-09T09:58:00.210156+00:00","versionId":"MTU1NDgwMzg4MDIxMDE1NjAwMA"},"participant":[{"individual":{"reference":"Practitioner/10bd6f21-a8d8-44eb-94c1-5eb7fa9920ba"}}],"period":{"end":"2017-09-24T11:59:59-04:00","start":"2017-09-24T11:44:59-04:00"},"resourceType":"Encounter","serviceProvider":{"reference":"Organization/958d48d5-22b1-4971-9dda-f5992f666ea4"},"status":"finished","subject":{"reference":"Patient/00c8c9ed-65fe-4f9a-8e75-7d31ac64a04b"},"type":[{"coding":[{"code":"371883000","display":"Outpatient procedure (procedure)","system":"http://snomed.info/sct"}],"text":"Outpatient procedure (procedure)"}]}},{"resource":{"class":{"code":"URGENTCARE"},"id":"a3e12ddb-04e2-427f-8690-c2d1a0834579","meta":{"lastUpdated":"2019-04-09T09:57:42.280123+00:00","versionId":"MTU1NDgwMzg2MjI4MDEyMzAwMA"},"participant":[{"individual":{"reference":"Practitioner/10bd6f21-a8d8-44eb-94c1-5eb7fa9920ba"}}],"period":{"end":"2015-05-10T11:59:59-04:00","start":"2015-05-10T11:44:59-04:00"},"resourceType":"Encounter","serviceProvider":{"reference":"Organization/958d48d5-22b1-4971-9dda-f5992f666ea4"},"status":"finished","subject":{"reference":"Patient/00c8c9ed-65fe-4f9a-8e75-7d31ac64a04b"},"type":[{"coding":[{"code":"371883000","display":"Outpatient procedure (procedure)","system":"http://snomed.info/sct"}],"text":"Outpatient procedure (procedure)"}]}},{"resource":{"class":{"code":"URGENTCARE"},"id":"a50a0d32-aadd-4562-9525-ea5d6b96e938","meta":{"lastUpdated":"2019-04-09T09:57:18.550157+00:00","versionId":"MTU1NDgwMzgzODU1MDE1NzAwMA"},"participant":[{"individual":{"reference":"Practitioner/10bd6f21-a8d8-44eb-94c1-5eb7fa9920ba"}}],"period":{"end":"2010-04-04T11:59:59-04:00","start":"2010-04-04T11:44:59-04:00"},"resourceType":"Encounter","serviceProvider":{"reference":"Organization/958d48d5-22b1-4971-9dda-f5992f666ea4"},"status":"finished","subject":{"reference":"Patient/00c8c9ed-65fe-4f9a-8e75-7d31ac64a04b"},"type":[{"coding":[{"code":"371883000","display":"Outpatient procedure (procedure)","system":"http://snomed.info/sct"}],"text":"Outpatient procedure (procedure)"}]}},{"resource":{"class":{"code":"WELLNESS"},"id":"a7e719a9-9c4d-4196-a3b7-8f7fdf6a985c","meta":{"lastUpdated":"2019-04-09T09:57:47.686277+00:00","versionId":"MTU1NDgwMzg2NzY4NjI3NzAwMA"},"participant":[{"individual":{"reference":"Practitioner/f426ec46-b3b9-4259-93bc-3972d2d34c89"}}],"period":{"end":"2016-01-10T10:59:59-05:00","start":"2016-01-10T10:44:59-05:00"},"resourceType":"Encounter","serviceProvider":{"reference":"Organization/b5106795-a455-454b-8962-6c5232594630"},"status":"finished","subject":{"reference":"Patient/00c8c9ed-65fe-4f9a-8e75-7d31ac64a04b"},"type":[{"coding":[{"code":"185349003","display":"Encounter for check up (procedure)","system":"http://snomed.info/sct"}],"text":"Encounter for check up (procedure)"}]}},{"resource":{"class":{"code":"URGENTCARE"},"id":"a9c41c78-b055-4597-9ca9-629853dfac21","meta":{"lastUpdated":"2019-04-09T09:57:24.702483+00:00","versionId":"MTU1NDgwMzg0NDcwMjQ4MzAwMA"},"participant":[{"individual":{"reference":"Practitioner/10bd6f21-a8d8-44eb-94c1-5eb7fa9920ba"}}],"period":{"end":"2011-04-10T11:59:59-04:00","start":"2011-04-10T11:44:59-04:00"},"resourceType":"Encounter","serviceProvider":{"reference":"Organization/958d48d5-22b1-4971-9dda-f5992f666ea4"},"status":"finished","subject":{"reference":"Patient/00c8c9ed-65fe-4f9a-8e75-7d31ac64a04b"},"type":[{"coding":[{"code":"371883000","display":"Outpatient procedure (procedure)","system":"http://snomed.info/sct"}],"text":"Outpatient procedure (procedure)"}]}},{"resource":{"class":{"code":"WELLNESS"},"id":"aab12746-91ef-4e4c-871d-ad6e33970676","meta":{"lastUpdated":"2019-04-09T09:57:13.350532+00:00","versionId":"MTU1NDgwMzgzMzM1MDUzMjAwMA"},"participant":[{"individual":{"reference":"Practitioner/f426ec46-b3b9-4259-93bc-3972d2d34c89"}}],"period":{"end":"2009-06-07T12:14:59-04:00","start":"2009-06-07T11:44:59-04:00"},"resourceType":"Encounter","serviceProvider":{"reference":"Organization/b5106795-a455-454b-8962-6c5232594630"},"status":"finished","subject":{"reference":"Patient/00c8c9ed-65fe-4f9a-8e75-7d31ac64a04b"},"type":[{"coding":[{"code":"185349003","display":"Encounter for check up (procedure)","system":"http://snomed.info/sct"}],"text":"Encounter for check up (procedure)"}]}},{"resource":{"class":{"code":"URGENTCARE"},"id":"adc1a736-9447-4a31-9549-bb5151769c87","meta":{"lastUpdated":"2019-04-09T09:57:41.164645+00:00","versionId":"MTU1NDgwMzg2MTE2NDY0NTAwMA"},"participant":[{"individual":{"reference":"Practitioner/10bd6f21-a8d8-44eb-94c1-5eb7fa9920ba"}}],"period":{"end":"2015-01-11T10:59:59-05:00","start":"2015-01-11T10:44:59-05:00"},"resourceType":"Encounter","serviceProvider":{"reference":"Organization/958d48d5-22b1-4971-9dda-f5992f666ea4"},"status":"finished","subject":{"reference":"Patient/00c8c9ed-65fe-4f9a-8e75-7d31ac64a04b"},"type":[{"coding":[{"code":"371883000","display":"Outpatient procedure (procedure)","system":"http://snomed.info/sct"}],"text":"Outpatient procedure (procedure)"}]}},{"resource":{"class":{"code":"URGENTCARE"},"id":"ae5fb9b0-f0b5-489c-902d-a2dccbef7e1c","meta":{"lastUpdated":"2019-04-09T09:57:34.931532+00:00","versionId":"MTU1NDgwMzg1NDkzMTUzMjAwMA"},"participant":[{"individual":{"reference":"Practitioner/10bd6f21-a8d8-44eb-94c1-5eb7fa9920ba"}}],"period":{"end":"2013-11-17T10:59:59-05:00","start":"2013-11-17T10:44:59-05:00"},"resourceType":"Encounter","serviceProvider":{"reference":"Organization/958d48d5-22b1-4971-9dda-f5992f666ea4"},"status":"finished","subject":{"reference":"Patient/00c8c9ed-65fe-4f9a-8e75-7d31ac64a04b"},"type":[{"coding":[{"code":"371883000","display":"Outpatient procedure (procedure)","system":"http://snomed.info/sct"}],"text":"Outpatient procedure (procedure)"}]}},{"resource":{"class":{"code":"URGENTCARE"},"id":"aedff3df-da64-4612-b4f8-4134dd0cdb46","meta":{"lastUpdated":"2019-04-09T09:58:01.362748+00:00","versionId":"MTU1NDgwMzg4MTM2Mjc0ODAwMA"},"participant":[{"individual":{"reference":"Practitioner/10bd6f21-a8d8-44eb-94c1-5eb7fa9920ba"}}],"period":{"end":"2017-12-24T10:59:59-05:00","start":"2017-12-24T10:44:59-05:00"},"resourceType":"Encounter","serviceProvider":{"reference":"Organization/958d48d5-22b1-4971-9dda-f5992f666ea4"},"status":"finished","subject":{"reference":"Patient/00c8c9ed-65fe-4f9a-8e75-7d31ac64a04b"},"type":[{"coding":[{"code":"371883000","display":"Outpatient procedure (procedure)","system":"http://snomed.info/sct"}],"text":"Outpatient procedure (procedure)"}]}},{"resource":{"class":{"code":"WELLNESS"},"id":"b0ab14f8-36e6-431f-b7c9-d320e2945371","meta":{"lastUpdated":"2019-04-09T09:57:19.575415+00:00","versionId":"MTU1NDgwMzgzOTU3NTQxNTAwMA"},"participant":[{"individual":{"reference":"Practitioner/f426ec46-b3b9-4259-93bc-3972d2d34c89"}}],"period":{"end":"2010-06-06T12:14:59-04:00","start":"2010-06-06T11:44:59-04:00"},"resourceType":"Encounter","serviceProvider":{"reference":"Organization/b5106795-a455-454b-8962-6c5232594630"},"status":"finished","subject":{"reference":"Patient/00c8c9ed-65fe-4f9a-8e75-7d31ac64a04b"},"type":[{"coding":[{"code":"185349003","display":"Encounter for check up (procedure)","system":"http://snomed.info/sct"}],"text":"Encounter for check up (procedure)"}]}},{"resource":{"class":{"code":"URGENTCARE"},"id":"b8ad6fad-86bd-4061-b4dc-b308eec013ce","meta":{"lastUpdated":"2019-04-09T09:57:50.767823+00:00","versionId":"MTU1NDgwMzg3MDc2NzgyMzAwMA"},"participant":[{"individual":{"reference":"Practitioner/10bd6f21-a8d8-44eb-94c1-5eb7fa9920ba"}}],"period":{"end":"2016-07-31T11:59:59-04:00","start":"2016-07-31T11:44:59-04:00"},"resourceType":"Encounter","serviceProvider":{"reference":"Organization/958d48d5-22b1-4971-9dda-f5992f666ea4"},"status":"finished","subject":{"reference":"Patient/00c8c9ed-65fe-4f9a-8e75-7d31ac64a04b"},"type":[{"coding":[{"code":"371883000","display":"Outpatient procedure (procedure)","system":"http://snomed.info/sct"}],"text":"Outpatient procedure (procedure)"}]}},{"resource":{"class":{"code":"URGENTCARE"},"id":"bba481c6-e49b-4c05-8342-c2c1aef608fd","meta":{"lastUpdated":"2019-04-09T09:57:19.571928+00:00","versionId":"MTU1NDgwMzgzOTU3MTkyODAwMA"},"participant":[{"individual":{"reference":"Practitioner/10bd6f21-a8d8-44eb-94c1-5eb7fa9920ba"}}],"period":{"end":"2010-05-02T11:59:59-04:00","start":"2010-05-02T11:44:59-04:00"},"resourceType":"Encounter","serviceProvider":{"reference":"Organization/958d48d5-22b1-4971-9dda-f5992f666ea4"},"status":"finished","subject":{"reference":"Patient/00c8c9ed-65fe-4f9a-8e75-7d31ac64a04b"},"type":[{"coding":[{"code":"371883000","display":"Outpatient procedure (procedure)","system":"http://snomed.info/sct"}],"text":"Outpatient procedure (procedure)"}]}},{"resource":{"class":{"code":"URGENTCARE"},"id":"bec67aad-e7b8-4937-a0e4-817f2bf3132d","meta":{"lastUpdated":"2019-04-09T09:57:52.949432+00:00","versionId":"MTU1NDgwMzg3Mjk0OTQzMjAwMA"},"participant":[{"individual":{"reference":"Practitioner/10bd6f21-a8d8-44eb-94c1-5eb7fa9920ba"}}],"period":{"end":"2016-10-02T11:59:59-04:00","start":"2016-10-02T11:44:59-04:00"},"resourceType":"Encounter","serviceProvider":{"reference":"Organization/958d48d5-22b1-4971-9dda-f5992f666ea4"},"status":"finished","subject":{"reference":"Patient/00c8c9ed-65fe-4f9a-8e75-7d31ac64a04b"},"type":[{"coding":[{"code":"371883000","display":"Outpatient procedure (procedure)","system":"http://snomed.info/sct"}],"text":"Outpatient procedure (procedure)"}]}},{"resource":{"class":{"code":"WELLNESS"},"id":"bedcae49-1dbc-4f46-bd7e-6fd42fd2a362","meta":{"lastUpdated":"2019-04-09T09:57:27.774044+00:00","versionId":"MTU1NDgwMzg0Nzc3NDA0NDAwMA"},"participant":[{"individual":{"reference":"Practitioner/f426ec46-b3b9-4259-93bc-3972d2d34c89"}}],"period":{"end":"2011-10-30T11:59:59-04:00","start":"2011-10-30T11:44:59-04:00"},"resourceType":"Encounter","serviceProvider":{"reference":"Organization/b5106795-a455-454b-8962-6c5232594630"},"status":"finished","subject":{"reference":"Patient/00c8c9ed-65fe-4f9a-8e75-7d31ac64a04b"},"type":[{"coding":[{"code":"185349003","display":"Encounter for check up (procedure)","system":"http://snomed.info/sct"}],"text":"Encounter for check up (procedure)"}]}},{"resource":{"class":{"code":"WELLNESS"},"id":"bf0f2bc0-48ac-4ffd-a990-e5c28e1771d8","meta":{"lastUpdated":"2019-04-09T09:57:39.067538+00:00","versionId":"MTU1NDgwMzg1OTA2NzUzODAwMA"},"participant":[{"individual":{"reference":"Practitioner/f426ec46-b3b9-4259-93bc-3972d2d34c89"}}],"period":{"end":"2014-06-15T11:59:59-04:00","start":"2014-06-15T11:44:59-04:00"},"resourceType":"Encounter","serviceProvider":{"reference":"Organization/b5106795-a455-454b-8962-6c5232594630"},"status":"finished","subject":{"reference":"Patient/00c8c9ed-65fe-4f9a-8e75-7d31ac64a04b"},"type":[{"coding":[{"code":"185349003","display":"Encounter for check up (procedure)","system":"http://snomed.info/sct"}],"text":"Encounter for check up (procedure)"}]}},{"resource":{"class":{"code":"WELLNESS"},"id":"c141a25b-0b7e-46db-a46c-779f906014ff","meta":{"lastUpdated":"2019-04-09T09:57:18.556204+00:00","versionId":"MTU1NDgwMzgzODU1NjIwNDAwMA"},"participant":[{"individual":{"reference":"Practitioner/f426ec46-b3b9-4259-93bc-3972d2d34c89"}}],"period":{"end":"2010-04-11T11:59:59-04:00","start":"2010-04-11T11:44:59-04:00"},"resourceType":"Encounter","serviceProvider":{"reference":"Organization/b5106795-a455-454b-8962-6c5232594630"},"status":"finished","subject":{"reference":"Patient/00c8c9ed-65fe-4f9a-8e75-7d31ac64a04b"},"type":[{"coding":[{"code":"185349003","display":"Encounter for check up (procedure)","system":"http://snomed.info/sct"}],"text":"Encounter for check up (procedure)"}]}},{"resource":{"class":{"code":"URGENTCARE"},"id":"c214191f-12ec-4753-81dd-44a4a57f9ca2","meta":{"lastUpdated":"2019-04-09T09:57:42.279976+00:00","versionId":"MTU1NDgwMzg2MjI3OTk3NjAwMA"},"participant":[{"individual":{"reference":"Practitioner/10bd6f21-a8d8-44eb-94c1-5eb7fa9920ba"}}],"period":{"end":"2015-04-05T11:59:59-04:00","start":"2015-04-05T11:44:59-04:00"},"resourceType":"Encounter","serviceProvider":{"reference":"Organization/958d48d5-22b1-4971-9dda-f5992f666ea4"},"status":"finished","subject":{"reference":"Patient/00c8c9ed-65fe-4f9a-8e75-7d31ac64a04b"},"type":[{"coding":[{"code":"371883000","display":"Outpatient procedure (procedure)","system":"http://snomed.info/sct"}],"text":"Outpatient procedure (procedure)"}]}},{"resource":{"class":{"code":"URGENTCARE"},"id":"c4c73a06-3bc4-483b-af05-8510ffaf9828","meta":{"lastUpdated":"2019-04-09T09:57:28.746253+00:00","versionId":"MTU1NDgwMzg0ODc0NjI1MzAwMA"},"participant":[{"individual":{"reference":"Practitioner/10bd6f21-a8d8-44eb-94c1-5eb7fa9920ba"}}],"period":{"end":"2012-03-25T11:59:59-04:00","start":"2012-03-25T11:44:59-04:00"},"resourceType":"Encounter","serviceProvider":{"reference":"Organization/958d48d5-22b1-4971-9dda-f5992f666ea4"},"status":"finished","subject":{"reference":"Patient/00c8c9ed-65fe-4f9a-8e75-7d31ac64a04b"},"type":[{"coding":[{"code":"371883000","display":"Outpatient procedure (procedure)","system":"http://snomed.info/sct"}],"text":"Outpatient procedure (procedure)"}]}},{"resource":{"class":{"code":"URGENTCARE"},"id":"c4d1f4b2-888a-41ff-8570-1ad7d64d7e97","meta":{"lastUpdated":"2019-04-09T09:58:01.336147+00:00","versionId":"MTU1NDgwMzg4MTMzNjE0NzAwMA"},"participant":[{"individual":{"reference":"Practitioner/10bd6f21-a8d8-44eb-94c1-5eb7fa9920ba"}}],"period":{"end":"2018-02-18T10:59:59-05:00","start":"2018-02-18T10:44:59-05:00"},"resourceType":"Encounter","serviceProvider":{"reference":"Organization/958d48d5-22b1-4971-9dda-f5992f666ea4"},"status":"finished","subject":{"reference":"Patient/00c8c9ed-65fe-4f9a-8e75-7d31ac64a04b"},"type":[{"coding":[{"code":"371883000","display":"Outpatient procedure (procedure)","system":"http://snomed.info/sct"}],"text":"Outpatient procedure (procedure)"}]}},{"resource":{"class":{"code":"WELLNESS"},"id":"c7283afd-e175-4848-9a21-a0c5366c4eda","meta":{"lastUpdated":"2019-04-09T09:57:52.954537+00:00","versionId":"MTU1NDgwMzg3Mjk1NDUzNzAwMA"},"participant":[{"individual":{"reference":"Practitioner/f426ec46-b3b9-4259-93bc-3972d2d34c89"}}],"period":{"end":"2016-10-09T11:59:59-04:00","start":"2016-10-09T11:44:59-04:00"},"resourceType":"Encounter","serviceProvider":{"reference":"Organization/b5106795-a455-454b-8962-6c5232594630"},"status":"finished","subject":{"reference":"Patient/00c8c9ed-65fe-4f9a-8e75-7d31ac64a04b"},"type":[{"coding":[{"code":"185349003","display":"Encounter for check up (procedure)","system":"http://snomed.info/sct"}],"text":"Encounter for check up (procedure)"}]}},{"resource":{"class":{"code":"URGENTCARE"},"id":"c9c3099a-196b-4fd7-88f7-bb84f1d64a34","meta":{"lastUpdated":"2019-04-09T09:57:41.158538+00:00","versionId":"MTU1NDgwMzg2MTE1ODUzODAwMA"},"participant":[{"individual":{"reference":"Practitioner/10bd6f21-a8d8-44eb-94c1-5eb7fa9920ba"}}],"period":{"end":"2014-12-07T10:59:59-05:00","start":"2014-12-07T10:44:59-05:00"},"resourceType":"Encounter","serviceProvider":{"reference":"Organization/958d48d5-22b1-4971-9dda-f5992f666ea4"},"status":"finished","subject":{"reference":"Patient/00c8c9ed-65fe-4f9a-8e75-7d31ac64a04b"},"type":[{"coding":[{"code":"371883000","display":"Outpatient procedure (procedure)","system":"http://snomed.info/sct"}],"text":"Outpatient procedure (procedure)"}]}},{"resource":{"class":{"code":"WELLNESS"},"id":"ca7bb630-f344-46a9-8329-906a8d708a97","meta":{"lastUpdated":"2019-04-09T09:57:29.758125+00:00","versionId":"MTU1NDgwMzg0OTc1ODEyNTAwMA"},"participant":[{"individual":{"reference":"Practitioner/f426ec46-b3b9-4259-93bc-3972d2d34c89"}}],"period":{"end":"2013-01-06T10:59:59-05:00","start":"2013-01-06T10:44:59-05:00"},"resourceType":"Encounter","serviceProvider":{"reference":"Organization/b5106795-a455-454b-8962-6c5232594630"},"status":"finished","subject":{"reference":"Patient/00c8c9ed-65fe-4f9a-8e75-7d31ac64a04b"},"type":[{"coding":[{"code":"185349003","display":"Encounter for check up (procedure)","system":"http://snomed.info/sct"}],"text":"Encounter for check up (procedure)"}]}},{"resource":{"class":{"code":"WELLNESS"},"id":"ca951e95-2560-427c-a867-b0172d854bba","meta":{"lastUpdated":"2019-04-09T09:57:16.501136+00:00","versionId":"MTU1NDgwMzgzNjUwMTEzNjAwMA"},"participant":[{"individual":{"reference":"Practitioner/f426ec46-b3b9-4259-93bc-3972d2d34c89"}}],"period":{"end":"2010-01-03T11:14:59-05:00","start":"2010-01-03T10:44:59-05:00"},"resourceType":"Encounter","serviceProvider":{"reference":"Organization/b5106795-a455-454b-8962-6c5232594630"},"status":"finished","subject":{"reference":"Patient/00c8c9ed-65fe-4f9a-8e75-7d31ac64a04b"},"type":[{"coding":[{"code":"185349003","display":"Encounter for check up (procedure)","system":"http://snomed.info/sct"}],"text":"Encounter for check up (procedure)"}]}},{"resource":{"class":{"code":"WELLNESS"},"id":"caa990ac-6063-45f3-9e13-13cc9cfb0484","meta":{"lastUpdated":"2019-04-09T09:57:15.463305+00:00","versionId":"MTU1NDgwMzgzNTQ2MzMwNTAwMA"},"participant":[{"individual":{"reference":"Practitioner/f426ec46-b3b9-4259-93bc-3972d2d34c89"}}],"period":{"end":"2009-09-06T11:59:59-04:00","start":"2009-09-06T11:44:59-04:00"},"resourceType":"Encounter","serviceProvider":{"reference":"Organization/b5106795-a455-454b-8962-6c5232594630"},"status":"finished","subject":{"reference":"Patient/00c8c9ed-65fe-4f9a-8e75-7d31ac64a04b"},"type":[{"coding":[{"code":"185349003","display":"Encounter for check up (procedure)","system":"http://snomed.info/sct"}],"text":"Encounter for check up (procedure)"}]}},{"resource":{"class":{"code":"ambulatory"},"id":"cd3cba46-f486-4d32-9b45-317eb44b927f","meta":{"lastUpdated":"2019-04-09T09:57:33.922621+00:00","versionId":"MTU1NDgwMzg1MzkyMjYyMTAwMA"},"participant":[{"individual":{"reference":"Practitioner/f426ec46-b3b9-4259-93bc-3972d2d34c89"}}],"period":{"end":"2013-08-10T11:59:59-04:00","start":"2013-08-10T11:44:59-04:00"},"reason":[{"coding":[{"code":"55822004","display":"Hyperlipidemia","system":"http://snomed.info/sct"}]}],"resourceType":"Encounter","serviceProvider":{"reference":"Organization/b5106795-a455-454b-8962-6c5232594630"},"status":"finished","subject":{"reference":"Patient/00c8c9ed-65fe-4f9a-8e75-7d31ac64a04b"},"type":[{"coding":[{"code":"390906007","display":"Follow-up encounter","system":"http://snomed.info/sct"}],"text":"Follow-up encounter"}]}},{"resource":{"class":{"code":"URGENTCARE"},"id":"ce211085-82c0-4d3c-bf2a-fedbd784af2f","meta":{"lastUpdated":"2019-04-09T09:58:05.558623+00:00","versionId":"MTU1NDgwMzg4NTU1ODYyMzAwMA"},"participant":[{"individual":{"reference":"Practitioner/10bd6f21-a8d8-44eb-94c1-5eb7fa9920ba"}}],"period":{"end":"2018-10-28T11:59:59-04:00","start":"2018-10-28T11:44:59-04:00"},"resourceType":"Encounter","serviceProvider":{"reference":"Organization/958d48d5-22b1-4971-9dda-f5992f666ea4"},"status":"finished","subject":{"reference":"Patient/00c8c9ed-65fe-4f9a-8e75-7d31ac64a04b"},"type":[{"coding":[{"code":"371883000","display":"Outpatient procedure (procedure)","system":"http://snomed.info/sct"}],"text":"Outpatient procedure (procedure)"}]}},{"resource":{"class":{"code":"URGENTCARE"},"id":"cf5a9101-1cfc-470c-8e14-5af37a23ff05","meta":{"lastUpdated":"2019-04-09T09:57:25.749025+00:00","versionId":"MTU1NDgwMzg0NTc0OTAyNTAwMA"},"participant":[{"individual":{"reference":"Practitioner/10bd6f21-a8d8-44eb-94c1-5eb7fa9920ba"}}],"period":{"end":"2011-05-29T11:59:59-04:00","start":"2011-05-29T11:44:59-04:00"},"resourceType":"Encounter","serviceProvider":{"reference":"Organization/958d48d5-22b1-4971-9dda-f5992f666ea4"},"status":"finished","subject":{"reference":"Patient/00c8c9ed-65fe-4f9a-8e75-7d31ac64a04b"},"type":[{"coding":[{"code":"371883000","display":"Outpatient procedure (procedure)","system":"http://snomed.info/sct"}],"text":"Outpatient procedure (procedure)"}]}},{"resource":{"class":{"code":"URGENTCARE"},"id":"d0b832fe-74ce-45be-a21f-11261c60b236","meta":{"lastUpdated":"2019-04-09T09:57:49.723009+00:00","versionId":"MTU1NDgwMzg2OTcyMzAwOTAwMA"},"participant":[{"individual":{"reference":"Practitioner/10bd6f21-a8d8-44eb-94c1-5eb7fa9920ba"}}],"period":{"end":"2016-05-08T11:59:59-04:00","start":"2016-05-08T11:44:59-04:00"},"resourceType":"Encounter","serviceProvider":{"reference":"Organization/958d48d5-22b1-4971-9dda-f5992f666ea4"},"status":"finished","subject":{"reference":"Patient/00c8c9ed-65fe-4f9a-8e75-7d31ac64a04b"},"type":[{"coding":[{"code":"371883000","display":"Outpatient procedure (procedure)","system":"http://snomed.info/sct"}],"text":"Outpatient procedure (procedure)"}]}},{"resource":{"class":{"code":"URGENTCARE"},"id":"d0b8b2fb-cf05-4109-bc3d-595d3f0d665c","meta":{"lastUpdated":"2019-04-09T09:58:05.528190+00:00","versionId":"MTU1NDgwMzg4NTUyODE5MDAwMA"},"participant":[{"individual":{"reference":"Practitioner/10bd6f21-a8d8-44eb-94c1-5eb7fa9920ba"}}],"period":{"end":"2018-10-21T11:59:59-04:00","start":"2018-10-21T11:44:59-04:00"},"resourceType":"Encounter","serviceProvider":{"reference":"Organization/958d48d5-22b1-4971-9dda-f5992f666ea4"},"status":"finished","subject":{"reference":"Patient/00c8c9ed-65fe-4f9a-8e75-7d31ac64a04b"},"type":[{"coding":[{"code":"371883000","display":"Outpatient procedure (procedure)","system":"http://snomed.info/sct"}],"text":"Outpatient procedure (procedure)"}]}},{"resource":{"class":{"code":"URGENTCARE"},"id":"d315df91-2a7a-4b45-a9b9-bd0eb5574384","meta":{"lastUpdated":"2019-04-09T09:57:27.762839+00:00","versionId":"MTU1NDgwMzg0Nzc2MjgzOTAwMA"},"participant":[{"individual":{"reference":"Practitioner/10bd6f21-a8d8-44eb-94c1-5eb7fa9920ba"}}],"period":{"end":"2011-10-23T11:59:59-04:00","start":"2011-10-23T11:44:59-04:00"},"resourceType":"Encounter","serviceProvider":{"reference":"Organization/958d48d5-22b1-4971-9dda-f5992f666ea4"},"status":"finished","subject":{"reference":"Patient/00c8c9ed-65fe-4f9a-8e75-7d31ac64a04b"},"type":[{"coding":[{"code":"371883000","display":"Outpatient procedure (procedure)","system":"http://snomed.info/sct"}],"text":"Outpatient procedure (procedure)"}]}},{"resource":{"class":{"code":"WELLNESS"},"id":"d4c3d8aa-689a-4a9d-870b-68040e534bc7","meta":{"lastUpdated":"2019-04-09T09:58:00.211945+00:00","versionId":"MTU1NDgwMzg4MDIxMTk0NTAwMA"},"participant":[{"individual":{"reference":"Practitioner/f426ec46-b3b9-4259-93bc-3972d2d34c89"}}],"period":{"end":"2017-10-29T11:59:59-04:00","start":"2017-10-29T11:44:59-04:00"},"resourceType":"Encounter","serviceProvider":{"reference":"Organization/b5106795-a455-454b-8962-6c5232594630"},"status":"finished","subject":{"reference":"Patient/00c8c9ed-65fe-4f9a-8e75-7d31ac64a04b"},"type":[{"coding":[{"code":"185349003","display":"Encounter for check up (procedure)","system":"http://snomed.info/sct"}],"text":"Encounter for check up (procedure)"}]}},{"resource":{"class":{"code":"URGENTCARE"},"id":"d6813069-0462-496f-a75c-e71d1bab249a","meta":{"lastUpdated":"2019-04-09T09:58:02.373733+00:00","versionId":"MTU1NDgwMzg4MjM3MzczMzAwMA"},"participant":[{"individual":{"reference":"Practitioner/10bd6f21-a8d8-44eb-94c1-5eb7fa9920ba"}}],"period":{"end":"2018-04-22T11:59:59-04:00","start":"2018-04-22T11:44:59-04:00"},"resourceType":"Encounter","serviceProvider":{"reference":"Organization/958d48d5-22b1-4971-9dda-f5992f666ea4"},"status":"finished","subject":{"reference":"Patient/00c8c9ed-65fe-4f9a-8e75-7d31ac64a04b"},"type":[{"coding":[{"code":"371883000","display":"Outpatient procedure (procedure)","system":"http://snomed.info/sct"}],"text":"Outpatient procedure (procedure)"}]}},{"resource":{"class":{"code":"URGENTCARE"},"id":"da320fcd-bf02-46cb-89eb-915f35c8d818","meta":{"lastUpdated":"2019-04-09T09:57:45.480313+00:00","versionId":"MTU1NDgwMzg2NTQ4MDMxMzAwMA"},"participant":[{"individual":{"reference":"Practitioner/10bd6f21-a8d8-44eb-94c1-5eb7fa9920ba"}}],"period":{"end":"2015-10-04T11:59:59-04:00","start":"2015-10-04T11:44:59-04:00"},"resourceType":"Encounter","serviceProvider":{"reference":"Organization/958d48d5-22b1-4971-9dda-f5992f666ea4"},"status":"finished","subject":{"reference":"Patient/00c8c9ed-65fe-4f9a-8e75-7d31ac64a04b"},"type":[{"coding":[{"code":"371883000","display":"Outpatient procedure (procedure)","system":"http://snomed.info/sct"}],"text":"Outpatient procedure (procedure)"}]}},{"resource":{"class":{"code":"WELLNESS"},"id":"daf8f6d9-4c78-4657-ad76-2ac189379168","meta":{"lastUpdated":"2019-04-09T09:58:04.486044+00:00","versionId":"MTU1NDgwMzg4NDQ4NjA0NDAwMA"},"participant":[{"individual":{"reference":"Practitioner/f426ec46-b3b9-4259-93bc-3972d2d34c89"}}],"period":{"end":"2018-09-23T11:59:59-04:00","start":"2018-09-23T11:44:59-04:00"},"resourceType":"Encounter","serviceProvider":{"reference":"Organization/b5106795-a455-454b-8962-6c5232594630"},"status":"finished","subject":{"reference":"Patient/00c8c9ed-65fe-4f9a-8e75-7d31ac64a04b"},"type":[{"coding":[{"code":"185349003","display":"Encounter for check up (procedure)","system":"http://snomed.info/sct"}],"text":"Encounter for check up (procedure)"}]}},{"resource":{"class":{"code":"URGENTCARE"},"id":"dc00316c-5497-48f3-93f3-282987010195","meta":{"lastUpdated":"2019-04-09T09:57:54.006722+00:00","versionId":"MTU1NDgwMzg3NDAwNjcyMjAwMA"},"participant":[{"individual":{"reference":"Practitioner/10bd6f21-a8d8-44eb-94c1-5eb7fa9920ba"}}],"period":{"end":"2016-12-25T10:59:59-05:00","start":"2016-12-25T10:44:59-05:00"},"resourceType":"Encounter","serviceProvider":{"reference":"Organization/958d48d5-22b1-4971-9dda-f5992f666ea4"},"status":"finished","subject":{"reference":"Patient/00c8c9ed-65fe-4f9a-8e75-7d31ac64a04b"},"type":[{"coding":[{"code":"371883000","display":"Outpatient procedure (procedure)","system":"http://snomed.info/sct"}],"text":"Outpatient procedure (procedure)"}]}},{"resource":{"class":{"code":"WELLNESS"},"id":"dc12ebf1-9c9e-4bda-a89b-2f4d9dc2be2c","meta":{"lastUpdated":"2019-04-09T09:57:12.328603+00:00","versionId":"MTU1NDgwMzgzMjMyODYwMzAwMA"},"participant":[{"individual":{"reference":"Practitioner/f426ec46-b3b9-4259-93bc-3972d2d34c89"}}],"period":{"end":"2009-03-15T12:14:59-04:00","start":"2009-03-15T11:44:59-04:00"},"resourceType":"Encounter","serviceProvider":{"reference":"Organization/b5106795-a455-454b-8962-6c5232594630"},"status":"finished","subject":{"reference":"Patient/00c8c9ed-65fe-4f9a-8e75-7d31ac64a04b"},"type":[{"coding":[{"code":"185349003","display":"Encounter for check up (procedure)","system":"http://snomed.info/sct"}],"text":"Encounter for check up (procedure)"}]}},{"resource":{"class":{"code":"ambulatory"},"id":"dc64fe09-b7c9-4d87-83d2-8870d42419ba","meta":{"lastUpdated":"2019-04-09T09:57:25.705861+00:00","versionId":"MTU1NDgwMzg0NTcwNTg2MTAwMA"},"participant":[{"individual":{"reference":"Practitioner/f426ec46-b3b9-4259-93bc-3972d2d34c89"}}],"period":{"end":"2011-06-22T11:59:59-04:00","start":"2011-06-22T11:44:59-04:00"},"reason":[{"coding":[{"code":"444814009","display":"Viral sinusitis (disorder)","system":"http://snomed.info/sct"}]}],"resourceType":"Encounter","serviceProvider":{"reference":"Organization/b5106795-a455-454b-8962-6c5232594630"},"status":"finished","subject":{"reference":"Patient/00c8c9ed-65fe-4f9a-8e75-7d31ac64a04b"},"type":[{"coding":[{"code":"185345009","display":"Encounter for symptom","system":"http://snomed.info/sct"}],"text":"Encounter for symptom"}]}},{"resource":{"class":{"code":"ambulatory"},"id":"e10eac72-54b0-4adf-8307-85bef0f1f1fc","meta":{"lastUpdated":"2019-04-09T09:57:50.789319+00:00","versionId":"MTU1NDgwMzg3MDc4OTMxOTAwMA"},"participant":[{"individual":{"reference":"Practitioner/f426ec46-b3b9-4259-93bc-3972d2d34c89"}}],"period":{"end":"2016-08-09T11:59:59-04:00","start":"2016-08-09T11:44:59-04:00"},"reason":[{"coding":[{"code":"55822004","display":"Hyperlipidemia","system":"http://snomed.info/sct"}]}],"resourceType":"Encounter","serviceProvider":{"reference":"Organization/b5106795-a455-454b-8962-6c5232594630"},"status":"finished","subject":{"reference":"Patient/00c8c9ed-65fe-4f9a-8e75-7d31ac64a04b"},"type":[{"coding":[{"code":"390906007","display":"Follow-up encounter","system":"http://snomed.info/sct"}],"text":"Follow-up encounter"}]}},{"resource":{"class":{"code":"URGENTCARE"},"id":"e3f280ad-6977-467a-aacf-0495cc21342d","meta":{"lastUpdated":"2019-04-09T09:57:40.134039+00:00","versionId":"MTU1NDgwMzg2MDEzNDAzOTAwMA"},"participant":[{"individual":{"reference":"Practitioner/10bd6f21-a8d8-44eb-94c1-5eb7fa9920ba"}}],"period":{"end":"2014-08-10T11:59:59-04:00","start":"2014-08-10T11:44:59-04:00"},"resourceType":"Encounter","serviceProvider":{"reference":"Organization/958d48d5-22b1-4971-9dda-f5992f666ea4"},"status":"finished","subject":{"reference":"Patient/00c8c9ed-65fe-4f9a-8e75-7d31ac64a04b"},"type":[{"coding":[{"code":"371883000","display":"Outpatient procedure (procedure)","system":"http://snomed.info/sct"}],"text":"Outpatient procedure (procedure)"}]}},{"resource":{"class":{"code":"URGENTCARE"},"id":"e41f7dab-0283-4de4-abef-10c307a7ea3b","meta":{"lastUpdated":"2019-04-09T09:58:00.210159+00:00","versionId":"MTU1NDgwMzg4MDIxMDE1OTAwMA"},"participant":[{"individual":{"reference":"Practitioner/10bd6f21-a8d8-44eb-94c1-5eb7fa9920ba"}}],"period":{"end":"2017-10-01T11:59:59-04:00","start":"2017-10-01T11:44:59-04:00"},"resourceType":"Encounter","serviceProvider":{"reference":"Organization/958d48d5-22b1-4971-9dda-f5992f666ea4"},"status":"finished","subject":{"reference":"Patient/00c8c9ed-65fe-4f9a-8e75-7d31ac64a04b"},"type":[{"coding":[{"code":"371883000","display":"Outpatient procedure (procedure)","system":"http://snomed.info/sct"}],"text":"Outpatient procedure (procedure)"}]}},{"resource":{"class":{"code":"URGENTCARE"},"id":"e6fa3ef8-df7c-4d60-921e-f67fc6187c00","meta":{"lastUpdated":"2019-04-09T09:57:49.717196+00:00","versionId":"MTU1NDgwMzg2OTcxNzE5NjAwMA"},"participant":[{"individual":{"reference":"Practitioner/10bd6f21-a8d8-44eb-94c1-5eb7fa9920ba"}}],"period":{"end":"2016-05-29T11:59:59-04:00","start":"2016-05-29T11:44:59-04:00"},"resourceType":"Encounter","serviceProvider":{"reference":"Organization/958d48d5-22b1-4971-9dda-f5992f666ea4"},"status":"finished","subject":{"reference":"Patient/00c8c9ed-65fe-4f9a-8e75-7d31ac64a04b"},"type":[{"coding":[{"code":"371883000","display":"Outpatient procedure (procedure)","system":"http://snomed.info/sct"}],"text":"Outpatient procedure (procedure)"}]}},{"resource":{"class":{"code":"WELLNESS"},"id":"eb4aa10a-3166-429f-b0a7-f4cbb7c91e40","meta":{"lastUpdated":"2019-04-09T09:57:32.869086+00:00","versionId":"MTU1NDgwMzg1Mjg2OTA4NjAwMA"},"participant":[{"individual":{"reference":"Practitioner/f426ec46-b3b9-4259-93bc-3972d2d34c89"}}],"period":{"end":"2013-07-14T11:59:59-04:00","start":"2013-07-14T11:44:59-04:00"},"resourceType":"Encounter","serviceProvider":{"reference":"Organization/b5106795-a455-454b-8962-6c5232594630"},"status":"finished","subject":{"reference":"Patient/00c8c9ed-65fe-4f9a-8e75-7d31ac64a04b"},"type":[{"coding":[{"code":"185349003","display":"Encounter for check up (procedure)","system":"http://snomed.info/sct"}],"text":"Encounter for check up (procedure)"}]}},{"resource":{"class":{"code":"WELLNESS"},"id":"ec8f4011-99cc-4bb7-a419-eda9b495b179","meta":{"lastUpdated":"2019-04-09T09:57:22.659454+00:00","versionId":"MTU1NDgwMzg0MjY1OTQ1NDAwMA"},"participant":[{"individual":{"reference":"Practitioner/f426ec46-b3b9-4259-93bc-3972d2d34c89"}}],"period":{"end":"2011-01-02T11:14:59-05:00","start":"2011-01-02T10:44:59-05:00"},"resourceType":"Encounter","serviceProvider":{"reference":"Organization/b5106795-a455-454b-8962-6c5232594630"},"status":"finished","subject":{"reference":"Patient/00c8c9ed-65fe-4f9a-8e75-7d31ac64a04b"},"type":[{"coding":[{"code":"185349003","display":"Encounter for check up (procedure)","system":"http://snomed.info/sct"}],"text":"Encounter for check up (procedure)"}]}},{"resource":{"class":{"code":"URGENTCARE"},"id":"efb3fbd6-1fe0-4515-bf95-85fec747b655","meta":{"lastUpdated":"2019-04-09T09:58:01.338007+00:00","versionId":"MTU1NDgwMzg4MTMzODAwNzAwMA"},"participant":[{"individual":{"reference":"Practitioner/10bd6f21-a8d8-44eb-94c1-5eb7fa9920ba"}}],"period":{"end":"2017-12-31T10:59:59-05:00","start":"2017-12-31T10:44:59-05:00"},"resourceType":"Encounter","serviceProvider":{"reference":"Organization/958d48d5-22b1-4971-9dda-f5992f666ea4"},"status":"finished","subject":{"reference":"Patient/00c8c9ed-65fe-4f9a-8e75-7d31ac64a04b"},"type":[{"coding":[{"code":"371883000","display":"Outpatient procedure (procedure)","system":"http://snomed.info/sct"}],"text":"Outpatient procedure (procedure)"}]}},{"resource":{"class":{"code":"ambulatory"},"id":"f0d3d881-f9f1-4b90-a147-aeae98bbb47e","meta":{"lastUpdated":"2019-04-09T09:57:40.139374+00:00","versionId":"MTU1NDgwMzg2MDEzOTM3NDAwMA"},"participant":[{"individual":{"reference":"Practitioner/f426ec46-b3b9-4259-93bc-3972d2d34c89"}}],"period":{"end":"2014-08-10T11:59:59-04:00","start":"2014-08-10T11:44:59-04:00"},"reason":[{"coding":[{"code":"55822004","display":"Hyperlipidemia","system":"http://snomed.info/sct"}]}],"resourceType":"Encounter","serviceProvider":{"reference":"Organization/b5106795-a455-454b-8962-6c5232594630"},"status":"finished","subject":{"reference":"Patient/00c8c9ed-65fe-4f9a-8e75-7d31ac64a04b"},"type":[{"coding":[{"code":"390906007","display":"Follow-up encounter","system":"http://snomed.info/sct"}],"text":"Follow-up encounter"}]}},{"resource":{"class":{"code":"WELLNESS"},"id":"f113af6a-56ba-4c39-8e70-4da410a0f373","meta":{"lastUpdated":"2019-04-09T09:57:35.993077+00:00","versionId":"MTU1NDgwMzg1NTk5MzA3NzAwMA"},"participant":[{"individual":{"reference":"Practitioner/f426ec46-b3b9-4259-93bc-3972d2d34c89"}}],"period":{"end":"2014-02-09T10:59:59-05:00","start":"2014-02-09T10:44:59-05:00"},"resourceType":"Encounter","serviceProvider":{"reference":"Organization/b5106795-a455-454b-8962-6c5232594630"},"status":"finished","subject":{"reference":"Patient/00c8c9ed-65fe-4f9a-8e75-7d31ac64a04b"},"type":[{"coding":[{"code":"185349003","display":"Encounter for check up (procedure)","system":"http://snomed.info/sct"}],"text":"Encounter for check up (procedure)"}]}},{"resource":{"class":{"code":"WELLNESS"},"id":"f1de480a-84a1-4274-8852-004b228e07da","meta":{"lastUpdated":"2019-04-09T09:57:48.709575+00:00","versionId":"MTU1NDgwMzg2ODcwOTU3NTAwMA"},"participant":[{"individual":{"reference":"Practitioner/f426ec46-b3b9-4259-93bc-3972d2d34c89"}}],"period":{"end":"2016-03-06T10:59:59-05:00","start":"2016-03-06T10:44:59-05:00"},"resourceType":"Encounter","serviceProvider":{"reference":"Organization/b5106795-a455-454b-8962-6c5232594630"},"status":"finished","subject":{"reference":"Patient/00c8c9ed-65fe-4f9a-8e75-7d31ac64a04b"},"type":[{"coding":[{"code":"185349003","display":"Encounter for check up (procedure)","system":"http://snomed.info/sct"}],"text":"Encounter for check up (procedure)"}]}},{"resource":{"class":{"code":"EMERGENCY"},"id":"f39afb54-3663-43c5-bc72-8c888ac762be","meta":{"lastUpdated":"2019-04-09T09:57:24.695579+00:00","versionId":"MTU1NDgwMzg0NDY5NTU3OTAwMA"},"participant":[{"individual":{"reference":"Practitioner/f426ec46-b3b9-4259-93bc-3972d2d34c89"}}],"period":{"end":"2011-04-03T12:44:59-04:00","start":"2011-04-03T11:44:59-04:00"},"resourceType":"Encounter","serviceProvider":{"reference":"Organization/b5106795-a455-454b-8962-6c5232594630"},"status":"finished","subject":{"reference":"Patient/00c8c9ed-65fe-4f9a-8e75-7d31ac64a04b"},"type":[{"coding":[{"code":"50849002","display":"Emergency Encounter","system":"http://snomed.info/sct"}],"text":"Emergency Encounter"}]}},{"resource":{"class":{"code":"WELLNESS"},"id":"f3d97342-a817-49bc-9578-e38a0da06edb","meta":{"lastUpdated":"2019-04-09T09:57:20.775932+00:00","versionId":"MTU1NDgwMzg0MDc3NTkzMjAwMA"},"participant":[{"individual":{"reference":"Practitioner/f426ec46-b3b9-4259-93bc-3972d2d34c89"}}],"period":{"end":"2010-08-01T12:14:59-04:00","start":"2010-08-01T11:44:59-04:00"},"resourceType":"Encounter","serviceProvider":{"reference":"Organization/b5106795-a455-454b-8962-6c5232594630"},"status":"finished","subject":{"reference":"Patient/00c8c9ed-65fe-4f9a-8e75-7d31ac64a04b"},"type":[{"coding":[{"code":"185349003","display":"Encounter for check up (procedure)","system":"http://snomed.info/sct"}],"text":"Encounter for check up (procedure)"}]}},{"resource":{"class":{"code":"WELLNESS"},"id":"f412de40-daa0-47f9-9d00-a977fcbd093c","meta":{"lastUpdated":"2019-04-09T09:58:02.371934+00:00","versionId":"MTU1NDgwMzg4MjM3MTkzNDAwMA"},"participant":[{"individual":{"reference":"Practitioner/f426ec46-b3b9-4259-93bc-3972d2d34c89"}}],"period":{"end":"2018-04-29T12:14:59-04:00","start":"2018-04-29T11:44:59-04:00"},"resourceType":"Encounter","serviceProvider":{"reference":"Organization/b5106795-a455-454b-8962-6c5232594630"},"status":"finished","subject":{"reference":"Patient/00c8c9ed-65fe-4f9a-8e75-7d31ac64a04b"},"type":[{"coding":[{"code":"185349003","display":"Encounter for check up (procedure)","system":"http://snomed.info/sct"}],"text":"Encounter for check up (procedure)"}]}},{"resource":{"class":{"code":"WELLNESS"},"id":"f7f9f3cc-943b-4683-bbf7-2dcd93675dd1","meta":{"lastUpdated":"2019-04-09T09:57:27.777346+00:00","versionId":"MTU1NDgwMzg0Nzc3NzM0NjAwMA"},"participant":[{"individual":{"reference":"Practitioner/f426ec46-b3b9-4259-93bc-3972d2d34c89"}}],"period":{"end":"2012-01-01T11:14:59-05:00","start":"2012-01-01T10:44:59-05:00"},"resourceType":"Encounter","serviceProvider":{"reference":"Organization/b5106795-a455-454b-8962-6c5232594630"},"status":"finished","subject":{"reference":"Patient/00c8c9ed-65fe-4f9a-8e75-7d31ac64a04b"},"type":[{"coding":[{"code":"185349003","display":"Encounter for check up (procedure)","system":"http://snomed.info/sct"}],"text":"Encounter for check up (procedure)"}]}},{"resource":{"class":{"code":"URGENTCARE"},"id":"f8a30c3e-5ced-4cf2-bce8-3123e162a5d2","meta":{"lastUpdated":"2019-04-09T09:57:53.988487+00:00","versionId":"MTU1NDgwMzg3Mzk4ODQ4NzAwMA"},"participant":[{"individual":{"reference":"Practitioner/10bd6f21-a8d8-44eb-94c1-5eb7fa9920ba"}}],"period":{"end":"2016-11-27T10:59:59-05:00","start":"2016-11-27T10:44:59-05:00"},"resourceType":"Encounter","serviceProvider":{"reference":"Organization/958d48d5-22b1-4971-9dda-f5992f666ea4"},"status":"finished","subject":{"reference":"Patient/00c8c9ed-65fe-4f9a-8e75-7d31ac64a04b"},"type":[{"coding":[{"code":"371883000","display":"Outpatient procedure (procedure)","system":"http://snomed.info/sct"}],"text":"Outpatient procedure (procedure)"}]}},{"resource":{"class":{"code":"URGENTCARE"},"id":"f8ba4362-f9b1-4b70-8695-6e104ed3d6f3","meta":{"lastUpdated":"2019-04-09T09:57:39.056557+00:00","versionId":"MTU1NDgwMzg1OTA1NjU1NzAwMA"},"participant":[{"individual":{"reference":"Practitioner/10bd6f21-a8d8-44eb-94c1-5eb7fa9920ba"}}],"period":{"end":"2014-07-13T11:59:59-04:00","start":"2014-07-13T11:44:59-04:00"},"resourceType":"Encounter","serviceProvider":{"reference":"Organization/958d48d5-22b1-4971-9dda-f5992f666ea4"},"status":"finished","subject":{"reference":"Patient/00c8c9ed-65fe-4f9a-8e75-7d31ac64a04b"},"type":[{"coding":[{"code":"371883000","display":"Outpatient procedure (procedure)","system":"http://snomed.info/sct"}],"text":"Outpatient procedure (procedure)"}]}},{"resource":{"class":{"code":"WELLNESS"},"id":"fb1a4d20-00e4-4253-b72c-bb22cf7be316","meta":{"lastUpdated":"2019-04-09T09:57:48.702716+00:00","versionId":"MTU1NDgwMzg2ODcwMjcxNjAwMA"},"participant":[{"individual":{"reference":"Practitioner/f426ec46-b3b9-4259-93bc-3972d2d34c89"}}],"period":{"end":"2016-02-07T10:59:59-05:00","start":"2016-02-07T10:44:59-05:00"},"resourceType":"Encounter","serviceProvider":{"reference":"Organization/b5106795-a455-454b-8962-6c5232594630"},"status":"finished","subject":{"reference":"Patient/00c8c9ed-65fe-4f9a-8e75-7d31ac64a04b"},"type":[{"coding":[{"code":"185349003","display":"Encounter for check up (procedure)","system":"http://snomed.info/sct"}],"text":"Encounter for check up (procedure)"}]}},{"resource":{"class":{"code":"URGENTCARE"},"id":"fc920919-4476-4f91-b058-c34f5213a094","meta":{"lastUpdated":"2019-04-09T09:57:24.701514+00:00","versionId":"MTU1NDgwMzg0NDcwMTUxNDAwMA"},"participant":[{"individual":{"reference":"Practitioner/10bd6f21-a8d8-44eb-94c1-5eb7fa9920ba"}}],"period":{"end":"2011-04-17T11:59:59-04:00","start":"2011-04-17T11:44:59-04:00"},"resourceType":"Encounter","serviceProvider":{"reference":"Organization/958d48d5-22b1-4971-9dda-f5992f666ea4"},"status":"finished","subject":{"reference":"Patient/00c8c9ed-65fe-4f9a-8e75-7d31ac64a04b"},"type":[{"coding":[{"code":"371883000","display":"Outpatient procedure (procedure)","system":"http://snomed.info/sct"}],"text":"Outpatient procedure (procedure)"}]}},{"resource":{"class":{"code":"WELLNESS"},"id":"fcd5a4c8-3af7-4f92-9cb7-cf626279725c","meta":{"lastUpdated":"2019-04-09T09:57:34.975482+00:00","versionId":"MTU1NDgwMzg1NDk3NTQ4MjAwMA"},"participant":[{"individual":{"reference":"Practitioner/f426ec46-b3b9-4259-93bc-3972d2d34c89"}}],"period":{"end":"2013-12-15T11:14:59-05:00","start":"2013-12-15T10:44:59-05:00"},"resourceType":"Encounter","serviceProvider":{"reference":"Organization/b5106795-a455-454b-8962-6c5232594630"},"status":"finished","subject":{"reference":"Patient/00c8c9ed-65fe-4f9a-8e75-7d31ac64a04b"},"type":[{"coding":[{"code":"185349003","display":"Encounter for check up (procedure)","system":"http://snomed.info/sct"}],"text":"Encounter for check up (procedure)"}]}},{"resource":{"class":{"code":"WELLNESS"},"id":"fec909e0-8c86-464a-b7fa-785c40f6fad5","meta":{"lastUpdated":"2019-04-09T09:57:40.139369+00:00","versionId":"MTU1NDgwMzg2MDEzOTM2OTAwMA"},"participant":[{"individual":{"reference":"Practitioner/f426ec46-b3b9-4259-93bc-3972d2d34c89"}}],"period":{"end":"2014-07-20T11:59:59-04:00","start":"2014-07-20T11:44:59-04:00"},"resourceType":"Encounter","serviceProvider":{"reference":"Organization/b5106795-a455-454b-8962-6c5232594630"},"status":"finished","subject":{"reference":"Patient/00c8c9ed-65fe-4f9a-8e75-7d31ac64a04b"},"type":[{"coding":[{"code":"185349003","display":"Encounter for check up (procedure)","system":"http://snomed.info/sct"}],"text":"Encounter for check up (procedure)"}]}},{"resource":{"class":{"code":"URGENTCARE"},"id":"ff71f964-207d-4010-ab72-48e668733eab","meta":{"lastUpdated":"2019-04-09T09:58:06.547109+00:00","versionId":"MTU1NDgwMzg4NjU0NzEwOTAwMA"},"participant":[{"individual":{"reference":"Practitioner/10bd6f21-a8d8-44eb-94c1-5eb7fa9920ba"}}],"period":{"end":"2018-12-23T10:59:59-05:00","start":"2018-12-23T10:44:59-05:00"},"resourceType":"Encounter","serviceProvider":{"reference":"Organization/958d48d5-22b1-4971-9dda-f5992f666ea4"},"status":"finished","subject":{"reference":"Patient/00c8c9ed-65fe-4f9a-8e75-7d31ac64a04b"},"type":[{"coding":[{"code":"371883000","display":"Outpatient procedure (procedure)","system":"http://snomed.info/sct"}],"text":"Outpatient procedure (procedure)"}]}},{"resource":{"class":{"code":"URGENTCARE"},"id":"ffd35974-4b66-4e7f-a070-bf45a7b6610a","meta":{"lastUpdated":"2019-04-09T09:57:22.659891+00:00","versionId":"MTU1NDgwMzg0MjY1OTg5MTAwMA"},"participant":[{"individual":{"reference":"Practitioner/10bd6f21-a8d8-44eb-94c1-5eb7fa9920ba"}}],"period":{"end":"2010-10-31T11:59:59-04:00","start":"2010-10-31T11:44:59-04:00"},"resourceType":"Encounter","serviceProvider":{"reference":"Organization/958d48d5-22b1-4971-9dda-f5992f666ea4"},"status":"finished","subject":{"reference":"Patient/00c8c9ed-65fe-4f9a-8e75-7d31ac64a04b"},"type":[{"coding":[{"code":"371883000","display":"Outpatient procedure (procedure)","system":"http://snomed.info/sct"}],"text":"Outpatient procedure (procedure)"}]}},{"resource":{"billablePeriod":{"end":"2012-01-02T11:14:59-05:00","start":"2011-01-02T11:14:59-05:00"},"careTeam":[{"provider":{"identifier":{"system":"http://hl7.org/fhir/sid/us-npi","value":"99999999"}},"role":{"coding":[{"code":"primary","display":"Primary Care Practitioner","system":"http://hl7.org/fhir/claimcareteamrole"}]},"sequence":1}],"claim":{"reference":"Claim/33fc7696-61f6-4f5c-8be9-793171855deb"},"contained":[{"id":"1","intent":"order","recipient":[{"identifier":{"system":"http://hl7.org/fhir/sid/us-npi","value":"99999999"}}],"requester":{"agent":{"identifier":{"system":"http://hl7.org/fhir/sid/us-npi","value":"99999999"}}},"resourceType":"ReferralRequest","status":"completed","subject":{"reference":"Patient/00c8c9ed-65fe-4f9a-8e75-7d31ac64a04b"}},{"id":"coverage","resourceType":"Coverage","type":{"text":"private"}}],"created":"2011-01-02T11:14:59-05:00","id":"0101380b-322d-4ef4-b594-3b1e3ac00740","identifier":[{"system":"https://bluebutton.cms.gov/resources/variables/clm_id","value":"33fc7696-61f6-4f5c-8be9-793171855deb"},{"system":"https://bluebutton.cms.gov/resources/identifier/claim-group","value":"99999999999"}],"insurance":{"coverage":{"reference":"#coverage"}},"item":[{"category":{"coding":[{"code":"1","display":"Medical care","system":"https://bluebutton.cms.gov/resources/variables/line_cms_type_srvc_cd"}]},"encounter":[{"reference":"Encounter/ec8f4011-99cc-4bb7-a419-eda9b495b179"}],"locationCodeableConcept":{"coding":[{"code":"21","display":"Inpatient Hospital","system":"https://bluebutton.cms.gov/resources/variables/line_place_of_srvc_cd"}]},"sequence":1,"servicedPeriod":{"end":"2011-01-02T11:14:59-05:00","start":"2011-01-02T10:44:59-05:00"}},{"adjudication":[{"amount":{"code":"USD","system":"urn:iso:std:iso:4217","value":144.64600000000002},"category":{"coding":[{"code":"https://bluebutton.cms.gov/resources/variables/line_coinsrnc_amt","display":"Line Beneficiary Coinsurance Amount","system":"https://bluebutton.cms.gov/resources/codesystem/adjudication"}]}},{"amount":{"code":"USD","system":"urn:iso:std:iso:4217","value":578.5840000000001},"category":{"coding":[{"code":"https://bluebutton.cms.gov/resources/variables/line_prvdr_pmt_amt","display":"Line Provider Payment Amount","system":"https://bluebutton.cms.gov/resources/codesystem/adjudication"}]}},{"amount":{"code":"USD","system":"urn:iso:std:iso:4217","value":723.23},"category":{"coding":[{"code":"https://bluebutton.cms.gov/resources/variables/line_sbmtd_chrg_amt","display":"Line Submitted Charge Amount","system":"https://bluebutton.cms.gov/resources/codesystem/adjudication"}]}},{"amount":{"code":"USD","system":"urn:iso:std:iso:4217","value":723.23},"category":{"coding":[{"code":"https://bluebutton.cms.gov/resources/variables/line_alowd_chrg_amt","display":"Line Allowed Charge Amount","system":"https://bluebutton.cms.gov/resources/codesystem/adjudication"}]}},{"amount":{"code":"USD","system":"urn:iso:std:iso:4217","value":0},"category":{"coding":[{"code":"https://bluebutton.cms.gov/resources/variables/line_bene_ptb_ddctbl_amt","display":"Line Beneficiary Part B Deductible Amount","system":"https://bluebutton.cms.gov/resources/codesystem/adjudication"}]}},{"category":{"coding":[{"code":"https://bluebutton.cms.gov/resources/variables/line_prcsg_ind_cd","display":"Line Processing Indicator Code","system":"https://bluebutton.cms.gov/resources/codesystem/adjudication"}]},"reason":{"coding":[{"code":"A","display":"Allowed","system":"https://bluebutton.cms.gov/resources/variables/line_prcsg_ind_cd"}]}}],"category":{"coding":[{"code":"1","display":"Medical care","system":"https://bluebutton.cms.gov/resources/variables/line_cms_type_srvc_cd"}]},"locationCodeableConcept":{"coding":[{"code":"21","display":"Inpatient Hospital","system":"https://bluebutton.cms.gov/resources/variables/line_place_of_srvc_cd"}]},"net":{"code":"USD","system":"urn:iso:std:iso:4217","value":723.23},"sequence":2,"service":{"coding":[{"code":"428191000124101","system":"http://snomed.info/sct","version":"v1"}]},"servicedPeriod":{"end":"2011-01-02T11:14:59-05:00","start":"2011-01-02T10:44:59-05:00"}}],"meta":{"lastUpdated":"2019-04-09T09:57:23.674198+00:00","versionId":"MTU1NDgwMzg0MzY3NDE5ODAwMA"},"organization":{"identifier":{"value":"b5106795-a455-454b-8962-6c5232594630"}},"patient":{"reference":"Patient/00c8c9ed-65fe-4f9a-8e75-7d31ac64a04b"},"payment":{"amount":{"code":"USD","system":"urn:iso:std:iso:4217","value":578.5840000000001}},"provider":{"identifier":{"value":"f426ec46-b3b9-4259-93bc-3972d2d34c89"}},"referral":{"reference":"#1"},"resourceType":"ExplanationOfBenefit","status":"active","totalCost":{"code":"USD","system":"urn:iso:std:iso:4217","value":848.23},"type":{"coding":[{"code":"71","display":"Local carrier non-durable medical equipment, prosthetics, orthotics, and supplies (DMEPOS) claim","system":"https://bluebutton.cms.gov/resources/variables/nch_clm_type_cd"},{"code":"CARRIER","display":"EOB Type","system":"https://bluebutton.cms.gov/resources/codesystem/eob-type"},{"code":"professional","display":"Claim Type","system":"http://hl7.org/fhir/ex-claimtype"},{"code":"O","display":"Part B physician/supplier claim record (processed by local carriers; can include DMEPOS services)","system":"https://bluebutton.cms.gov/resources/variables/nch_near_line_rec_ident_cd"}]}}},{"resource":{"billablePeriod":{"end":"2010-05-10T11:59:59-04:00","start":"2009-05-10T11:59:59-04:00"},"careTeam":[{"provider":{"identifier":{"system":"http://hl7.org/fhir/sid/us-npi","value":"99999999"}},"role":{"coding":[{"code":"primary","display":"Primary Care Practitioner","system":"http://hl7.org/fhir/claimcareteamrole"}]},"sequence":1}],"claim":{"reference":"Claim/fa00fb09-6e83-453d-8e36-ea352ec75cdb"},"contained":[{"id":"1","intent":"order","recipient":[{"identifier":{"system":"http://hl7.org/fhir/sid/us-npi","value":"99999999"}}],"requester":{"agent":{"identifier":{"system":"http://hl7.org/fhir/sid/us-npi","value":"99999999"}}},"resourceType":"ReferralRequest","status":"completed","subject":{"reference":"Patient/00c8c9ed-65fe-4f9a-8e75-7d31ac64a04b"}},{"id":"coverage","resourceType":"Coverage","type":{"text":"private"}}],"created":"2009-05-10T11:59:59-04:00","id":"015a35fd-dddc-4d40-bf56-497b922d76f5","identifier":[{"system":"https://bluebutton.cms.gov/resources/variables/clm_id","value":"fa00fb09-6e83-453d-8e36-ea352ec75cdb"},{"system":"https://bluebutton.cms.gov/resources/identifier/claim-group","value":"99999999999"}],"insurance":{"coverage":{"reference":"#coverage"}},"item":[{"category":{"coding":[{"code":"1","display":"Medical care","system":"https://bluebutton.cms.gov/resources/variables/line_cms_type_srvc_cd"}]},"encounter":[{"reference":"Encounter/0b3a4ddb-10a6-4724-bfe8-6f36dc1d08a3"}],"locationCodeableConcept":{"coding":[{"code":"21","display":"Inpatient Hospital","system":"https://bluebutton.cms.gov/resources/variables/line_place_of_srvc_cd"}]},"sequence":1,"servicedPeriod":{"end":"2009-05-10T11:59:59-04:00","start":"2009-05-10T11:44:59-04:00"}}],"meta":{"lastUpdated":"2019-04-09T09:57:12.346441+00:00","versionId":"MTU1NDgwMzgzMjM0NjQ0MTAwMA"},"organization":{"identifier":{"value":"958d48d5-22b1-4971-9dda-f5992f666ea4"}},"patient":{"reference":"Patient/00c8c9ed-65fe-4f9a-8e75-7d31ac64a04b"},"payment":{"amount":{"code":"USD","system":"urn:iso:std:iso:4217","value":0}},"provider":{"identifier":{"value":"10bd6f21-a8d8-44eb-94c1-5eb7fa9920ba"}},"referral":{"reference":"#1"},"resourceType":"ExplanationOfBenefit","status":"active","totalCost":{"code":"USD","system":"urn:iso:std:iso:4217","value":125},"type":{"coding":[{"code":"71","display":"Local carrier non-durable medical equipment, prosthetics, orthotics, and supplies (DMEPOS) claim","system":"https://bluebutton.cms.gov/resources/variables/nch_clm_type_cd"},{"code":"CARRIER","display":"EOB Type","system":"https://bluebutton.cms.gov/resources/codesystem/eob-type"},{"code":"professional","display":"Claim Type","system":"http://hl7.org/fhir/ex-claimtype"},{"code":"O","display":"Part B physician/supplier claim record (processed by local carriers; can include DMEPOS services)","system":"https://bluebutton.cms.gov/resources/variables/nch_near_line_rec_ident_cd"}]}}},{"resource":{"billablePeriod":{"end":"2018-06-04T12:14:59-04:00","start":"2017-06-04T12:14:59-04:00"},"careTeam":[{"provider":{"identifier":{"system":"http://hl7.org/fhir/sid/us-npi","value":"99999999"}},"role":{"coding":[{"code":"primary","display":"Primary Care Practitioner","system":"http://hl7.org/fhir/claimcareteamrole"}]},"sequence":1}],"claim":{"reference":"Claim/a6d3f582-7bd4-4a30-86b0-f91848068aeb"},"contained":[{"id":"1","intent":"order","recipient":[{"identifier":{"system":"http://hl7.org/fhir/sid/us-npi","value":"99999999"}}],"requester":{"agent":{"identifier":{"system":"http://hl7.org/fhir/sid/us-npi","value":"99999999"}}},"resourceType":"ReferralRequest","status":"completed","subject":{"reference":"Patient/00c8c9ed-65fe-4f9a-8e75-7d31ac64a04b"}},{"id":"coverage","resourceType":"Coverage","type":{"text":"private"}}],"created":"2017-06-04T12:14:59-04:00","id":"01d62bc1-82c7-4ec2-b6cf-78ded90f3bd8","identifier":[{"system":"https://bluebutton.cms.gov/resources/variables/clm_id","value":"a6d3f582-7bd4-4a30-86b0-f91848068aeb"},{"system":"https://bluebutton.cms.gov/resources/identifier/claim-group","value":"99999999999"}],"insurance":{"coverage":{"reference":"#coverage"}},"item":[{"category":{"coding":[{"code":"1","display":"Medical care","system":"https://bluebutton.cms.gov/resources/variables/line_cms_type_srvc_cd"}]},"encounter":[{"reference":"Encounter/3f782eac-dd26-426e-a7ae-4ee44f4e99d0"}],"locationCodeableConcept":{"coding":[{"code":"21","display":"Inpatient Hospital","system":"https://bluebutton.cms.gov/resources/variables/line_place_of_srvc_cd"}]},"sequence":1,"servicedPeriod":{"end":"2017-06-04T12:14:59-04:00","start":"2017-06-04T11:44:59-04:00"}},{"adjudication":[{"amount":{"code":"USD","system":"urn:iso:std:iso:4217","value":110.346},"category":{"coding":[{"code":"https://bluebutton.cms.gov/resources/variables/line_coinsrnc_amt","display":"Line Beneficiary Coinsurance Amount","system":"https://bluebutton.cms.gov/resources/codesystem/adjudication"}]}},{"amount":{"code":"USD","system":"urn:iso:std:iso:4217","value":441.384},"category":{"coding":[{"code":"https://bluebutton.cms.gov/resources/variables/line_prvdr_pmt_amt","display":"Line Provider Payment Amount","system":"https://bluebutton.cms.gov/resources/codesystem/adjudication"}]}},{"amount":{"code":"USD","system":"urn:iso:std:iso:4217","value":551.73},"category":{"coding":[{"code":"https://bluebutton.cms.gov/resources/variables/line_sbmtd_chrg_amt","display":"Line Submitted Charge Amount","system":"https://bluebutton.cms.gov/resources/codesystem/adjudication"}]}},{"amount":{"code":"USD","system":"urn:iso:std:iso:4217","value":551.73},"category":{"coding":[{"code":"https://bluebutton.cms.gov/resources/variables/line_alowd_chrg_amt","display":"Line Allowed Charge Amount","system":"https://bluebutton.cms.gov/resources/codesystem/adjudication"}]}},{"amount":{"code":"USD","system":"urn:iso:std:iso:4217","value":0},"category":{"coding":[{"code":"https://bluebutton.cms.gov/resources/variables/line_bene_ptb_ddctbl_amt","display":"Line Beneficiary Part B Deductible Amount","system":"https://bluebutton.cms.gov/resources/codesystem/adjudication"}]}},{"category":{"coding":[{"code":"https://bluebutton.cms.gov/resources/variables/line_prcsg_ind_cd","display":"Line Processing Indicator Code","system":"https://bluebutton.cms.gov/resources/codesystem/adjudication"}]},"reason":{"coding":[{"code":"A","display":"Allowed","system":"https://bluebutton.cms.gov/resources/variables/line_prcsg_ind_cd"}]}}],"category":{"coding":[{"code":"1","display":"Medical care","system":"https://bluebutton.cms.gov/resources/variables/line_cms_type_srvc_cd"}]},"locationCodeableConcept":{"coding":[{"code":"21","display":"Inpatient Hospital","system":"https://bluebutton.cms.gov/resources/variables/line_place_of_srvc_cd"}]},"net":{"code":"USD","system":"urn:iso:std:iso:4217","value":551.73},"sequence":2,"service":{"coding":[{"code":"428191000124101","system":"http://snomed.info/sct","version":"v1"}]},"servicedPeriod":{"end":"2017-06-04T12:14:59-04:00","start":"2017-06-04T11:44:59-04:00"}}],"meta":{"lastUpdated":"2019-04-09T09:57:57.090266+00:00","versionId":"MTU1NDgwMzg3NzA5MDI2NjAwMA"},"organization":{"identifier":{"value":"b5106795-a455-454b-8962-6c5232594630"}},"patient":{"reference":"Patient/00c8c9ed-65fe-4f9a-8e75-7d31ac64a04b"},"payment":{"amount":{"code":"USD","system":"urn:iso:std:iso:4217","value":441.384}},"provider":{"identifier":{"value":"f426ec46-b3b9-4259-93bc-3972d2d34c89"}},"referral":{"reference":"#1"},"resourceType":"ExplanationOfBenefit","status":"active","totalCost":{"code":"USD","system":"urn:iso:std:iso:4217","value":676.73},"type":{"coding":[{"code":"71","display":"Local carrier non-durable medical equipment, prosthetics, orthotics, and supplies (DMEPOS) claim","system":"https://bluebutton.cms.gov/resources/variables/nch_clm_type_cd"},{"code":"CARRIER","display":"EOB Type","system":"https://bluebutton.cms.gov/resources/codesystem/eob-type"},{"code":"professional","display":"Claim Type","system":"http://hl7.org/fhir/ex-claimtype"},{"code":"O","display":"Part B physician/supplier claim record (processed by local carriers; can include DMEPOS services)","system":"https://bluebutton.cms.gov/resources/variables/nch_near_line_rec_ident_cd"}]}}},{"resource":{"billablePeriod":{"end":"2010-10-11T11:59:59-04:00","start":"2009-10-11T11:59:59-04:00"},"careTeam":[{"provider":{"identifier":{"system":"http://hl7.org/fhir/sid/us-npi","value":"99999999"}},"role":{"coding":[{"code":"primary","display":"Primary Care Practitioner","system":"http://hl7.org/fhir/claimcareteamrole"}]},"sequence":1}],"claim":{"reference":"Claim/65852b84-62ea-484f-ab83-320ca604a99d"},"contained":[{"id":"1","intent":"order","recipient":[{"identifier":{"system":"http://hl7.org/fhir/sid/us-npi","value":"99999999"}}],"requester":{"agent":{"identifier":{"system":"http://hl7.org/fhir/sid/us-npi","value":"99999999"}}},"resourceType":"ReferralRequest","status":"completed","subject":{"reference":"Patient/00c8c9ed-65fe-4f9a-8e75-7d31ac64a04b"}},{"id":"coverage","resourceType":"Coverage","type":{"text":"private"}}],"created":"2009-10-11T11:59:59-04:00","id":"043ab378-ee28-4d0f-9e5d-14964e92f585","identifier":[{"system":"https://bluebutton.cms.gov/resources/variables/clm_id","value":"65852b84-62ea-484f-ab83-320ca604a99d"},{"system":"https://bluebutton.cms.gov/resources/identifier/claim-group","value":"99999999999"}],"insurance":{"coverage":{"reference":"#coverage"}},"item":[{"category":{"coding":[{"code":"1","display":"Medical care","system":"https://bluebutton.cms.gov/resources/variables/line_cms_type_srvc_cd"}]},"encounter":[{"reference":"Encounter/462f1a24-8937-4806-927f-bf570af2977b"}],"locationCodeableConcept":{"coding":[{"code":"21","display":"Inpatient Hospital","system":"https://bluebutton.cms.gov/resources/variables/line_place_of_srvc_cd"}]},"sequence":1,"servicedPeriod":{"end":"2009-10-11T11:59:59-04:00","start":"2009-10-11T11:44:59-04:00"}}],"meta":{"lastUpdated":"2019-04-09T09:57:16.495355+00:00","versionId":"MTU1NDgwMzgzNjQ5NTM1NTAwMA"},"organization":{"identifier":{"value":"958d48d5-22b1-4971-9dda-f5992f666ea4"}},"patient":{"reference":"Patient/00c8c9ed-65fe-4f9a-8e75-7d31ac64a04b"},"payment":{"amount":{"code":"USD","system":"urn:iso:std:iso:4217","value":0}},"provider":{"identifier":{"value":"10bd6f21-a8d8-44eb-94c1-5eb7fa9920ba"}},"referral":{"reference":"#1"},"resourceType":"ExplanationOfBenefit","status":"active","totalCost":{"code":"USD","system":"urn:iso:std:iso:4217","value":125},"type":{"coding":[{"code":"71","display":"Local carrier non-durable medical equipment, prosthetics, orthotics, and supplies (DMEPOS) claim","system":"https://bluebutton.cms.gov/resources/variables/nch_clm_type_cd"},{"code":"CARRIER","display":"EOB Type","system":"https://bluebutton.cms.gov/resources/codesystem/eob-type"},{"code":"professional","display":"Claim Type","system":"http://hl7.org/fhir/ex-claimtype"},{"code":"O","display":"Part B physician/supplier claim record (processed by local carriers; can include DMEPOS services)","system":"https://bluebutton.cms.gov/resources/variables/nch_near_line_rec_ident_cd"}]}}},{"resource":{"billablePeriod":{"end":"2014-05-19T11:59:59-04:00","start":"2013-05-19T11:59:59-04:00"},"careTeam":[{"provider":{"identifier":{"system":"http://hl7.org/fhir/sid/us-npi","value":"99999999"}},"role":{"coding":[{"code":"primary","display":"Primary Care Practitioner","system":"http://hl7.org/fhir/claimcareteamrole"}]},"sequence":1}],"claim":{"reference":"Claim/d2b47df2-6b55-404a-8752-42474f541f84"},"contained":[{"id":"1","intent":"order","recipient":[{"identifier":{"system":"http://hl7.org/fhir/sid/us-npi","value":"99999999"}}],"requester":{"agent":{"identifier":{"system":"http://hl7.org/fhir/sid/us-npi","value":"99999999"}}},"resourceType":"ReferralRequest","status":"completed","subject":{"reference":"Patient/00c8c9ed-65fe-4f9a-8e75-7d31ac64a04b"}},{"id":"coverage","resourceType":"Coverage","type":{"text":"private"}}],"created":"2013-05-19T11:59:59-04:00","id":"0518b9ac-d59f-45ae-8f30-3c55a76a5b82","identifier":[{"system":"https://bluebutton.cms.gov/resources/variables/clm_id","value":"d2b47df2-6b55-404a-8752-42474f541f84"},{"system":"https://bluebutton.cms.gov/resources/identifier/claim-group","value":"99999999999"}],"insurance":{"coverage":{"reference":"#coverage"}},"item":[{"category":{"coding":[{"code":"1","display":"Medical care","system":"https://bluebutton.cms.gov/resources/variables/line_cms_type_srvc_cd"}]},"encounter":[{"reference":"Encounter/0d9c9cd4-c437-486b-8074-9206f6b15da0"}],"locationCodeableConcept":{"coding":[{"code":"21","display":"Inpatient Hospital","system":"https://bluebutton.cms.gov/resources/variables/line_place_of_srvc_cd"}]},"sequence":1,"servicedPeriod":{"end":"2013-05-19T11:59:59-04:00","start":"2013-05-19T11:44:59-04:00"}}],"meta":{"lastUpdated":"2019-04-09T09:57:31.835383+00:00","versionId":"MTU1NDgwMzg1MTgzNTM4MzAwMA"},"organization":{"identifier":{"value":"b5106795-a455-454b-8962-6c5232594630"}},"patient":{"reference":"Patient/00c8c9ed-65fe-4f9a-8e75-7d31ac64a04b"},"payment":{"amount":{"code":"USD","system":"urn:iso:std:iso:4217","value":0}},"provider":{"identifier":{"value":"f426ec46-b3b9-4259-93bc-3972d2d34c89"}},"referral":{"reference":"#1"},"resourceType":"ExplanationOfBenefit","status":"active","totalCost":{"code":"USD","system":"urn:iso:std:iso:4217","value":125},"type":{"coding":[{"code":"71","display":"Local carrier non-durable medical equipment, prosthetics, orthotics, and supplies (DMEPOS) claim","system":"https://bluebutton.cms.gov/resources/variables/nch_clm_type_cd"},{"code":"CARRIER","display":"EOB Type","system":"https://bluebutton.cms.gov/resources/codesystem/eob-type"},{"code":"professional","display":"Claim Type","system":"http://hl7.org/fhir/ex-claimtype"},{"code":"O","display":"Part B physician/supplier claim record (processed by local carriers; can include DMEPOS services)","system":"https://bluebutton.cms.gov/resources/variables/nch_near_line_rec_ident_cd"}]}}},{"resource":{"billablePeriod":{"end":"2016-08-10T11:59:59-04:00","extension":[{"url":"https://bluebutton.cms.gov/assets/ig/StructureDefinition-bluebutton-inpatient-claim-query-cd-extension","valueCoding":{"code":"3","display":"Final Bill","system":"https://bluebutton.cms.gov/assets/ig/ValueSet-claim-query-cd"}}],"start":"2015-08-10T11:59:59-04:00"},"careTeam":[{"provider":{"identifier":{"system":"http://hl7.org/fhir/sid/us-npi","value":"99999999"}},"role":{"coding":[{"code":"primary","display":"Primary Care Practitioner","system":"http://hl7.org/fhir/claimcareteamrole"}]},"sequence":1}],"contained":[{"id":"coverage","resourceType":"Coverage","type":{"text":"private"}}],"extension":[{"url":"https://bluebutton.cms.gov/assets/ig/StructureDefinition-bluebutton-inpatient-ime-op-clm-val-amt-extension","valueMoney":{"code":"USD","system":"urn:iso:std:iso:4217","value":400}},{"url":"https://bluebutton.cms.gov/assets/ig/StructureDefinition-bluebutton-inpatient-dsh-op-clm-val-amt-extension","valueMoney":{"code":"USD","system":"urn:iso:std:iso:4217","value":0}},{"url":"https://bluebutton.cms.gov/assets/ig/StructureDefinition-bluebutton-inpatient-clm-pass-thru-per-diem-amt-extension","valueMoney":{"code":"USD","system":"urn:iso:std:iso:4217","value":0}},{"url":"https://bluebutton.cms.gov/assets/ig/StructureDefinition-bluebutton-inpatient-nch-profnl-cmpnt-chrg-amt-extension","valueMoney":{"code":"USD","system":"urn:iso:std:iso:4217","value":0}},{"url":"https://bluebutton.cms.gov/assets/ig/StructureDefinition-bluebutton-inpatient-clm-tot-pps-cptl-amt-extension","valueMoney":{"code":"USD","system":"urn:iso:std:iso:4217","value":0}},{"url":"https://bluebutton.cms.gov/assets/ig/StructureDefinition-bluebutton-inpatient-nch-bene-ip-ddctbl-amt-extension","valueMoney":{"code":"USD","system":"urn:iso:std:iso:4217","value":0}},{"url":"https://bluebutton.cms.gov/assets/ig/StructureDefinition-bluebutton-inpatient-nch-bene-pta-coinsrnc-lblty-amt-extension","valueMoney":{"code":"USD","system":"urn:iso:std:iso:4217","value":0}},{"url":"https://bluebutton.cms.gov/assets/ig/StructureDefinition-bluebutton-inpatient-nch-ip-ncvrd-chrg-amt-extension","valueMoney":{"code":"USD","system":"urn:iso:std:iso:4217","value":0}},{"url":"https://bluebutton.cms.gov/assets/ig/StructureDefinition-bluebutton-inpatient-nch-ip-tot-ddctn-amt-extension","valueMoney":{"code":"USD","system":"urn:iso:std:iso:4217","value":0}},{"url":"https://bluebutton.cms.gov/assets/ig/StructureDefinition-bluebutton-inpatient-clm-pps-cptl-dsprprtnt-shr-amt-extension","valueMoney":{"code":"USD","system":"urn:iso:std:iso:4217","value":0}},{"url":"https://bluebutton.cms.gov/assets/ig/StructureDefinition-bluebutton-inpatient-clm-pps-cptl-excptn-amt-extension","valueMoney":{"code":"USD","system":"urn:iso:std:iso:4217","value":0}},{"url":"https://bluebutton.cms.gov/assets/ig/StructureDefinition-bluebutton-inpatient-clm-pps-cptl-fsp-amt-extension","valueMoney":{"code":"USD","system":"urn:iso:std:iso:4217","value":0}},{"url":"https://bluebutton.cms.gov/assets/ig/StructureDefinition-bluebutton-inpatient-clm-pps-cptl-ime-amt-extension","valueMoney":{"code":"USD","system":"urn:iso:std:iso:4217","value":400}},{"url":"https://bluebutton.cms.gov/assets/ig/StructureDefinition-bluebutton-inpatient-clm-pps-cptl-outlier-amt-extension","valueMoney":{"code":"USD","system":"urn:iso:std:iso:4217","value":0}},{"url":"https://bluebutton.cms.gov/assets/ig/StructureDefinition-bluebutton-inpatient-clm-pps-old-cptl-hld-hrmls-amt-extension","valueMoney":{"code":"USD","system":"urn:iso:std:iso:4217","value":0}},{"url":"https://bluebutton.cms.gov/assets/ig/StructureDefinition-bluebutton-inpatient-nch-drg-outlier-aprvd-pmt-amt-extension","valueMoney":{"code":"USD","system":"urn:iso:std:iso:4217","value":0}},{"url":"https://bluebutton.cms.gov/assets/ig/StructureDefinition-bluebutton-inpatient-nch-bene-blood-ddctbl-lblty-am-extension","valueMoney":{"code":"USD","system":"urn:iso:std:iso:4217","value":0}},{"url":"https://bluebutton.cms.gov/assets/ig/StructureDefinition-bluebutton-inpatient-clm-mdcr-non-pmt-rsn-cd-extension","valueCoding":{"code":"N","display":"All other reasons for non-payment","system":"https://bluebutton.cms.gov/assets/ig/CodeSystem-clm-mdcr-non-pmt-rsn-cd"}},{"url":"https://bluebutton.cms.gov/assets/ig/StructureDefinition-bluebutton-inpatient-prpayamt-extension","valueMoney":{"code":"USD","system":"urn:iso:std:iso:4217","value":0}},{"url":"https://bluebutton.cms.gov/assets/ig/StructureDefinition-bluebutton-inpatient-fi-num-extension","valueIdentifier":{"system":"https://bluebutton.cms.gov/assets/ig/CodeSystem-fi-num","value":"002000"}}],"id":"076d483a-1c57-43d0-80bb-8ac65d654d86","identifier":[{"system":"https://bluebutton.cms.gov/resources/variables/clm_id","value":"24418164-a14d-406c-b4e8-ebba23e996a1"},{"system":"https://bluebutton.cms.gov/resources/identifier/claim-group","value":"99999999999"}],"insurance":{"coverage":{"reference":"#coverage"}},"item":[{"extension":[{"url":"https://bluebutton.cms.gov/assets/ig/StructureDefinition-bluebutton-inpatient-rev-cntr-ndc-qty-extension","valueQuantity":{"value":0}}],"locationCodeableConcept":{"coding":[{"code":"21","display":"Inpatient Hospital","system":"https://bluebutton.cms.gov/resources/variables/line_place_of_srvc_cd"}]},"sequence":1}],"meta":{"lastUpdated":"2019-04-09T09:57:45.473120+00:00","profile":["https://bluebutton.cms.gov/assets/ig/StructureDefinition-bluebutton-inpatient-claim"],"versionId":"MTU1NDgwMzg2NTQ3MzEyMDAwMA"},"organization":{"identifier":{"value":"b5106795-a455-454b-8962-6c5232594630"}},"patient":{"reference":"Patient/00c8c9ed-65fe-4f9a-8e75-7d31ac64a04b"},"payment":{"amount":{"code":"USD","system":"urn:iso:std:iso:4217","value":0}},"provider":{"identifier":{"value":"f426ec46-b3b9-4259-93bc-3972d2d34c89"}},"resourceType":"ExplanationOfBenefit","status":"active","totalCost":{"code":"USD","system":"urn:iso:std:iso:4217","value":125},"type":{"coding":[{"code":"71","display":"Local carrier non-durable medical equipment, prosthetics, orthotics, and supplies (DMEPOS) claim","system":"https://bluebutton.cms.gov/resources/variables/nch_clm_type_cd"},{"code":"CARRIER","display":"EOB Type","system":"https://bluebutton.cms.gov/resources/codesystem/eob-type"},{"code":"professional","display":"Claim Type","system":"http://hl7.org/fhir/ex-claimtype"},{"code":"O","display":"Part B physician/supplier claim record (processed by local carriers; can include DMEPOS services)","system":"https://bluebutton.cms.gov/resources/variables/nch_near_line_rec_ident_cd"}]}}},{"resource":{"billablePeriod":{"end":"2016-06-14T11:59:59-04:00","start":"2015-06-14T11:59:59-04:00"},"careTeam":[{"provider":{"identifier":{"system":"http://hl7.org/fhir/sid/us-npi","value":"99999999"}},"role":{"coding":[{"code":"primary","display":"Primary Care Practitioner","system":"http://hl7.org/fhir/claimcareteamrole"}]},"sequence":1}],"claim":{"reference":"Claim/7b2ad7be-dced-410c-8490-77f48d4ce888"},"contained":[{"id":"1","intent":"order","recipient":[{"identifier":{"system":"http://hl7.org/fhir/sid/us-npi","value":"99999999"}}],"requester":{"agent":{"identifier":{"system":"http://hl7.org/fhir/sid/us-npi","value":"99999999"}}},"resourceType":"ReferralRequest","status":"completed","subject":{"reference":"Patient/00c8c9ed-65fe-4f9a-8e75-7d31ac64a04b"}},{"id":"coverage","resourceType":"Coverage","type":{"text":"private"}}],"created":"2015-06-14T11:59:59-04:00","id":"07fa16f9-4512-47b4-85fd-bb385ab0348b","identifier":[{"system":"https://bluebutton.cms.gov/resources/variables/clm_id","value":"7b2ad7be-dced-410c-8490-77f48d4ce888"},{"system":"https://bluebutton.cms.gov/resources/identifier/claim-group","value":"99999999999"}],"insurance":{"coverage":{"reference":"#coverage"}},"item":[{"category":{"coding":[{"code":"1","display":"Medical care","system":"https://bluebutton.cms.gov/resources/variables/line_cms_type_srvc_cd"}]},"encounter":[{"reference":"Encounter/8db5f699-97d5-4d73-8577-28abe283fa02"}],"locationCodeableConcept":{"coding":[{"code":"21","display":"Inpatient Hospital","system":"https://bluebutton.cms.gov/resources/variables/line_place_of_srvc_cd"}]},"sequence":1,"servicedPeriod":{"end":"2015-06-14T11:59:59-04:00","start":"2015-06-14T11:44:59-04:00"}}],"meta":{"lastUpdated":"2019-04-09T09:57:43.385959+00:00","versionId":"MTU1NDgwMzg2MzM4NTk1OTAwMA"},"organization":{"identifier":{"value":"b5106795-a455-454b-8962-6c5232594630"}},"patient":{"reference":"Patient/00c8c9ed-65fe-4f9a-8e75-7d31ac64a04b"},"payment":{"amount":{"code":"USD","system":"urn:iso:std:iso:4217","value":0}},"provider":{"identifier":{"value":"f426ec46-b3b9-4259-93bc-3972d2d34c89"}},"referral":{"reference":"#1"},"resourceType":"ExplanationOfBenefit","status":"active","totalCost":{"code":"USD","system":"urn:iso:std:iso:4217","value":125},"type":{"coding":[{"code":"71","display":"Local carrier non-durable medical equipment, prosthetics, orthotics, and supplies (DMEPOS) claim","system":"https://bluebutton.cms.gov/resources/variables/nch_clm_type_cd"},{"code":"CARRIER","display":"EOB Type","system":"https://bluebutton.cms.gov/resources/codesystem/eob-type"},{"code":"professional","display":"Claim Type","system":"http://hl7.org/fhir/ex-claimtype"},{"code":"O","display":"Part B physician/supplier claim record (processed by local carriers; can include DMEPOS services)","system":"https://bluebutton.cms.gov/resources/variables/nch_near_line_rec_ident_cd"}]}}},{"resource":{"billablePeriod":{"end":"2012-04-10T11:59:59-04:00","start":"2011-04-10T11:59:59-04:00"},"careTeam":[{"provider":{"identifier":{"system":"http://hl7.org/fhir/sid/us-npi","value":"99999999"}},"role":{"coding":[{"code":"primary","display":"Primary Care Practitioner","system":"http://hl7.org/fhir/claimcareteamrole"}]},"sequence":1}],"claim":{"reference":"Claim/93ef5551-7266-4e45-b6c3-a82b71680bd2"},"contained":[{"id":"1","intent":"order","recipient":[{"identifier":{"system":"http://hl7.org/fhir/sid/us-npi","value":"99999999"}}],"requester":{"agent":{"identifier":{"system":"http://hl7.org/fhir/sid/us-npi","value":"99999999"}}},"resourceType":"ReferralRequest","status":"completed","subject":{"reference":"Patient/00c8c9ed-65fe-4f9a-8e75-7d31ac64a04b"}},{"id":"coverage","resourceType":"Coverage","type":{"text":"private"}}],"created":"2011-04-10T11:59:59-04:00","id":"0827f00d-5087-4a35-994c-3837ea5e91a8","identifier":[{"system":"https://bluebutton.cms.gov/resources/variables/clm_id","value":"93ef5551-7266-4e45-b6c3-a82b71680bd2"},{"system":"https://bluebutton.cms.gov/resources/identifier/claim-group","value":"99999999999"}],"insurance":{"coverage":{"reference":"#coverage"}},"item":[{"category":{"coding":[{"code":"1","display":"Medical care","system":"https://bluebutton.cms.gov/resources/variables/line_cms_type_srvc_cd"}]},"encounter":[{"reference":"Encounter/a9c41c78-b055-4597-9ca9-629853dfac21"}],"locationCodeableConcept":{"coding":[{"code":"21","display":"Inpatient Hospital","system":"https://bluebutton.cms.gov/resources/variables/line_place_of_srvc_cd"}]},"sequence":1,"servicedPeriod":{"end":"2011-04-10T11:59:59-04:00","start":"2011-04-10T11:44:59-04:00"}}],"meta":{"lastUpdated":"2019-04-09T09:57:24.701694+00:00","versionId":"MTU1NDgwMzg0NDcwMTY5NDAwMA"},"organization":{"identifier":{"value":"958d48d5-22b1-4971-9dda-f5992f666ea4"}},"patient":{"reference":"Patient/00c8c9ed-65fe-4f9a-8e75-7d31ac64a04b"},"payment":{"amount":{"code":"USD","system":"urn:iso:std:iso:4217","value":0}},"provider":{"identifier":{"value":"10bd6f21-a8d8-44eb-94c1-5eb7fa9920ba"}},"referral":{"reference":"#1"},"resourceType":"ExplanationOfBenefit","status":"active","totalCost":{"code":"USD","system":"urn:iso:std:iso:4217","value":125},"type":{"coding":[{"code":"71","display":"Local carrier non-durable medical equipment, prosthetics, orthotics, and supplies (DMEPOS) claim","system":"https://bluebutton.cms.gov/resources/variables/nch_clm_type_cd"},{"code":"CARRIER","display":"EOB Type","system":"https://bluebutton.cms.gov/resources/codesystem/eob-type"},{"code":"professional","display":"Claim Type","system":"http://hl7.org/fhir/ex-claimtype"},{"code":"O","display":"Part B physician/supplier claim record (processed by local carriers; can include DMEPOS services)","system":"https://bluebutton.cms.gov/resources/variables/nch_near_line_rec_ident_cd"}]}}},{"resource":{"billablePeriod":{"end":"2001-07-30T11:59:59-04:00","start":"2000-07-30T11:59:59-04:00"},"careTeam":[{"provider":{"identifier":{"system":"http://hl7.org/fhir/sid/us-npi","value":"99999999"}},"role":{"coding":[{"code":"primary","display":"Primary Care Practitioner","system":"http://hl7.org/fhir/claimcareteamrole"}]},"sequence":1}],"claim":{"reference":"Claim/036a246c-432f-4dd4-bdde-7207073d282e"},"contained":[{"id":"1","intent":"order","recipient":[{"identifier":{"system":"http://hl7.org/fhir/sid/us-npi","value":"99999999"}}],"requester":{"agent":{"identifier":{"system":"http://hl7.org/fhir/sid/us-npi","value":"99999999"}}},"resourceType":"ReferralRequest","status":"completed","subject":{"reference":"Patient/00c8c9ed-65fe-4f9a-8e75-7d31ac64a04b"}},{"id":"coverage","resourceType":"Coverage","type":{"text":"private"}}],"created":"2000-07-30T11:59:59-04:00","diagnosis":[{"diagnosisReference":{"reference":"Condition/67a07096-78ab-4bab-bb7e-a39f39a01ed6"},"extension":[{"url":"https://bluebutton.cms.gov/assets/ig/StructureDefinition-bluebutton-inpatient-clm-poa-ind-sw1-extension","valueCoding":{"code":"Y","display":"Diagnosis present at time of admission","system":"https://bluebutton.cms.gov/assets/ig/CodeSystem-clm-poa-ind-sw1"}}],"sequence":1,"type":[{"coding":[{"code":"principal","system":"https://bluebutton.cms.gov/resources/codesystem/diagnosis-type"}]}]},{"diagnosisReference":{"reference":"Condition/221b0037-bfce-4696-b1d1-1ba639c7c2b7"},"extension":[{"url":"https://bluebutton.cms.gov/assets/ig/StructureDefinition-bluebutton-inpatient-clm-poa-ind-sw1-extension","valueCoding":{"code":"Y","display":"Diagnosis present at time of admission","system":"https://bluebutton.cms.gov/assets/ig/CodeSystem-clm-poa-ind-sw1"}}],"sequence":2,"type":[{"coding":[{"code":"principal","system":"https://bluebutton.cms.gov/resources/codesystem/diagnosis-type"}]}]},{"diagnosisReference":{"reference":"Condition/af84f1cf-f168-4ad8-9769-0e2506dad71d"},"extension":[{"url":"https://bluebutton.cms.gov/assets/ig/StructureDefinition-bluebutton-inpatient-clm-poa-ind-sw1-extension","valueCoding":{"code":"Y","display":"Diagnosis present at time of admission","system":"https://bluebutton.cms.gov/assets/ig/CodeSystem-clm-poa-ind-sw1"}}],"sequence":3,"type":[{"coding":[{"code":"principal","system":"https://bluebutton.cms.gov/resources/codesystem/diagnosis-type"}]}]},{"diagnosisReference":{"reference":"Condition/64ba5022-f5a4-450e-8bfa-5923d53b4cb9"},"extension":[{"url":"https://bluebutton.cms.gov/assets/ig/StructureDefinition-bluebutton-inpatient-clm-poa-ind-sw1-extension","valueCoding":{"code":"Y","display":"Diagnosis present at time of admission","system":"https://bluebutton.cms.gov/assets/ig/CodeSystem-clm-poa-ind-sw1"}}],"sequence":4,"type":[{"coding":[{"code":"principal","system":"https://bluebutton.cms.gov/resources/codesystem/diagnosis-type"}]}]}],"id":"08aa4133-c7af-4cf1-8da1-d0c553d89104","identifier":[{"system":"https://bluebutton.cms.gov/resources/variables/clm_id","value":"036a246c-432f-4dd4-bdde-7207073d282e"},{"system":"https://bluebutton.cms.gov/resources/identifier/claim-group","value":"99999999999"}],"insurance":{"coverage":{"reference":"#coverage"}},"item":[{"category":{"coding":[{"code":"1","display":"Medical care","system":"https://bluebutton.cms.gov/resources/variables/line_cms_type_srvc_cd"}]},"encounter":[{"reference":"Encounter/42795343-ba3b-42d1-bd8a-8ff87f1063e3"}],"locationCodeableConcept":{"coding":[{"code":"21","display":"Inpatient Hospital","system":"https://bluebutton.cms.gov/resources/variables/line_place_of_srvc_cd"}]},"sequence":1,"servicedPeriod":{"end":"2000-07-30T11:59:59-04:00","start":"2000-07-30T11:44:59-04:00"}},{"category":{"coding":[{"code":"1","display":"Medical care","system":"https://bluebutton.cms.gov/resources/variables/line_cms_type_srvc_cd"}]},"diagnosisLinkId":[1],"locationCodeableConcept":{"coding":[{"code":"21","display":"Inpatient Hospital","system":"https://bluebutton.cms.gov/resources/variables/line_place_of_srvc_cd"}]},"sequence":2,"servicedPeriod":{"end":"2000-07-30T11:59:59-04:00","start":"2000-07-30T11:44:59-04:00"}},{"category":{"coding":[{"code":"1","display":"Medical care","system":"https://bluebutton.cms.gov/resources/variables/line_cms_type_srvc_cd"}]},"diagnosisLinkId":[2],"locationCodeableConcept":{"coding":[{"code":"21","display":"Inpatient Hospital","system":"https://bluebutton.cms.gov/resources/variables/line_place_of_srvc_cd"}]},"sequence":3,"servicedPeriod":{"end":"2000-07-30T11:59:59-04:00","start":"2000-07-30T11:44:59-04:00"}},{"category":{"coding":[{"code":"1","display":"Medical care","system":"https://bluebutton.cms.gov/resources/variables/line_cms_type_srvc_cd"}]},"diagnosisLinkId":[3],"locationCodeableConcept":{"coding":[{"code":"21","display":"Inpatient Hospital","system":"https://bluebutton.cms.gov/resources/variables/line_place_of_srvc_cd"}]},"sequence":4,"servicedPeriod":{"end":"2000-07-30T11:59:59-04:00","start":"2000-07-30T11:44:59-04:00"}},{"category":{"coding":[{"code":"1","display":"Medical care","system":"https://bluebutton.cms.gov/resources/variables/line_cms_type_srvc_cd"}]},"diagnosisLinkId":[4],"locationCodeableConcept":{"coding":[{"code":"21","display":"Inpatient Hospital","system":"https://bluebutton.cms.gov/resources/variables/line_place_of_srvc_cd"}]},"sequence":5,"servicedPeriod":{"end":"2000-07-30T11:59:59-04:00","start":"2000-07-30T11:44:59-04:00"}}],"meta":{"lastUpdated":"2019-04-09T09:57:12.326995+00:00","versionId":"MTU1NDgwMzgzMjMyNjk5NTAwMA"},"organization":{"identifier":{"value":"b5106795-a455-454b-8962-6c5232594630"}},"patient":{"reference":"Patient/00c8c9ed-65fe-4f9a-8e75-7d31ac64a04b"},"payment":{"amount":{"code":"USD","system":"urn:iso:std:iso:4217","value":0}},"provider":{"identifier":{"value":"f426ec46-b3b9-4259-93bc-3972d2d34c89"}},"referral":{"reference":"#1"},"resourceType":"ExplanationOfBenefit","status":"active","totalCost":{"code":"USD","system":"urn:iso:std:iso:4217","value":125},"type":{"coding":[{"code":"71","display":"Local carrier non-durable medical equipment, prosthetics, orthotics, and supplies (DMEPOS) claim","system":"https://bluebutton.cms.gov/resources/variables/nch_clm_type_cd"},{"code":"CARRIER","display":"EOB Type","system":"https://bluebutton.cms.gov/resources/codesystem/eob-type"},{"code":"professional","display":"Claim Type","system":"http://hl7.org/fhir/ex-claimtype"},{"code":"O","display":"Part B physician/supplier claim record (processed by local carriers; can include DMEPOS services)","system":"https://bluebutton.cms.gov/resources/variables/nch_near_line_rec_ident_cd"}]}}},{"resource":{"billablePeriod":{"end":"2019-04-22T11:59:59-04:00","start":"2018-04-22T11:59:59-04:00"},"careTeam":[{"provider":{"identifier":{"system":"http://hl7.org/fhir/sid/us-npi","value":"99999999"}},"role":{"coding":[{"code":"primary","display":"Primary Care Practitioner","system":"http://hl7.org/fhir/claimcareteamrole"}]},"sequence":1}],"claim":{"reference":"Claim/a92cb979-510f-4916-95a0-309fe852e65e"},"contained":[{"id":"1","intent":"order","recipient":[{"identifier":{"system":"http://hl7.org/fhir/sid/us-npi","value":"99999999"}}],"requester":{"agent":{"identifier":{"system":"http://hl7.org/fhir/sid/us-npi","value":"99999999"}}},"resourceType":"ReferralRequest","status":"completed","subject":{"reference":"Patient/00c8c9ed-65fe-4f9a-8e75-7d31ac64a04b"}},{"id":"coverage","resourceType":"Coverage","type":{"text":"private"}}],"created":"2018-04-22T11:59:59-04:00","id":"08c5f7bd-114d-42b8-8ad5-bbc026d59a8f","identifier":[{"system":"https://bluebutton.cms.gov/resources/variables/clm_id","value":"a92cb979-510f-4916-95a0-309fe852e65e"},{"system":"https://bluebutton.cms.gov/resources/identifier/claim-group","value":"99999999999"}],"insurance":{"coverage":{"reference":"#coverage"}},"item":[{"category":{"coding":[{"code":"1","display":"Medical care","system":"https://bluebutton.cms.gov/resources/variables/line_cms_type_srvc_cd"}]},"encounter":[{"reference":"Encounter/d6813069-0462-496f-a75c-e71d1bab249a"}],"locationCodeableConcept":{"coding":[{"code":"21","display":"Inpatient Hospital","system":"https://bluebutton.cms.gov/resources/variables/line_place_of_srvc_cd"}]},"sequence":1,"servicedPeriod":{"end":"2018-04-22T11:59:59-04:00","start":"2018-04-22T11:44:59-04:00"}}],"meta":{"lastUpdated":"2019-04-09T09:58:02.383463+00:00","versionId":"MTU1NDgwMzg4MjM4MzQ2MzAwMA"},"organization":{"identifier":{"value":"958d48d5-22b1-4971-9dda-f5992f666ea4"}},"patient":{"reference":"Patient/00c8c9ed-65fe-4f9a-8e75-7d31ac64a04b"},"payment":{"amount":{"code":"USD","system":"urn:iso:std:iso:4217","value":0}},"provider":{"identifier":{"value":"10bd6f21-a8d8-44eb-94c1-5eb7fa9920ba"}},"referral":{"reference":"#1"},"resourceType":"ExplanationOfBenefit","status":"active","totalCost":{"code":"USD","system":"urn:iso:std:iso:4217","value":125},"type":{"coding":[{"code":"71","display":"Local carrier non-durable medical equipment, prosthetics, orthotics, and supplies (DMEPOS) claim","system":"https://bluebutton.cms.gov/resources/variables/nch_clm_type_cd"},{"code":"CARRIER","display":"EOB Type","system":"https://bluebutton.cms.gov/resources/codesystem/eob-type"},{"code":"professional","display":"Claim Type","system":"http://hl7.org/fhir/ex-claimtype"},{"code":"O","display":"Part B physician/supplier claim record (processed by local carriers; can include DMEPOS services)","system":"https://bluebutton.cms.gov/resources/variables/nch_near_line_rec_ident_cd"}]}}},{"resource":{"billablePeriod":{"end":"2014-04-28T12:14:59-04:00","start":"2013-04-28T12:14:59-04:00"},"careTeam":[{"provider":{"identifier":{"system":"http://hl7.org/fhir/sid/us-npi","value":"99999999"}},"role":{"coding":[{"code":"primary","display":"Primary Care Practitioner","system":"http://hl7.org/fhir/claimcareteamrole"}]},"sequence":1}],"claim":{"reference":"Claim/9dd44e74-8087-46a8-95d4-ee6bc8137c93"},"contained":[{"id":"1","intent":"order","recipient":[{"identifier":{"system":"http://hl7.org/fhir/sid/us-npi","value":"99999999"}}],"requester":{"agent":{"identifier":{"system":"http://hl7.org/fhir/sid/us-npi","value":"99999999"}}},"resourceType":"ReferralRequest","status":"completed","subject":{"reference":"Patient/00c8c9ed-65fe-4f9a-8e75-7d31ac64a04b"}},{"id":"coverage","resourceType":"Coverage","type":{"text":"private"}}],"created":"2013-04-28T12:14:59-04:00","id":"0a8c95d1-4619-4281-8bd8-5231387bfcf5","identifier":[{"system":"https://bluebutton.cms.gov/resources/variables/clm_id","value":"9dd44e74-8087-46a8-95d4-ee6bc8137c93"},{"system":"https://bluebutton.cms.gov/resources/identifier/claim-group","value":"99999999999"}],"insurance":{"coverage":{"reference":"#coverage"}},"item":[{"category":{"coding":[{"code":"1","display":"Medical care","system":"https://bluebutton.cms.gov/resources/variables/line_cms_type_srvc_cd"}]},"encounter":[{"reference":"Encounter/8cc73931-086c-47a6-bb8f-5d9429f5bd5a"}],"locationCodeableConcept":{"coding":[{"code":"21","display":"Inpatient Hospital","system":"https://bluebutton.cms.gov/resources/variables/line_place_of_srvc_cd"}]},"sequence":1,"servicedPeriod":{"end":"2013-04-28T12:14:59-04:00","start":"2013-04-28T11:44:59-04:00"}},{"adjudication":[{"amount":{"code":"USD","system":"urn:iso:std:iso:4217","value":180.574},"category":{"coding":[{"code":"https://bluebutton.cms.gov/resources/variables/line_coinsrnc_amt","display":"Line Beneficiary Coinsurance Amount","system":"https://bluebutton.cms.gov/resources/codesystem/adjudication"}]}},{"amount":{"code":"USD","system":"urn:iso:std:iso:4217","value":722.296},"category":{"coding":[{"code":"https://bluebutton.cms.gov/resources/variables/line_prvdr_pmt_amt","display":"Line Provider Payment Amount","system":"https://bluebutton.cms.gov/resources/codesystem/adjudication"}]}},{"amount":{"code":"USD","system":"urn:iso:std:iso:4217","value":902.87},"category":{"coding":[{"code":"https://bluebutton.cms.gov/resources/variables/line_sbmtd_chrg_amt","display":"Line Submitted Charge Amount","system":"https://bluebutton.cms.gov/resources/codesystem/adjudication"}]}},{"amount":{"code":"USD","system":"urn:iso:std:iso:4217","value":902.87},"category":{"coding":[{"code":"https://bluebutton.cms.gov/resources/variables/line_alowd_chrg_amt","display":"Line Allowed Charge Amount","system":"https://bluebutton.cms.gov/resources/codesystem/adjudication"}]}},{"amount":{"code":"USD","system":"urn:iso:std:iso:4217","value":0},"category":{"coding":[{"code":"https://bluebutton.cms.gov/resources/variables/line_bene_ptb_ddctbl_amt","display":"Line Beneficiary Part B Deductible Amount","system":"https://bluebutton.cms.gov/resources/codesystem/adjudication"}]}},{"category":{"coding":[{"code":"https://bluebutton.cms.gov/resources/variables/line_prcsg_ind_cd","display":"Line Processing Indicator Code","system":"https://bluebutton.cms.gov/resources/codesystem/adjudication"}]},"reason":{"coding":[{"code":"A","display":"Allowed","system":"https://bluebutton.cms.gov/resources/variables/line_prcsg_ind_cd"}]}}],"category":{"coding":[{"code":"1","display":"Medical care","system":"https://bluebutton.cms.gov/resources/variables/line_cms_type_srvc_cd"}]},"locationCodeableConcept":{"coding":[{"code":"21","display":"Inpatient Hospital","system":"https://bluebutton.cms.gov/resources/variables/line_place_of_srvc_cd"}]},"net":{"code":"USD","system":"urn:iso:std:iso:4217","value":902.87},"sequence":2,"service":{"coding":[{"code":"428191000124101","system":"http://snomed.info/sct","version":"v1"}]},"servicedPeriod":{"end":"2013-04-28T12:14:59-04:00","start":"2013-04-28T11:44:59-04:00"}}],"meta":{"lastUpdated":"2019-04-09T09:57:31.836170+00:00","versionId":"MTU1NDgwMzg1MTgzNjE3MDAwMA"},"organization":{"identifier":{"value":"b5106795-a455-454b-8962-6c5232594630"}},"patient":{"reference":"Patient/00c8c9ed-65fe-4f9a-8e75-7d31ac64a04b"},"payment":{"amount":{"code":"USD","system":"urn:iso:std:iso:4217","value":722.296}},"provider":{"identifier":{"value":"f426ec46-b3b9-4259-93bc-3972d2d34c89"}},"referral":{"reference":"#1"},"resourceType":"ExplanationOfBenefit","status":"active","totalCost":{"code":"USD","system":"urn:iso:std:iso:4217","value":1027.87},"type":{"coding":[{"code":"71","display":"Local carrier non-durable medical equipment, prosthetics, orthotics, and supplies (DMEPOS) claim","system":"https://bluebutton.cms.gov/resources/variables/nch_clm_type_cd"},{"code":"CARRIER","display":"EOB Type","system":"https://bluebutton.cms.gov/resources/codesystem/eob-type"},{"code":"professional","display":"Claim Type","system":"http://hl7.org/fhir/ex-claimtype"},{"code":"O","display":"Part B physician/supplier claim record (processed by local carriers; can include DMEPOS services)","system":"https://bluebutton.cms.gov/resources/variables/nch_near_line_rec_ident_cd"}]}}},{"resource":{"billablePeriod":{"end":"2018-07-23T11:59:59-04:00","start":"2017-07-23T11:59:59-04:00"},"careTeam":[{"provider":{"identifier":{"system":"http://hl7.org/fhir/sid/us-npi","value":"99999999"}},"role":{"coding":[{"code":"primary","display":"Primary Care Practitioner","system":"http://hl7.org/fhir/claimcareteamrole"}]},"sequence":1}],"claim":{"reference":"Claim/339cf52e-4cf2-4ab4-a394-00033414133a"},"contained":[{"id":"1","intent":"order","recipient":[{"identifier":{"system":"http://hl7.org/fhir/sid/us-npi","value":"99999999"}}],"requester":{"agent":{"identifier":{"system":"http://hl7.org/fhir/sid/us-npi","value":"99999999"}}},"resourceType":"ReferralRequest","status":"completed","subject":{"reference":"Patient/00c8c9ed-65fe-4f9a-8e75-7d31ac64a04b"}},{"id":"coverage","resourceType":"Coverage","type":{"text":"private"}}],"created":"2017-07-23T11:59:59-04:00","id":"0df35b68-5259-490c-b089-8a1435f22356","identifier":[{"system":"https://bluebutton.cms.gov/resources/variables/clm_id","value":"339cf52e-4cf2-4ab4-a394-00033414133a"},{"system":"https://bluebutton.cms.gov/resources/identifier/claim-group","value":"99999999999"}],"insurance":{"coverage":{"reference":"#coverage"}},"item":[{"category":{"coding":[{"code":"1","display":"Medical care","system":"https://bluebutton.cms.gov/resources/variables/line_cms_type_srvc_cd"}]},"encounter":[{"reference":"Encounter/2917da82-5cc7-4e3a-bb3e-94bfb02e659b"}],"locationCodeableConcept":{"coding":[{"code":"21","display":"Inpatient Hospital","system":"https://bluebutton.cms.gov/resources/variables/line_place_of_srvc_cd"}]},"sequence":1,"servicedPeriod":{"end":"2017-07-23T11:59:59-04:00","start":"2017-07-23T11:44:59-04:00"}}],"meta":{"lastUpdated":"2019-04-09T09:57:59.204720+00:00","versionId":"MTU1NDgwMzg3OTIwNDcyMDAwMA"},"organization":{"identifier":{"value":"958d48d5-22b1-4971-9dda-f5992f666ea4"}},"patient":{"reference":"Patient/00c8c9ed-65fe-4f9a-8e75-7d31ac64a04b"},"payment":{"amount":{"code":"USD","system":"urn:iso:std:iso:4217","value":0}},"provider":{"identifier":{"value":"10bd6f21-a8d8-44eb-94c1-5eb7fa9920ba"}},"referral":{"reference":"#1"},"resourceType":"ExplanationOfBenefit","status":"active","totalCost":{"code":"USD","system":"urn:iso:std:iso:4217","value":125},"type":{"coding":[{"code":"71","display":"Local carrier non-durable medical equipment, prosthetics, orthotics, and supplies (DMEPOS) claim","system":"https://bluebutton.cms.gov/resources/variables/nch_clm_type_cd"},{"code":"CARRIER","display":"EOB Type","system":"https://bluebutton.cms.gov/resources/codesystem/eob-type"},{"code":"professional","display":"Claim Type","system":"http://hl7.org/fhir/ex-claimtype"},{"code":"O","display":"Part B physician/supplier claim record (processed by local carriers; can include DMEPOS services)","system":"https://bluebutton.cms.gov/resources/variables/nch_near_line_rec_ident_cd"}]}}},{"resource":{"billablePeriod":{"end":"2018-08-09T11:59:59-04:00","extension":[{"url":"https://bluebutton.cms.gov/assets/ig/StructureDefinition-bluebutton-inpatient-claim-query-cd-extension","valueCoding":{"code":"3","display":"Final Bill","system":"https://bluebutton.cms.gov/assets/ig/ValueSet-claim-query-cd"}}],"start":"2017-08-09T11:59:59-04:00"},"careTeam":[{"provider":{"identifier":{"system":"http://hl7.org/fhir/sid/us-npi","value":"99999999"}},"role":{"coding":[{"code":"primary","display":"Primary Care Practitioner","system":"http://hl7.org/fhir/claimcareteamrole"}]},"sequence":1}],"contained":[{"id":"coverage","resourceType":"Coverage","type":{"text":"private"}}],"extension":[{"url":"https://bluebutton.cms.gov/assets/ig/StructureDefinition-bluebutton-inpatient-ime-op-clm-val-amt-extension","valueMoney":{"code":"USD","system":"urn:iso:std:iso:4217","value":400}},{"url":"https://bluebutton.cms.gov/assets/ig/StructureDefinition-bluebutton-inpatient-dsh-op-clm-val-amt-extension","valueMoney":{"code":"USD","system":"urn:iso:std:iso:4217","value":0}},{"url":"https://bluebutton.cms.gov/assets/ig/StructureDefinition-bluebutton-inpatient-clm-pass-thru-per-diem-amt-extension","valueMoney":{"code":"USD","system":"urn:iso:std:iso:4217","value":0}},{"url":"https://bluebutton.cms.gov/assets/ig/StructureDefinition-bluebutton-inpatient-nch-profnl-cmpnt-chrg-amt-extension","valueMoney":{"code":"USD","system":"urn:iso:std:iso:4217","value":0}},{"url":"https://bluebutton.cms.gov/assets/ig/StructureDefinition-bluebutton-inpatient-clm-tot-pps-cptl-amt-extension","valueMoney":{"code":"USD","system":"urn:iso:std:iso:4217","value":0}},{"url":"https://bluebutton.cms.gov/assets/ig/StructureDefinition-bluebutton-inpatient-nch-bene-ip-ddctbl-amt-extension","valueMoney":{"code":"USD","system":"urn:iso:std:iso:4217","value":0}},{"url":"https://bluebutton.cms.gov/assets/ig/StructureDefinition-bluebutton-inpatient-nch-bene-pta-coinsrnc-lblty-amt-extension","valueMoney":{"code":"USD","system":"urn:iso:std:iso:4217","value":0}},{"url":"https://bluebutton.cms.gov/assets/ig/StructureDefinition-bluebutton-inpatient-nch-ip-ncvrd-chrg-amt-extension","valueMoney":{"code":"USD","system":"urn:iso:std:iso:4217","value":0}},{"url":"https://bluebutton.cms.gov/assets/ig/StructureDefinition-bluebutton-inpatient-nch-ip-tot-ddctn-amt-extension","valueMoney":{"code":"USD","system":"urn:iso:std:iso:4217","value":0}},{"url":"https://bluebutton.cms.gov/assets/ig/StructureDefinition-bluebutton-inpatient-clm-pps-cptl-dsprprtnt-shr-amt-extension","valueMoney":{"code":"USD","system":"urn:iso:std:iso:4217","value":0}},{"url":"https://bluebutton.cms.gov/assets/ig/StructureDefinition-bluebutton-inpatient-clm-pps-cptl-excptn-amt-extension","valueMoney":{"code":"USD","system":"urn:iso:std:iso:4217","value":0}},{"url":"https://bluebutton.cms.gov/assets/ig/StructureDefinition-bluebutton-inpatient-clm-pps-cptl-fsp-amt-extension","valueMoney":{"code":"USD","system":"urn:iso:std:iso:4217","value":0}},{"url":"https://bluebutton.cms.gov/assets/ig/StructureDefinition-bluebutton-inpatient-clm-pps-cptl-ime-amt-extension","valueMoney":{"code":"USD","system":"urn:iso:std:iso:4217","value":400}},{"url":"https://bluebutton.cms.gov/assets/ig/StructureDefinition-bluebutton-inpatient-clm-pps-cptl-outlier-amt-extension","valueMoney":{"code":"USD","system":"urn:iso:std:iso:4217","value":0}},{"url":"https://bluebutton.cms.gov/assets/ig/StructureDefinition-bluebutton-inpatient-clm-pps-old-cptl-hld-hrmls-amt-extension","valueMoney":{"code":"USD","system":"urn:iso:std:iso:4217","value":0}},{"url":"https://bluebutton.cms.gov/assets/ig/StructureDefinition-bluebutton-inpatient-nch-drg-outlier-aprvd-pmt-amt-extension","valueMoney":{"code":"USD","system":"urn:iso:std:iso:4217","value":0}},{"url":"https://bluebutton.cms.gov/assets/ig/StructureDefinition-bluebutton-inpatient-nch-bene-blood-ddctbl-lblty-am-extension","valueMoney":{"code":"USD","system":"urn:iso:std:iso:4217","value":0}},{"url":"https://bluebutton.cms.gov/assets/ig/StructureDefinition-bluebutton-inpatient-clm-mdcr-non-pmt-rsn-cd-extension","valueCoding":{"code":"N","display":"All other reasons for non-payment","system":"https://bluebutton.cms.gov/assets/ig/CodeSystem-clm-mdcr-non-pmt-rsn-cd"}},{"url":"https://bluebutton.cms.gov/assets/ig/StructureDefinition-bluebutton-inpatient-prpayamt-extension","valueMoney":{"code":"USD","system":"urn:iso:std:iso:4217","value":0}},{"url":"https://bluebutton.cms.gov/assets/ig/StructureDefinition-bluebutton-inpatient-fi-num-extension","valueIdentifier":{"system":"https://bluebutton.cms.gov/assets/ig/CodeSystem-fi-num","value":"002000"}}],"id":"0e66f2e1-0932-46f5-a3ca-1cf04ce28652","identifier":[{"system":"https://bluebutton.cms.gov/resources/variables/clm_id","value":"95961707-15b3-4a2d-965b-30d9a36a40c0"},{"system":"https://bluebutton.cms.gov/resources/identifier/claim-group","value":"99999999999"}],"insurance":{"coverage":{"reference":"#coverage"}},"item":[{"extension":[{"url":"https://bluebutton.cms.gov/assets/ig/StructureDefinition-bluebutton-inpatient-rev-cntr-ndc-qty-extension","valueQuantity":{"value":0}}],"locationCodeableConcept":{"coding":[{"code":"21","display":"Inpatient Hospital","system":"https://bluebutton.cms.gov/resources/variables/line_place_of_srvc_cd"}]},"sequence":1}],"meta":{"lastUpdated":"2019-04-09T09:57:59.202922+00:00","profile":["https://bluebutton.cms.gov/assets/ig/StructureDefinition-bluebutton-inpatient-claim"],"versionId":"MTU1NDgwMzg3OTIwMjkyMjAwMA"},"organization":{"identifier":{"value":"b5106795-a455-454b-8962-6c5232594630"}},"patient":{"reference":"Patient/00c8c9ed-65fe-4f9a-8e75-7d31ac64a04b"},"payment":{"amount":{"code":"USD","system":"urn:iso:std:iso:4217","value":0}},"provider":{"identifier":{"value":"f426ec46-b3b9-4259-93bc-3972d2d34c89"}},"resourceType":"ExplanationOfBenefit","status":"active","totalCost":{"code":"USD","system":"urn:iso:std:iso:4217","value":125},"type":{"coding":[{"code":"71","display":"Local carrier non-durable medical equipment, prosthetics, orthotics, and supplies (DMEPOS) claim","system":"https://bluebutton.cms.gov/resources/variables/nch_clm_type_cd"},{"code":"CARRIER","display":"EOB Type","system":"https://bluebutton.cms.gov/resources/codesystem/eob-type"},{"code":"professional","display":"Claim Type","system":"http://hl7.org/fhir/ex-claimtype"},{"code":"O","display":"Part B physician/supplier claim record (processed by local carriers; can include DMEPOS services)","system":"https://bluebutton.cms.gov/resources/variables/nch_near_line_rec_ident_cd"}]}}},{"resource":{"billablePeriod":{"end":"2011-07-04T11:59:59-04:00","start":"2010-07-04T11:59:59-04:00"},"careTeam":[{"provider":{"identifier":{"system":"http://hl7.org/fhir/sid/us-npi","value":"99999999"}},"role":{"coding":[{"code":"primary","display":"Primary Care Practitioner","system":"http://hl7.org/fhir/claimcareteamrole"}]},"sequence":1}],"claim":{"reference":"Claim/67d7b765-0169-45dc-b051-0f967c13657f"},"contained":[{"id":"1","intent":"order","recipient":[{"identifier":{"system":"http://hl7.org/fhir/sid/us-npi","value":"99999999"}}],"requester":{"agent":{"identifier":{"system":"http://hl7.org/fhir/sid/us-npi","value":"99999999"}}},"resourceType":"ReferralRequest","status":"completed","subject":{"reference":"Patient/00c8c9ed-65fe-4f9a-8e75-7d31ac64a04b"}},{"id":"coverage","resourceType":"Coverage","type":{"text":"private"}}],"created":"2010-07-04T11:59:59-04:00","id":"0ffa1fde-ab68-4d57-afff-52bc2f97d4d8","identifier":[{"system":"https://bluebutton.cms.gov/resources/variables/clm_id","value":"67d7b765-0169-45dc-b051-0f967c13657f"},{"system":"https://bluebutton.cms.gov/resources/identifier/claim-group","value":"99999999999"}],"insurance":{"coverage":{"reference":"#coverage"}},"item":[{"category":{"coding":[{"code":"1","display":"Medical care","system":"https://bluebutton.cms.gov/resources/variables/line_cms_type_srvc_cd"}]},"encounter":[{"reference":"Encounter/8c5992af-1204-42f7-882c-771b3fe481b8"}],"locationCodeableConcept":{"coding":[{"code":"21","display":"Inpatient Hospital","system":"https://bluebutton.cms.gov/resources/variables/line_place_of_srvc_cd"}]},"sequence":1,"servicedPeriod":{"end":"2010-07-04T11:59:59-04:00","start":"2010-07-04T11:44:59-04:00"}}],"meta":{"lastUpdated":"2019-04-09T09:57:20.785402+00:00","versionId":"MTU1NDgwMzg0MDc4NTQwMjAwMA"},"organization":{"identifier":{"value":"b5106795-a455-454b-8962-6c5232594630"}},"patient":{"reference":"Patient/00c8c9ed-65fe-4f9a-8e75-7d31ac64a04b"},"payment":{"amount":{"code":"USD","system":"urn:iso:std:iso:4217","value":0}},"provider":{"identifier":{"value":"f426ec46-b3b9-4259-93bc-3972d2d34c89"}},"referral":{"reference":"#1"},"resourceType":"ExplanationOfBenefit","status":"active","totalCost":{"code":"USD","system":"urn:iso:std:iso:4217","value":125},"type":{"coding":[{"code":"71","display":"Local carrier non-durable medical equipment, prosthetics, orthotics, and supplies (DMEPOS) claim","system":"https://bluebutton.cms.gov/resources/variables/nch_clm_type_cd"},{"code":"CARRIER","display":"EOB Type","system":"https://bluebutton.cms.gov/resources/codesystem/eob-type"},{"code":"professional","display":"Claim Type","system":"http://hl7.org/fhir/ex-claimtype"},{"code":"O","display":"Part B physician/supplier claim record (processed by local carriers; can include DMEPOS services)","system":"https://bluebutton.cms.gov/resources/variables/nch_near_line_rec_ident_cd"}]}}},{"resource":{"billablePeriod":{"end":"2015-07-20T11:59:59-04:00","start":"2014-07-20T11:59:59-04:00"},"careTeam":[{"provider":{"identifier":{"system":"http://hl7.org/fhir/sid/us-npi","value":"99999999"}},"role":{"coding":[{"code":"primary","display":"Primary Care Practitioner","system":"http://hl7.org/fhir/claimcareteamrole"}]},"sequence":1}],"claim":{"reference":"Claim/cb8fad11-d55f-4dc1-9751-9e5bf8f5aacb"},"contained":[{"id":"1","intent":"order","recipient":[{"identifier":{"system":"http://hl7.org/fhir/sid/us-npi","value":"99999999"}}],"requester":{"agent":{"identifier":{"system":"http://hl7.org/fhir/sid/us-npi","value":"99999999"}}},"resourceType":"ReferralRequest","status":"completed","subject":{"reference":"Patient/00c8c9ed-65fe-4f9a-8e75-7d31ac64a04b"}},{"id":"coverage","resourceType":"Coverage","type":{"text":"private"}}],"created":"2014-07-20T11:59:59-04:00","id":"132bf0be-f1b0-4f7f-b470-45eb657a256e","identifier":[{"system":"https://bluebutton.cms.gov/resources/variables/clm_id","value":"cb8fad11-d55f-4dc1-9751-9e5bf8f5aacb"},{"system":"https://bluebutton.cms.gov/resources/identifier/claim-group","value":"99999999999"}],"insurance":{"coverage":{"reference":"#coverage"}},"item":[{"category":{"coding":[{"code":"1","display":"Medical care","system":"https://bluebutton.cms.gov/resources/variables/line_cms_type_srvc_cd"}]},"encounter":[{"reference":"Encounter/fec909e0-8c86-464a-b7fa-785c40f6fad5"}],"locationCodeableConcept":{"coding":[{"code":"21","display":"Inpatient Hospital","system":"https://bluebutton.cms.gov/resources/variables/line_place_of_srvc_cd"}]},"sequence":1,"servicedPeriod":{"end":"2014-07-20T11:59:59-04:00","start":"2014-07-20T11:44:59-04:00"}}],"meta":{"lastUpdated":"2019-04-09T09:57:40.138444+00:00","versionId":"MTU1NDgwMzg2MDEzODQ0NDAwMA"},"organization":{"identifier":{"value":"b5106795-a455-454b-8962-6c5232594630"}},"patient":{"reference":"Patient/00c8c9ed-65fe-4f9a-8e75-7d31ac64a04b"},"payment":{"amount":{"code":"USD","system":"urn:iso:std:iso:4217","value":0}},"provider":{"identifier":{"value":"f426ec46-b3b9-4259-93bc-3972d2d34c89"}},"referral":{"reference":"#1"},"resourceType":"ExplanationOfBenefit","status":"active","totalCost":{"code":"USD","system":"urn:iso:std:iso:4217","value":125},"type":{"coding":[{"code":"71","display":"Local carrier non-durable medical equipment, prosthetics, orthotics, and supplies (DMEPOS) claim","system":"https://bluebutton.cms.gov/resources/variables/nch_clm_type_cd"},{"code":"CARRIER","display":"EOB Type","system":"https://bluebutton.cms.gov/resources/codesystem/eob-type"},{"code":"professional","display":"Claim Type","system":"http://hl7.org/fhir/ex-claimtype"},{"code":"O","display":"Part B physician/supplier claim record (processed by local carriers; can include DMEPOS services)","system":"https://bluebutton.cms.gov/resources/variables/nch_near_line_rec_ident_cd"}]}}},{"resource":{"billablePeriod":{"end":"2016-08-09T11:59:59-04:00","start":"2015-08-09T11:59:59-04:00"},"careTeam":[{"provider":{"identifier":{"system":"http://hl7.org/fhir/sid/us-npi","value":"99999999"}},"role":{"coding":[{"code":"primary","display":"Primary Care Practitioner","system":"http://hl7.org/fhir/claimcareteamrole"}]},"sequence":1}],"claim":{"reference":"Claim/0c30b5c2-389c-4b48-99e4-ae232c9541fd"},"contained":[{"id":"1","intent":"order","recipient":[{"identifier":{"system":"http://hl7.org/fhir/sid/us-npi","value":"99999999"}}],"requester":{"agent":{"identifier":{"system":"http://hl7.org/fhir/sid/us-npi","value":"99999999"}}},"resourceType":"ReferralRequest","status":"completed","subject":{"reference":"Patient/00c8c9ed-65fe-4f9a-8e75-7d31ac64a04b"}},{"id":"coverage","resourceType":"Coverage","type":{"text":"private"}}],"created":"2015-08-09T11:59:59-04:00","id":"163d4078-f4b6-41a5-86cd-3740940f92e8","identifier":[{"system":"https://bluebutton.cms.gov/resources/variables/clm_id","value":"0c30b5c2-389c-4b48-99e4-ae232c9541fd"},{"system":"https://bluebutton.cms.gov/resources/identifier/claim-group","value":"99999999999"}],"insurance":{"coverage":{"reference":"#coverage"}},"item":[{"category":{"coding":[{"code":"1","display":"Medical care","system":"https://bluebutton.cms.gov/resources/variables/line_cms_type_srvc_cd"}]},"encounter":[{"reference":"Encounter/10e23bf3-ce79-4b1c-8e3f-f2da7502a882"}],"locationCodeableConcept":{"coding":[{"code":"21","display":"Inpatient Hospital","system":"https://bluebutton.cms.gov/resources/variables/line_place_of_srvc_cd"}]},"sequence":1,"servicedPeriod":{"end":"2015-08-09T11:59:59-04:00","start":"2015-08-09T11:44:59-04:00"}}],"meta":{"lastUpdated":"2019-04-09T09:57:44.447270+00:00","versionId":"MTU1NDgwMzg2NDQ0NzI3MDAwMA"},"organization":{"identifier":{"value":"b5106795-a455-454b-8962-6c5232594630"}},"patient":{"reference":"Patient/00c8c9ed-65fe-4f9a-8e75-7d31ac64a04b"},"payment":{"amount":{"code":"USD","system":"urn:iso:std:iso:4217","value":0}},"provider":{"identifier":{"value":"f426ec46-b3b9-4259-93bc-3972d2d34c89"}},"referral":{"reference":"#1"},"resourceType":"ExplanationOfBenefit","status":"active","totalCost":{"code":"USD","system":"urn:iso:std:iso:4217","value":125},"type":{"coding":[{"code":"71","display":"Local carrier non-durable medical equipment, prosthetics, orthotics, and supplies (DMEPOS) claim","system":"https://bluebutton.cms.gov/resources/variables/nch_clm_type_cd"},{"code":"CARRIER","display":"EOB Type","system":"https://bluebutton.cms.gov/resources/codesystem/eob-type"},{"code":"professional","display":"Claim Type","system":"http://hl7.org/fhir/ex-claimtype"},{"code":"O","display":"Part B physician/supplier claim record (processed by local carriers; can include DMEPOS services)","system":"https://bluebutton.cms.gov/resources/variables/nch_near_line_rec_ident_cd"}]}}},{"resource":{"billablePeriod":{"end":"2019-05-20T11:59:59-04:00","start":"2018-05-20T11:59:59-04:00"},"careTeam":[{"provider":{"identifier":{"system":"http://hl7.org/fhir/sid/us-npi","value":"99999999"}},"role":{"coding":[{"code":"primary","display":"Primary Care Practitioner","system":"http://hl7.org/fhir/claimcareteamrole"}]},"sequence":1}],"claim":{"reference":"Claim/ae7a4db8-9b3a-42d4-97c6-22e4a25990d6"},"contained":[{"id":"1","intent":"order","recipient":[{"identifier":{"system":"http://hl7.org/fhir/sid/us-npi","value":"99999999"}}],"requester":{"agent":{"identifier":{"system":"http://hl7.org/fhir/sid/us-npi","value":"99999999"}}},"resourceType":"ReferralRequest","status":"completed","subject":{"reference":"Patient/00c8c9ed-65fe-4f9a-8e75-7d31ac64a04b"}},{"id":"coverage","resourceType":"Coverage","type":{"text":"private"}}],"created":"2018-05-20T11:59:59-04:00","id":"18934c33-69b5-4c5b-b631-4a850e4af816","identifier":[{"system":"https://bluebutton.cms.gov/resources/variables/clm_id","value":"ae7a4db8-9b3a-42d4-97c6-22e4a25990d6"},{"system":"https://bluebutton.cms.gov/resources/identifier/claim-group","value":"99999999999"}],"insurance":{"coverage":{"reference":"#coverage"}},"item":[{"category":{"coding":[{"code":"1","display":"Medical care","system":"https://bluebutton.cms.gov/resources/variables/line_cms_type_srvc_cd"}]},"encounter":[{"reference":"Encounter/30999df0-3e58-47cf-a987-a0829096698d"}],"locationCodeableConcept":{"coding":[{"code":"21","display":"Inpatient Hospital","system":"https://bluebutton.cms.gov/resources/variables/line_place_of_srvc_cd"}]},"sequence":1,"servicedPeriod":{"end":"2018-05-20T11:59:59-04:00","start":"2018-05-20T11:44:59-04:00"}}],"meta":{"lastUpdated":"2019-04-09T09:58:03.413754+00:00","versionId":"MTU1NDgwMzg4MzQxMzc1NDAwMA"},"organization":{"identifier":{"value":"958d48d5-22b1-4971-9dda-f5992f666ea4"}},"patient":{"reference":"Patient/00c8c9ed-65fe-4f9a-8e75-7d31ac64a04b"},"payment":{"amount":{"code":"USD","system":"urn:iso:std:iso:4217","value":0}},"provider":{"identifier":{"value":"10bd6f21-a8d8-44eb-94c1-5eb7fa9920ba"}},"referral":{"reference":"#1"},"resourceType":"ExplanationOfBenefit","status":"active","totalCost":{"code":"USD","system":"urn:iso:std:iso:4217","value":125},"type":{"coding":[{"code":"71","display":"Local carrier non-durable medical equipment, prosthetics, orthotics, and supplies (DMEPOS) claim","system":"https://bluebutton.cms.gov/resources/variables/nch_clm_type_cd"},{"code":"CARRIER","display":"EOB Type","system":"https://bluebutton.cms.gov/resources/codesystem/eob-type"},{"code":"professional","display":"Claim Type","system":"http://hl7.org/fhir/ex-claimtype"},{"code":"O","display":"Part B physician/supplier claim record (processed by local carriers; can include DMEPOS services)","system":"https://bluebutton.cms.gov/resources/variables/nch_near_line_rec_ident_cd"}]}}}],"link":[{"url":"https://syntheticmass.mitre.org/v1/fhir/Patient/00c8c9ed-65fe-4f9a-8e75-7d31ac64a04b/$everything?_count=100&page_token=CoIBcHJvamVjdHMvc3ludGhlYS9sb2NhdGlvbnMvdXMtY2VudHJhbDEvZGF0YXNldHMvMjAxOTAyL2ZoaXJTdG9yZXMvc3ludGhldGljLW1hc3MvZmhpci9QYXRpZW50LzAwYzhjOWVkLTY1ZmUtNGY5YS04ZTc1LTdkMzFhYzY0YTA0YiCQAw%3D%3D","relation":"previous"},{"url":"https://syntheticmass.mitre.org/v1/fhir/Patient/00c8c9ed-65fe-4f9a-8e75-7d31ac64a04b/$everything?_count=100&page_token=CoIBcHJvamVjdHMvc3ludGhlYS9sb2NhdGlvbnMvdXMtY2VudHJhbDEvZGF0YXNldHMvMjAxOTAyL2ZoaXJTdG9yZXMvc3ludGhldGljLW1hc3MvZmhpci9QYXRpZW50LzAwYzhjOWVkLTY1ZmUtNGY5YS04ZTc1LTdkMzFhYzY0YTA0YiDYBA%3D%3D","relation":"next"}],"total":2485}
