{"resourceType":"Bundle","type":"searchset","entry":[{"resource":{"billablePeriod":{"end":"2019-07-08T12:18:29-04:00","extension":[{"url":"https://bluebutton.cms.gov/assets/ig/StructureDefinition-bluebutton-inpatient-claim-query-cd-extension","valueCoding":{"code":"3","display":"Final Bill","system":"https://bluebutton.cms.gov/assets/ig/ValueSet-claim-query-cd"}}],"start":"2018-07-08T12:18:29-04:00"},"careTeam":[{"provider":{"identifier":{"system":"http://hl7.org/fhir/sid/us-npi","value":"99999999"}},"role":{"coding":[{"code":"primary","display":"Primary Care Practitioner","system":"http://hl7.org/fhir/claimcareteamrole"}]},"sequence":1}],"contained":[{"id":"coverage","resourceType":"Coverage","type":{"text":"medicaid"}}],"extension":[{"url":"https://bluebutton.cms.gov/assets/ig/StructureDefinition-bluebutton-inpatient-ime-op-clm-val-amt-extension","valueMoney":{"code":"USD","system":"urn:iso:std:iso:4217","value":400}},{"url":"https://bluebutton.cms.gov/assets/ig/StructureDefinition-bluebutton-inpatient-dsh-op-clm-val-amt-extension","valueMoney":{"code":"USD","system":"urn:iso:std:iso:4217","value":0}},{"url":"https://bluebutton.cms.gov/assets/ig/StructureDefinition-bluebutton-inpatient-clm-pass-thru-per-diem-amt-extension","valueMoney":{"code":"USD","system":"urn:iso:std:iso:4217","value":0}},{"url":"https://bluebutton.cms.gov/assets/ig/StructureDefinition-bluebutton-inpatient-nch-profnl-cmpnt-chrg-amt-extension","valueMoney":{"code":"USD","system":"urn:iso:std:iso:4217","value":0}},{"url":"https://bluebutton.cms.gov/assets/ig/StructureDefinition-bluebutton-inpatient-clm-tot-pps-cptl-amt-extension","valueMoney":{"code":"USD","system":"urn:iso:std:iso:4217","value":0}},{"url":"https://bluebutton.cms.gov/assets/ig/StructureDefinition-bluebutton-inpatient-nch-bene-ip-ddctbl-amt-extension","valueMoney":{"code":"USD","system":"urn:iso:std:iso:4217","value":0}},{"url":"https://bluebutton.cms.gov/assets/ig/StructureDefinition-bluebutton-inpatient-nch-bene-pta-coinsrnc-lblty-amt-extension","valueMoney":{"code":"USD","system":"urn:iso:std:iso:4217","value":0}},{"url":"https://bluebutton.cms.gov/assets/ig/StructureDefinition-bluebutton-inpatient-nch-ip-ncvrd-chrg-amt-extension","valueMoney":{"code":"USD","system":"urn:iso:std:iso:4217","value":0}},{"url":"https://bluebutton.cms.gov/assets/ig/StructureDefinition-bluebutton-inpatient-nch-ip-tot-ddctn-amt-extension","valueMoney":{"code":"USD","system":"urn:iso:std:iso:4217","value":0}},{"url":"https://bluebutton.cms.gov/assets/ig/StructureDefinition-bluebutton-inpatient-clm-pps-cptl-dsprprtnt-shr-amt-extension","valueMoney":{"code":"USD","system":"urn:iso:std:iso:4217","value":0}},{"url":"https://bluebutton.cms.gov/assets/ig/StructureDefinition-bluebutton-inpatient-clm-pps-cptl-excptn-amt-extension","valueMoney":{"code":"USD","system":"urn:iso:std:iso:4217","value":0}},{"url":"https://bluebutton.cms.gov/assets/ig/StructureDefinition-bluebutton-inpatient-clm-pps-cptl-fsp-amt-extension","valueMoney":{"code":"USD","system":"urn:iso:std:iso:4217","value":0}},{"url":"https://bluebutton.cms.gov/assets/ig/StructureDefinition-bluebutton-inpatient-clm-pps-cptl-ime-amt-extension","valueMoney":{"code":"USD","system":"urn:iso:std:iso:4217","value":400}},{"url":"https://bluebutton.cms.gov/assets/ig/StructureDefinition-bluebutton-inpatient-clm-pps-cptl-outlier-amt-extension","valueMoney":{"code":"USD","system":"urn:iso:std:iso:4217","value":0}},{"url":"https://bluebutton.cms.gov/assets/ig/StructureDefinition-bluebutton-inpatient-clm-pps-old-cptl-hld-hrmls-amt-extension","valueMoney":{"code":"USD","system":"urn:iso:std:iso:4217","value":0}},{"url":"https://bluebutton.cms.gov/assets/ig/StructureDefinition-bluebutton-inpatient-nch-drg-outlier-aprvd-pmt-amt-extension","valueMoney":{"code":"USD","system":"urn:iso:std:iso:4217","value":0}},{"url":"https://bluebutton.cms.gov/assets/ig/StructureDefinition-bluebutton-inpatient-nch-bene-blood-ddctbl-lblty-am-extension","valueMoney":{"code":"USD","system":"urn:iso:std:iso:4217","value":0}},{"url":"https://bluebutton.cms.gov/assets/ig/StructureDefinition-bluebutton-inpatient-clm-mdcr-non-pmt-rsn-cd-extension","valueCoding":{"code":"N","display":"All other reasons for non-payment","system":"https://bluebutton.cms.gov/assets/ig/CodeSystem-clm-mdcr-non-pmt-rsn-cd"}},{"url":"https://bluebutton.cms.gov/assets/ig/StructureDefinition-bluebutton-inpatient-prpayamt-extension","valueMoney":{"code":"USD","system":"urn:iso:std:iso:4217","value":0}},{"url":"https://bluebutton.cms.gov/assets/ig/StructureDefinition-bluebutton-inpatient-fi-num-extension","valueIdentifier":{"system":"https://bluebutton.cms.gov/assets/ig/CodeSystem-fi-num","value":"002000"}}],"id":"6a8845b3-4ebd-4eea-9217-b54f295fa215","identifier":[{"system":"https://bluebutton.cms.gov/resources/variables/clm_id","value":"9ce8bbc1-395d-4e72-b1e4-cb99bce8de4a"},{"system":"https://bluebutton.cms.gov/resources/identifier/claim-group","value":"99999999999"}],"insurance":{"coverage":{"reference":"#coverage"}},"item":[{"extension":[{"url":"https://bluebutton.cms.gov/assets/ig/StructureDefinition-bluebutton-inpatient-rev-cntr-ndc-qty-extension","valueQuantity":{"value":0}}],"locationCodeableConcept":{"coding":[{"code":"21","display":"Inpatient Hospital","system":"https://bluebutton.cms.gov/resources/variables/line_place_of_srvc_cd"}]},"sequence":1},{"adjudication":[{"amount":{"code":"USD","system":"urn:iso:std:iso:4217","value":103.33},"category":{"coding":[{"code":"https://bluebutton.cms.gov/resources/variables/line_coinsrnc_amt","display":"Line Beneficiary Coinsurance Amount","system":"https://bluebutton.cms.gov/resources/codesystem/adjudication"}]}},{"amount":{"code":"USD","system":"urn:iso:std:iso:4217","value":413.32},"category":{"coding":[{"code":"https://bluebutton.cms.gov/resources/variables/line_prvdr_pmt_amt","display":"Line Provider Payment Amount","system":"https://bluebutton.cms.gov/resources/codesystem/adjudication"}]}},{"amount":{"code":"USD","system":"urn:iso:std:iso:4217","value":516.65},"category":{"coding":[{"code":"https://bluebutton.cms.gov/resources/variables/line_sbmtd_chrg_amt","display":"Line Submitted Charge Amount","system":"https://bluebutton.cms.gov/resources/codesystem/adjudication"}]}},{"amount":{"code":"USD","system":"urn:iso:std:iso:4217","value":516.65},"category":{"coding":[{"code":"https://bluebutton.cms.gov/resources/variables/line_alowd_chrg_amt","display":"Line Allowed Charge Amount","system":"https://bluebutton.cms.gov/resources/codesystem/adjudication"}]}},{"amount":{"code":"USD","system":"urn:iso:std:iso:4217","value":0},"category":{"coding":[{"code":"https://bluebutton.cms.gov/resources/variables/line_bene_ptb_ddctbl_amt","display":"Line Beneficiary Part B Deductible Amount","system":"https://bluebutton.cms.gov/resources/codesystem/adjudication"}]}},{"category":{"coding":[{"code":"https://bluebutton.cms.gov/resources/variables/line_prcsg_ind_cd","display":"Line Processing Indicator Code","system":"https://bluebutton.cms.gov/resources/codesystem/adjudication"}]}}],"extension":[{"url":"https://bluebutton.cms.gov/assets/ig/StructureDefinition-bluebutton-inpatient-rev-cntr-ndc-qty-extension","valueQuantity":{"value":0}}],"locationCodeableConcept":{"coding":[{"code":"21","display":"Inpatient Hospital","system":"https://bluebutton.cms.gov/resources/variables/line_place_of_srvc_cd"}]},"sequence":2,"service":{"coding":[{"code":"271442007","system":"http://snomed.info/sct","version":"v1"}]}},{"adjudication":[{"amount":{"code":"USD","system":"urn:iso:std:iso:4217","value":501.87600000000003},"category":{"coding":[{"code":"https://bluebutton.cms.gov/resources/variables/line_coinsrnc_amt","display":"Line Beneficiary Coinsurance Amount","system":"https://bluebutton.cms.gov/resources/codesystem/adjudication"}]}},{"amount":{"code":"USD","system":"urn:iso:std:iso:4217","value":2007.5040000000001},"category":{"coding":[{"code":"https://bluebutton.cms.gov/resources/variables/line_prvdr_pmt_amt","display":"Line Provider Payment Amount","system":"https://bluebutton.cms.gov/resources/codesystem/adjudication"}]}},{"amount":{"code":"USD","system":"urn:iso:std:iso:4217","value":2509.38},"category":{"coding":[{"code":"https://bluebutton.cms.gov/resources/variables/line_sbmtd_chrg_amt","display":"Line Submitted Charge Amount","system":"https://bluebutton.cms.gov/resources/codesystem/adjudication"}]}},{"amount":{"code":"USD","system":"urn:iso:std:iso:4217","value":2509.38},"category":{"coding":[{"code":"https://bluebutton.cms.gov/resources/variables/line_alowd_chrg_amt","display":"Line Allowed Charge Amount","system":"https://bluebutton.cms.gov/resources/codesystem/adjudication"}]}},{"amount":{"code":"USD","system":"urn:iso:std:iso:4217","value":0},"category":{"coding":[{"code":"https://bluebutton.cms.gov/resources/variables/line_bene_ptb_ddctbl_amt","display":"Line Beneficiary Part B Deductible Amount","system":"https://bluebutton.cms.gov/resources/codesystem/adjudication"}]}},{"category":{"coding":[{"code":"https://bluebutton.cms.gov/resources/variables/line_prcsg_ind_cd","display":"Line Processing Indicator Code","system":"https://bluebutton.cms.gov/resources/codesystem/adjudication"}]}}],"extension":[{"url":"https://bluebutton.cms.gov/assets/ig/StructureDefinition-bluebutton-inpatient-rev-cntr-ndc-qty-extension","valueQuantity":{"value":0}}],"locationCodeableConcept":{"coding":[{"code":"21","display":"Inpatient Hospital","system":"https://bluebutton.cms.gov/resources/variables/line_place_of_srvc_cd"}]},"sequence":3,"service":{"coding":[{"code":"275833003","system":"http://snomed.info/sct","version":"v1"}]}},{"adjudication":[{"amount":{"code":"USD","system":"urn:iso:std:iso:4217","value":1340.968},"category":{"coding":[{"code":"https://bluebutton.cms.gov/resources/variables/line_coinsrnc_amt","display":"Line Beneficiary Coinsurance Amount","system":"https://bluebutton.cms.gov/resources/codesystem/adjudication"}]}},{"amount":{"code":"USD","system":"urn:iso:std:iso:4217","value":5363.872},"category":{"coding":[{"code":"https://bluebutton.cms.gov/resources/variables/line_prvdr_pmt_amt","display":"Line Provider Payment Amount","system":"https://bluebutton.cms.gov/resources/codesystem/adjudication"}]}},{"amount":{"code":"USD","system":"urn:iso:std:iso:4217","value":6704.84},"category":{"coding":[{"code":"https://bluebutton.cms.gov/resources/variables/line_sbmtd_chrg_amt","display":"Line Submitted Charge Amount","system":"https://bluebutton.cms.gov/resources/codesystem/adjudication"}]}},{"amount":{"code":"USD","system":"urn:iso:std:iso:4217","value":6704.84},"category":{"coding":[{"code":"https://bluebutton.cms.gov/resources/variables/line_alowd_chrg_amt","display":"Line Allowed Charge Amount","system":"https://bluebutton.cms.gov/resources/codesystem/adjudication"}]}},{"amount":{"code":"USD","system":"urn:iso:std:iso:4217","value":0},"category":{"coding":[{"code":"https://bluebutton.cms.gov/resources/variables/line_bene_ptb_ddctbl_amt","display":"Line Beneficiary Part B Deductible Amount","system":"https://bluebutton.cms.gov/resources/codesystem/adjudication"}]}},{"category":{"coding":[{"code":"https://bluebutton.cms.gov/resources/variables/line_prcsg_ind_cd","display":"Line Processing Indicator Code","system":"https://bluebutton.cms.gov/resources/codesystem/adjudication"}]}}],"extension":[{"url":"https://bluebutton.cms.gov/assets/ig/StructureDefinition-bluebutton-inpatient-rev-cntr-ndc-qty-extension","valueQuantity":{"value":0}}],"locationCodeableConcept":{"coding":[{"code":"21","display":"Inpatient Hospital","system":"https://bluebutton.cms.gov/resources/variables/line_place_of_srvc_cd"}]},"sequence":4,"service":{"coding":[{"code":"274804006","system":"http://snomed.info/sct","version":"v1"}]}},{"adjudication":[{"amount":{"code":"USD","system":"urn:iso:std:iso:4217","value":1395.2440000000001},"category":{"coding":[{"code":"https://bluebutton.cms.gov/resources/variables/line_coinsrnc_amt","display":"Line Beneficiary Coinsurance Amount","system":"https://bluebutton.cms.gov/resources/codesystem/adjudication"}]}},{"amount":{"code":"USD","system":"urn:iso:std:iso:4217","value":5580.976000000001},"category":{"coding":[{"code":"https://bluebutton.cms.gov/resources/variables/line_prvdr_pmt_amt","display":"Line Provider Payment Amount","system":"https://bluebutton.cms.gov/resources/codesystem/adjudication"}]}},{"amount":{"code":"USD","system":"urn:iso:std:iso:4217","value":6976.22},"category":{"coding":[{"code":"https://bluebutton.cms.gov/resources/variables/line_sbmtd_chrg_amt","display":"Line Submitted Charge Amount","system":"https://bluebutton.cms.gov/resources/codesystem/adjudication"}]}},{"amount":{"code":"USD","system":"urn:iso:std:iso:4217","value":6976.22},"category":{"coding":[{"code":"https://bluebutton.cms.gov/resources/variables/line_alowd_chrg_amt","display":"Line Allowed Charge Amount","system":"https://bluebutton.cms.gov/resources/codesystem/adjudication"}]}},{"amount":{"code":"USD","system":"urn:iso:std:iso:4217","value":0},"category":{"coding":[{"code":"https://bluebutton.cms.gov/resources/variables/line_bene_ptb_ddctbl_amt","display":"Line Beneficiary Part B Deductible Amount","system":"https://bluebutton.cms.gov/resources/codesystem/adjudication"}]}},{"category":{"coding":[{"code":"https://bluebutton.cms.gov/resources/variables/line_prcsg_ind_cd","display":"Line Processing Indicator Code","system":"https://bluebutton.cms.gov/resources/codesystem/adjudication"}]}}],"extension":[{"url":"https://bluebutton.cms.gov/assets/ig/StructureDefinition-bluebutton-inpatient-rev-cntr-ndc-qty-extension","valueQuantity":{"value":0}}],"locationCodeableConcept":{"coding":[{"code":"21","display":"Inpatient Hospital","system":"https://bluebutton.cms.gov/resources/variables/line_place_of_srvc_cd"}]},"sequence":5,"service":{"coding":[{"code":"225158009","system":"http://snomed.info/sct","version":"v1"}]}}],"meta":{"lastUpdated":"2019-04-09T12:00:35.180803+00:00","profile":["https://bluebutton.cms.gov/assets/ig/StructureDefinition-bluebutton-inpatient-claim"],"versionId":"MTU1NDgxMTIzNTE4MDgwMzAwMA"},"organization":{"identifier":{"value":"26f36041-e05b-4ed4-9b86-85f403bf1d18"}},"patient":{"reference":"Patient/00bce077-b35e-456a-aca4-4fd257f3319f"},"payment":{"amount":{"code":"USD","system":"urn:iso:std:iso:4217","value":13365.672}},"provider":{"identifier":{"value":"48d6ffb3-0aa9-4e21-b3f7-808de9f3fb0d"}},"resourceType":"ExplanationOfBenefit","status":"active","totalCost":{"code":"USD","system":"urn:iso:std:iso:4217","value":16832.09},"type":{"coding":[{"code":"71","display":"Local carrier non-durable medical equipment, prosthetics, orthotics, and supplies (DMEPOS) claim","system":"https://bluebutton.cms.gov/resources/variables/nch_clm_type_cd"},{"code":"CARRIER","display":"EOB Type","system":"https://bluebutton.cms.gov/resources/codesystem/eob-type"},{"code":"professional","display":"Claim Type","system":"http://hl7.org/fhir/ex-claimtype"},{"code":"O","display":"Part B physician/supplier claim record (processed by local carriers; can include DMEPOS services)","system":"https://bluebutton.cms.gov/resources/variables/nch_near_line_rec_ident_cd"}]}}},{"resource":{"billablePeriod":{"end":"2011-09-05T11:18:29-04:00","start":"2010-09-05T11:18:29-04:00"},"careTeam":[{"provider":{"identifier":{"system":"http://hl7.org/fhir/sid/us-npi","value":"99999999"}},"role":{"coding":[{"code":"primary","display":"Primary Care Practitioner","system":"http://hl7.org/fhir/claimcareteamrole"}]},"sequence":1}],"claim":{"reference":"Claim/357cf8f9-8e44-4d18-b0ba-8a2a26b94bcf"},"contained":[{"id":"1","intent":"order","recipient":[{"identifier":{"system":"http://hl7.org/fhir/sid/us-npi","value":"99999999"}}],"requester":{"agent":{"identifier":{"system":"http://hl7.org/fhir/sid/us-npi","value":"99999999"}}},"resourceType":"ReferralRequest","status":"completed","subject":{"reference":"Patient/00bce077-b35e-456a-aca4-4fd257f3319f"}},{"id":"coverage","resourceType":"Coverage","type":{"text":"private"}}],"created":"2010-09-05T11:18:29-04:00","id":"7e4964cd-e568-4d59-b9fc-442c119dae0d","identifier":[{"system":"https://bluebutton.cms.gov/resources/variables/clm_id","value":"357cf8f9-8e44-4d18-b0ba-8a2a26b94bcf"},{"system":"https://bluebutton.cms.gov/resources/identifier/claim-group","value":"99999999999"}],"insurance":{"coverage":{"reference":"#coverage"}},"item":[{"category":{"coding":[{"code":"1","display":"Medical care","system":"https://bluebutton.cms.gov/resources/variables/line_cms_type_srvc_cd"}]},"encounter":[{"reference":"Encounter/5f86b869-c64d-488f-bb39-9f44f1ca20a0"}],"locationCodeableConcept":{"coding":[{"code":"21","display":"Inpatient Hospital","system":"https://bluebutton.cms.gov/resources/variables/line_place_of_srvc_cd"}]},"sequence":1,"servicedPeriod":{"end":"2010-09-05T11:18:29-04:00","start":"2010-09-05T11:03:29-04:00"}},{"adjudication":[{"amount":{"code":"USD","system":"urn:iso:std:iso:4217","value":28.104000000000003},"category":{"coding":[{"code":"https://bluebutton.cms.gov/resources/variables/line_coinsrnc_amt","display":"Line Beneficiary Coinsurance Amount","system":"https://bluebutton.cms.gov/resources/codesystem/adjudication"}]}},{"amount":{"code":"USD","system":"urn:iso:std:iso:4217","value":112.41600000000001},"category":{"coding":[{"code":"https://bluebutton.cms.gov/resources/variables/line_prvdr_pmt_amt","display":"Line Provider Payment Amount","system":"https://bluebutton.cms.gov/resources/codesystem/adjudication"}]}},{"amount":{"code":"USD","system":"urn:iso:std:iso:4217","value":140.52},"category":{"coding":[{"code":"https://bluebutton.cms.gov/resources/variables/line_sbmtd_chrg_amt","display":"Line Submitted Charge Amount","system":"https://bluebutton.cms.gov/resources/codesystem/adjudication"}]}},{"amount":{"code":"USD","system":"urn:iso:std:iso:4217","value":140.52},"category":{"coding":[{"code":"https://bluebutton.cms.gov/resources/variables/line_alowd_chrg_amt","display":"Line Allowed Charge Amount","system":"https://bluebutton.cms.gov/resources/codesystem/adjudication"}]}},{"amount":{"code":"USD","system":"urn:iso:std:iso:4217","value":0},"category":{"coding":[{"code":"https://bluebutton.cms.gov/resources/variables/line_bene_ptb_ddctbl_amt","display":"Line Beneficiary Part B Deductible Amount","system":"https://bluebutton.cms.gov/resources/codesystem/adjudication"}]}},{"category":{"coding":[{"code":"https://bluebutton.cms.gov/resources/variables/line_prcsg_ind_cd","display":"Line Processing Indicator Code","system":"https://bluebutton.cms.gov/resources/codesystem/adjudication"}]},"reason":{"coding":[{"code":"A","display":"Allowed","system":"https://bluebutton.cms.gov/resources/variables/line_prcsg_ind_cd"}]}}],"category":{"coding":[{"code":"1","display":"Medical care","system":"https://bluebutton.cms.gov/resources/variables/line_cms_type_srvc_cd"}]},"informationLinkId":[1],"locationCodeableConcept":{"coding":[{"code":"21","display":"Inpatient Hospital","system":"https://bluebutton.cms.gov/resources/variables/line_place_of_srvc_cd"}]},"net":{"code":"USD","system":"urn:iso:std:iso:4217","value":140.52},"sequence":2,"servicedPeriod":{"end":"2010-09-05T11:18:29-04:00","start":"2010-09-05T11:03:29-04:00"}}],"meta":{"lastUpdated":"2019-04-09T10:50:50.467535+00:00","versionId":"MTU1NDgwNzA1MDQ2NzUzNTAwMA"},"organization":{"identifier":{"value":"26f36041-e05b-4ed4-9b86-85f403bf1d18"}},"patient":{"reference":"Patient/00bce077-b35e-456a-aca4-4fd257f3319f"},"payment":{"amount":{"code":"USD","system":"urn:iso:std:iso:4217","value":112.41600000000001}},"provider":{"identifier":{"value":"48d6ffb3-0aa9-4e21-b3f7-808de9f3fb0d"}},"referral":{"reference":"#1"},"resourceType":"ExplanationOfBenefit","status":"active","totalCost":{"code":"USD","system":"urn:iso:std:iso:4217","value":265.52},"type":{"coding":[{"code":"71","display":"Local carrier non-durable medical equipment, prosthetics, orthotics, and supplies (DMEPOS) claim","system":"https://bluebutton.cms.gov/resources/variables/nch_clm_type_cd"},{"code":"CARRIER","display":"EOB Type","system":"https://bluebutton.cms.gov/resources/codesystem/eob-type"},{"code":"professional","display":"Claim Type","system":"http://hl7.org/fhir/ex-claimtype"},{"code":"O","display":"Part B physician/supplier claim record (processed by local carriers; can include DMEPOS services)","system":"https://bluebutton.cms.gov/resources/variables/nch_near_line_rec_ident_cd"}]}}},{"resource":{"billablePeriod":{"end":"2019-09-30T12:33:29-04:00","extension":[{"url":"https://bluebutton.cms.gov/assets/ig/StructureDefinition-bluebutton-inpatient-claim-query-cd-extension","valueCoding":{"code":"3","display":"Final Bill","system":"https://bluebutton.cms.gov/assets/ig/ValueSet-claim-query-cd"}}],"start":"2018-09-30T12:33:29-04:00"},"careTeam":[{"provider":{"identifier":{"system":"http://hl7.org/fhir/sid/us-npi","value":"99999999"}},"role":{"coding":[{"code":"primary","display":"Primary Care Practitioner","system":"http://hl7.org/fhir/claimcareteamrole"}]},"sequence":1}],"contained":[{"id":"coverage","resourceType":"Coverage","type":{"text":"medicaid"}}],"extension":[{"url":"https://bluebutton.cms.gov/assets/ig/StructureDefinition-bluebutton-inpatient-ime-op-clm-val-amt-extension","valueMoney":{"code":"USD","system":"urn:iso:std:iso:4217","value":400}},{"url":"https://bluebutton.cms.gov/assets/ig/StructureDefinition-bluebutton-inpatient-dsh-op-clm-val-amt-extension","valueMoney":{"code":"USD","system":"urn:iso:std:iso:4217","value":0}},{"url":"https://bluebutton.cms.gov/assets/ig/StructureDefinition-bluebutton-inpatient-clm-pass-thru-per-diem-amt-extension","valueMoney":{"code":"USD","system":"urn:iso:std:iso:4217","value":0}},{"url":"https://bluebutton.cms.gov/assets/ig/StructureDefinition-bluebutton-inpatient-nch-profnl-cmpnt-chrg-amt-extension","valueMoney":{"code":"USD","system":"urn:iso:std:iso:4217","value":0}},{"url":"https://bluebutton.cms.gov/assets/ig/StructureDefinition-bluebutton-inpatient-clm-tot-pps-cptl-amt-extension","valueMoney":{"code":"USD","system":"urn:iso:std:iso:4217","value":0}},{"url":"https://bluebutton.cms.gov/assets/ig/StructureDefinition-bluebutton-inpatient-nch-bene-ip-ddctbl-amt-extension","valueMoney":{"code":"USD","system":"urn:iso:std:iso:4217","value":0}},{"url":"https://bluebutton.cms.gov/assets/ig/StructureDefinition-bluebutton-inpatient-nch-bene-pta-coinsrnc-lblty-amt-extension","valueMoney":{"code":"USD","system":"urn:iso:std:iso:4217","value":0}},{"url":"https://bluebutton.cms.gov/assets/ig/StructureDefinition-bluebutton-inpatient-nch-ip-ncvrd-chrg-amt-extension","valueMoney":{"code":"USD","system":"urn:iso:std:iso:4217","value":0}},{"url":"https://bluebutton.cms.gov/assets/ig/StructureDefinition-bluebutton-inpatient-nch-ip-tot-ddctn-amt-extension","valueMoney":{"code":"USD","system":"urn:iso:std:iso:4217","value":0}},{"url":"https://bluebutton.cms.gov/assets/ig/StructureDefinition-bluebutton-inpatient-clm-pps-cptl-dsprprtnt-shr-amt-extension","valueMoney":{"code":"USD","system":"urn:iso:std:iso:4217","value":0}},{"url":"https://bluebutton.cms.gov/assets/ig/StructureDefinition-bluebutton-inpatient-clm-pps-cptl-excptn-amt-extension","valueMoney":{"code":"USD","system":"urn:iso:std:iso:4217","value":0}},{"url":"https://bluebutton.cms.gov/assets/ig/StructureDefinition-bluebutton-inpatient-clm-pps-cptl-fsp-amt-extension","valueMoney":{"code":"USD","system":"urn:iso:std:iso:4217","value":0}},{"url":"https://bluebutton.cms.gov/assets/ig/StructureDefinition-bluebutton-inpatient-clm-pps-cptl-ime-amt-extension","valueMoney":{"code":"USD","system":"urn:iso:std:iso:4217","value":400}},{"url":"https://bluebutton.cms.gov/assets/ig/StructureDefinition-bluebutton-inpatient-clm-pps-cptl-outlier-amt-extension","valueMoney":{"code":"USD","system":"urn:iso:std:iso:4217","value":0}},{"url":"https://bluebutton.cms.gov/assets/ig/StructureDefinition-bluebutton-inpatient-clm-pps-old-cptl-hld-hrmls-amt-extension","valueMoney":{"code":"USD","system":"urn:iso:std:iso:4217","value":0}},{"url":"https://bluebutton.cms.gov/assets/ig/StructureDefinition-bluebutton-inpatient-nch-drg-outlier-aprvd-pmt-amt-extension","valueMoney":{"code":"USD","system":"urn:iso:std:iso:4217","value":0}},{"url":"https://bluebutton.cms.gov/assets/ig/StructureDefinition-bluebutton-inpatient-nch-bene-blood-ddctbl-lblty-am-extension","valueMoney":{"code":"USD","system":"urn:iso:std:iso:4217","value":0}},{"url":"https://bluebutton.cms.gov/assets/ig/StructureDefinition-bluebutton-inpatient-clm-mdcr-non-pmt-rsn-cd-extension","valueCoding":{"code":"N","display":"All other reasons for non-payment","system":"https://bluebutton.cms.gov/assets/ig/CodeSystem-clm-mdcr-non-pmt-rsn-cd"}},{"url":"https://bluebutton.cms.gov/assets/ig/StructureDefinition-bluebutton-inpatient-prpayamt-extension","valueMoney":{"code":"USD","system":"urn:iso:std:iso:4217","value":0}},{"url":"https://bluebutton.cms.gov/assets/ig/StructureDefinition-bluebutton-inpatient-fi-num-extension","valueIdentifier":{"system":"https://bluebutton.cms.gov/assets/ig/CodeSystem-fi-num","value":"002000"}}],"id":"a1c3801d-5aac-4312-9101-ef5bbceb15f9","identifier":[{"system":"https://bluebutton.cms.gov/resources/variables/clm_id","value":"3443631b-1d86-4d89-bde6-3cc1f6cd4ccb"},{"system":"https://bluebutton.cms.gov/resources/identifier/claim-group","value":"99999999999"}],"insurance":{"coverage":{"reference":"#coverage"}},"item":[{"extension":[{"url":"https://bluebutton.cms.gov/assets/ig/StructureDefinition-bluebutton-inpatient-rev-cntr-ndc-qty-extension","valueQuantity":{"value":0}}],"locationCodeableConcept":{"coding":[{"code":"21","display":"Inpatient Hospital","system":"https://bluebutton.cms.gov/resources/variables/line_place_of_srvc_cd"}]},"sequence":1},{"adjudication":[{"amount":{"code":"USD","system":"urn:iso:std:iso:4217","value":572.328},"category":{"coding":[{"code":"https://bluebutton.cms.gov/resources/variables/line_coinsrnc_amt","display":"Line Beneficiary Coinsurance Amount","system":"https://bluebutton.cms.gov/resources/codesystem/adjudication"}]}},{"amount":{"code":"USD","system":"urn:iso:std:iso:4217","value":2289.312},"category":{"coding":[{"code":"https://bluebutton.cms.gov/resources/variables/line_prvdr_pmt_amt","display":"Line Provider Payment Amount","system":"https://bluebutton.cms.gov/resources/codesystem/adjudication"}]}},{"amount":{"code":"USD","system":"urn:iso:std:iso:4217","value":2861.64},"category":{"coding":[{"code":"https://bluebutton.cms.gov/resources/variables/line_sbmtd_chrg_amt","display":"Line Submitted Charge Amount","system":"https://bluebutton.cms.gov/resources/codesystem/adjudication"}]}},{"amount":{"code":"USD","system":"urn:iso:std:iso:4217","value":2861.64},"category":{"coding":[{"code":"https://bluebutton.cms.gov/resources/variables/line_alowd_chrg_amt","display":"Line Allowed Charge Amount","system":"https://bluebutton.cms.gov/resources/codesystem/adjudication"}]}},{"amount":{"code":"USD","system":"urn:iso:std:iso:4217","value":0},"category":{"coding":[{"code":"https://bluebutton.cms.gov/resources/variables/line_bene_ptb_ddctbl_amt","display":"Line Beneficiary Part B Deductible Amount","system":"https://bluebutton.cms.gov/resources/codesystem/adjudication"}]}},{"category":{"coding":[{"code":"https://bluebutton.cms.gov/resources/variables/line_prcsg_ind_cd","display":"Line Processing Indicator Code","system":"https://bluebutton.cms.gov/resources/codesystem/adjudication"}]}}],"extension":[{"url":"https://bluebutton.cms.gov/assets/ig/StructureDefinition-bluebutton-inpatient-rev-cntr-ndc-qty-extension","valueQuantity":{"value":0}}],"locationCodeableConcept":{"coding":[{"code":"21","display":"Inpatient Hospital","system":"https://bluebutton.cms.gov/resources/variables/line_place_of_srvc_cd"}]},"sequence":2,"service":{"coding":[{"code":"104091002","system":"http://snomed.info/sct","version":"v1"}]}},{"adjudication":[{"amount":{"code":"USD","system":"urn:iso:std:iso:4217","value":599.3560000000001},"category":{"coding":[{"code":"https://bluebutton.cms.gov/resources/variables/line_coinsrnc_amt","display":"Line Beneficiary Coinsurance Amount","system":"https://bluebutton.cms.gov/resources/codesystem/adjudication"}]}},{"amount":{"code":"USD","system":"urn:iso:std:iso:4217","value":2397.4240000000004},"category":{"coding":[{"code":"https://bluebutton.cms.gov/resources/variables/line_prvdr_pmt_amt","display":"Line Provider Payment Amount","system":"https://bluebutton.cms.gov/resources/codesystem/adjudication"}]}},{"amount":{"code":"USD","system":"urn:iso:std:iso:4217","value":2996.78},"category":{"coding":[{"code":"https://bluebutton.cms.gov/resources/variables/line_sbmtd_chrg_amt","display":"Line Submitted Charge Amount","system":"https://bluebutton.cms.gov/resources/codesystem/adjudication"}]}},{"amount":{"code":"USD","system":"urn:iso:std:iso:4217","value":2996.78},"category":{"coding":[{"code":"https://bluebutton.cms.gov/resources/variables/line_alowd_chrg_amt","display":"Line Allowed Charge Amount","system":"https://bluebutton.cms.gov/resources/codesystem/adjudication"}]}},{"amount":{"code":"USD","system":"urn:iso:std:iso:4217","value":0},"category":{"coding":[{"code":"https://bluebutton.cms.gov/resources/variables/line_bene_ptb_ddctbl_amt","display":"Line Beneficiary Part B Deductible Amount","system":"https://bluebutton.cms.gov/resources/codesystem/adjudication"}]}},{"category":{"coding":[{"code":"https://bluebutton.cms.gov/resources/variables/line_prcsg_ind_cd","display":"Line Processing Indicator Code","system":"https://bluebutton.cms.gov/resources/codesystem/adjudication"}]}}],"extension":[{"url":"https://bluebutton.cms.gov/assets/ig/StructureDefinition-bluebutton-inpatient-rev-cntr-ndc-qty-extension","valueQuantity":{"value":0}}],"locationCodeableConcept":{"coding":[{"code":"21","display":"Inpatient Hospital","system":"https://bluebutton.cms.gov/resources/variables/line_place_of_srvc_cd"}]},"sequence":3,"service":{"coding":[{"code":"399014008","system":"http://snomed.info/sct","version":"v1"}]}},{"adjudication":[{"amount":{"code":"USD","system":"urn:iso:std:iso:4217","value":403.84200000000004},"category":{"coding":[{"code":"https://bluebutton.cms.gov/resources/variables/line_coinsrnc_amt","display":"Line Beneficiary Coinsurance Amount","system":"https://bluebutton.cms.gov/resources/codesystem/adjudication"}]}},{"amount":{"code":"USD","system":"urn:iso:std:iso:4217","value":1615.3680000000002},"category":{"coding":[{"code":"https://bluebutton.cms.gov/resources/variables/line_prvdr_pmt_amt","display":"Line Provider Payment Amount","system":"https://bluebutton.cms.gov/resources/codesystem/adjudication"}]}},{"amount":{"code":"USD","system":"urn:iso:std:iso:4217","value":2019.21},"category":{"coding":[{"code":"https://bluebutton.cms.gov/resources/variables/line_sbmtd_chrg_amt","display":"Line Submitted Charge Amount","system":"https://bluebutton.cms.gov/resources/codesystem/adjudication"}]}},{"amount":{"code":"USD","system":"urn:iso:std:iso:4217","value":2019.21},"category":{"coding":[{"code":"https://bluebutton.cms.gov/resources/variables/line_alowd_chrg_amt","display":"Line Allowed Charge Amount","system":"https://bluebutton.cms.gov/resources/codesystem/adjudication"}]}},{"amount":{"code":"USD","system":"urn:iso:std:iso:4217","value":0},"category":{"coding":[{"code":"https://bluebutton.cms.gov/resources/variables/line_bene_ptb_ddctbl_amt","display":"Line Beneficiary Part B Deductible Amount","system":"https://bluebutton.cms.gov/resources/codesystem/adjudication"}]}},{"category":{"coding":[{"code":"https://bluebutton.cms.gov/resources/variables/line_prcsg_ind_cd","display":"Line Processing Indicator Code","system":"https://bluebutton.cms.gov/resources/codesystem/adjudication"}]}}],"extension":[{"url":"https://bluebutton.cms.gov/assets/ig/StructureDefinition-bluebutton-inpatient-rev-cntr-ndc-qty-extension","valueQuantity":{"value":0}}],"locationCodeableConcept":{"coding":[{"code":"21","display":"Inpatient Hospital","system":"https://bluebutton.cms.gov/resources/variables/line_place_of_srvc_cd"}]},"sequence":4,"service":{"coding":[{"code":"268556000","system":"http://snomed.info/sct","version":"v1"}]}},{"adjudication":[{"amount":{"code":"USD","system":"urn:iso:std:iso:4217","value":1774.4220000000003},"category":{"coding":[{"code":"https://bluebutton.cms.gov/resources/variables/line_coinsrnc_amt","display":"Line Beneficiary Coinsurance Amount","system":"https://bluebutton.cms.gov/resources/codesystem/adjudication"}]}},{"amount":{"code":"USD","system":"urn:iso:std:iso:4217","value":7097.688000000001},"category":{"coding":[{"code":"https://bluebutton.cms.gov/resources/variables/line_prvdr_pmt_amt","display":"Line Provider Payment Amount","system":"https://bluebutton.cms.gov/resources/codesystem/adjudication"}]}},{"amount":{"code":"USD","system":"urn:iso:std:iso:4217","value":8872.11},"category":{"coding":[{"code":"https://bluebutton.cms.gov/resources/variables/line_sbmtd_chrg_amt","display":"Line Submitted Charge Amount","system":"https://bluebutton.cms.gov/resources/codesystem/adjudication"}]}},{"amount":{"code":"USD","system":"urn:iso:std:iso:4217","value":8872.11},"category":{"coding":[{"code":"https://bluebutton.cms.gov/resources/variables/line_alowd_chrg_amt","display":"Line Allowed Charge Amount","system":"https://bluebutton.cms.gov/resources/codesystem/adjudication"}]}},{"amount":{"code":"USD","system":"urn:iso:std:iso:4217","value":0},"category":{"coding":[{"code":"https://bluebutton.cms.gov/resources/variables/line_bene_ptb_ddctbl_amt","display":"Line Beneficiary Part B Deductible Amount","system":"https://bluebutton.cms.gov/resources/codesystem/adjudication"}]}},{"category":{"coding":[{"code":"https://bluebutton.cms.gov/resources/variables/line_prcsg_ind_cd","display":"Line Processing Indicator Code","system":"https://bluebutton.cms.gov/resources/codesystem/adjudication"}]}}],"extension":[{"url":"https://bluebutton.cms.gov/assets/ig/StructureDefinition-bluebutton-inpatient-rev-cntr-ndc-qty-extension","valueQuantity":{"value":0}}],"locationCodeableConcept":{"coding":[{"code":"21","display":"Inpatient Hospital","system":"https://bluebutton.cms.gov/resources/variables/line_place_of_srvc_cd"}]},"sequence":5,"service":{"coding":[{"code":"274804006","system":"http://snomed.info/sct","version":"v1"}]}},{"adjudication":[{"amount":{"code":"USD","system":"urn:iso:std:iso:4217","value":884.2420000000001},"category":{"coding":[{"code":"https://bluebutton.cms.gov/resources/variables/line_coinsrnc_amt","display":"Line Beneficiary Coinsurance Amount","system":"https://bluebutton.cms.gov/resources/codesystem/adjudication"}]}},{"amount":{"code":"USD","system":"urn:iso:std:iso:4217","value":3536.9680000000003},"category":{"coding":[{"code":"https://bluebutton.cms.gov/resources/variables/line_prvdr_pmt_amt","display":"Line Provider Payment Amount","system":"https://bluebutton.cms.gov/resources/codesystem/adjudication"}]}},{"amount":{"code":"USD","system":"urn:iso:std:iso:4217","value":4421.21},"category":{"coding":[{"code":"https://bluebutton.cms.gov/resources/variables/line_sbmtd_chrg_amt","display":"Line Submitted Charge Amount","system":"https://bluebutton.cms.gov/resources/codesystem/adjudication"}]}},{"amount":{"code":"USD","system":"urn:iso:std:iso:4217","value":4421.21},"category":{"coding":[{"code":"https://bluebutton.cms.gov/resources/variables/line_alowd_chrg_amt","display":"Line Allowed Charge Amount","system":"https://bluebutton.cms.gov/resources/codesystem/adjudication"}]}},{"amount":{"code":"USD","system":"urn:iso:std:iso:4217","value":0},"category":{"coding":[{"code":"https://bluebutton.cms.gov/resources/variables/line_bene_ptb_ddctbl_amt","display":"Line Beneficiary Part B Deductible Amount","system":"https://bluebutton.cms.gov/resources/codesystem/adjudication"}]}},{"category":{"coding":[{"code":"https://bluebutton.cms.gov/resources/variables/line_prcsg_ind_cd","display":"Line Processing Indicator Code","system":"https://bluebutton.cms.gov/resources/codesystem/adjudication"}]}}],"extension":[{"url":"https://bluebutton.cms.gov/assets/ig/StructureDefinition-bluebutton-inpatient-rev-cntr-ndc-qty-extension","valueQuantity":{"value":0}}],"locationCodeableConcept":{"coding":[{"code":"21","display":"Inpatient Hospital","system":"https://bluebutton.cms.gov/resources/variables/line_place_of_srvc_cd"}]},"sequence":6,"service":{"coding":[{"code":"225158009","system":"http://snomed.info/sct","version":"v1"}]}}],"meta":{"lastUpdated":"2019-04-09T12:00:35.195020+00:00","profile":["https://bluebutton.cms.gov/assets/ig/StructureDefinition-bluebutton-inpatient-claim"],"versionId":"MTU1NDgxMTIzNTE5NTAyMDAwMA"},"organization":{"identifier":{"value":"26f36041-e05b-4ed4-9b86-85f403bf1d18"}},"patient":{"reference":"Patient/00bce077-b35e-456a-aca4-4fd257f3319f"},"payment":{"amount":{"code":"USD","system":"urn:iso:std:iso:4217","value":16936.760000000002}},"provider":{"identifier":{"value":"48d6ffb3-0aa9-4e21-b3f7-808de9f3fb0d"}},"resourceType":"ExplanationOfBenefit","status":"active","totalCost":{"code":"USD","system":"urn:iso:std:iso:4217","value":21295.95},"type":{"coding":[{"code":"71","display":"Local carrier non-durable medical equipment, prosthetics, orthotics, and supplies (DMEPOS) claim","system":"https://bluebutton.cms.gov/resources/variables/nch_clm_type_cd"},{"code":"CARRIER","display":"EOB Type","system":"https://bluebutton.cms.gov/resources/codesystem/eob-type"},{"code":"professional","display":"Claim Type","system":"http://hl7.org/fhir/ex-claimtype"},{"code":"O","display":"Part B physician/supplier claim record (processed by local carriers; can include DMEPOS services)","system":"https://bluebutton.cms.gov/resources/variables/nch_near_line_rec_ident_cd"}]}}},{"resource":{"billablePeriod":{"end":"2018-10-01T11:33:29-04:00","start":"2017-10-01T11:33:29-04:00"},"careTeam":[{"provider":{"identifier":{"system":"http://hl7.org/fhir/sid/us-npi","value":"99999999"}},"role":{"coding":[{"code":"primary","display":"Primary Care Practitioner","system":"http://hl7.org/fhir/claimcareteamrole"}]},"sequence":1}],"claim":{"reference":"Claim/19f19428-8a00-4087-b958-eb25434eb4cc"},"contained":[{"id":"1","intent":"order","recipient":[{"identifier":{"system":"http://hl7.org/fhir/sid/us-npi","value":"99999999"}}],"requester":{"agent":{"identifier":{"system":"http://hl7.org/fhir/sid/us-npi","value":"99999999"}}},"resourceType":"ReferralRequest","status":"completed","subject":{"reference":"Patient/00bce077-b35e-456a-aca4-4fd257f3319f"}},{"id":"coverage","resourceType":"Coverage","type":{"text":"medicaid"}}],"created":"2017-10-01T11:33:29-04:00","id":"ae705d08-0fad-443d-9098-443352030f76","identifier":[{"system":"https://bluebutton.cms.gov/resources/variables/clm_id","value":"19f19428-8a00-4087-b958-eb25434eb4cc"},{"system":"https://bluebutton.cms.gov/resources/identifier/claim-group","value":"99999999999"}],"insurance":{"coverage":{"reference":"#coverage"}},"item":[{"category":{"coding":[{"code":"1","display":"Medical care","system":"https://bluebutton.cms.gov/resources/variables/line_cms_type_srvc_cd"}]},"encounter":[{"reference":"Encounter/14c8323f-be9c-4332-91a0-174a57dd5fd2"}],"locationCodeableConcept":{"coding":[{"code":"21","display":"Inpatient Hospital","system":"https://bluebutton.cms.gov/resources/variables/line_place_of_srvc_cd"}]},"sequence":1,"servicedPeriod":{"end":"2017-10-01T11:33:29-04:00","start":"2017-10-01T11:03:29-04:00"}},{"adjudication":[{"amount":{"code":"USD","system":"urn:iso:std:iso:4217","value":28.104000000000003},"category":{"coding":[{"code":"https://bluebutton.cms.gov/resources/variables/line_coinsrnc_amt","display":"Line Beneficiary Coinsurance Amount","system":"https://bluebutton.cms.gov/resources/codesystem/adjudication"}]}},{"amount":{"code":"USD","system":"urn:iso:std:iso:4217","value":112.41600000000001},"category":{"coding":[{"code":"https://bluebutton.cms.gov/resources/variables/line_prvdr_pmt_amt","display":"Line Provider Payment Amount","system":"https://bluebutton.cms.gov/resources/codesystem/adjudication"}]}},{"amount":{"code":"USD","system":"urn:iso:std:iso:4217","value":140.52},"category":{"coding":[{"code":"https://bluebutton.cms.gov/resources/variables/line_sbmtd_chrg_amt","display":"Line Submitted Charge Amount","system":"https://bluebutton.cms.gov/resources/codesystem/adjudication"}]}},{"amount":{"code":"USD","system":"urn:iso:std:iso:4217","value":140.52},"category":{"coding":[{"code":"https://bluebutton.cms.gov/resources/variables/line_alowd_chrg_amt","display":"Line Allowed Charge Amount","system":"https://bluebutton.cms.gov/resources/codesystem/adjudication"}]}},{"amount":{"code":"USD","system":"urn:iso:std:iso:4217","value":0},"category":{"coding":[{"code":"https://bluebutton.cms.gov/resources/variables/line_bene_ptb_ddctbl_amt","display":"Line Beneficiary Part B Deductible Amount","system":"https://bluebutton.cms.gov/resources/codesystem/adjudication"}]}},{"category":{"coding":[{"code":"https://bluebutton.cms.gov/resources/variables/line_prcsg_ind_cd","display":"Line Processing Indicator Code","system":"https://bluebutton.cms.gov/resources/codesystem/adjudication"}]},"reason":{"coding":[{"code":"A","display":"Allowed","system":"https://bluebutton.cms.gov/resources/variables/line_prcsg_ind_cd"}]}}],"category":{"coding":[{"code":"1","display":"Medical care","system":"https://bluebutton.cms.gov/resources/variables/line_cms_type_srvc_cd"}]},"informationLinkId":[1],"locationCodeableConcept":{"coding":[{"code":"21","display":"Inpatient Hospital","system":"https://bluebutton.cms.gov/resources/variables/line_place_of_srvc_cd"}]},"net":{"code":"USD","system":"urn:iso:std:iso:4217","value":140.52},"sequence":2,"servicedPeriod":{"end":"2017-10-01T11:33:29-04:00","start":"2017-10-01T11:03:29-04:00"}},{"adjudication":[{"amount":{"code":"USD","system":"urn:iso:std:iso:4217","value":28.104000000000003},"category":{"coding":[{"code":"https://bluebutton.cms.gov/resources/variables/line_coinsrnc_amt","display":"Line Beneficiary Coinsurance Amount","system":"https://bluebutton.cms.gov/resources/codesystem/adjudication"}]}},{"amount":{"code":"USD","system":"urn:iso:std:iso:4217","value":112.41600000000001},"category":{"coding":[{"code":"https://bluebutton.cms.gov/resources/variables/line_prvdr_pmt_amt","display":"Line Provider Payment Amount","system":"https://bluebutton.cms.gov/resources/codesystem/adjudication"}]}},{"amount":{"code":"USD","system":"urn:iso:std:iso:4217","value":140.52},"category":{"coding":[{"code":"https://bluebutton.cms.gov/resources/variables/line_sbmtd_chrg_amt","display":"Line Submitted Charge Amount","system":"https://bluebutton.cms.gov/resources/codesystem/adjudication"}]}},{"amount":{"code":"USD","system":"urn:iso:std:iso:4217","value":140.52},"category":{"coding":[{"code":"https://bluebutton.cms.gov/resources/variables/line_alowd_chrg_amt","display":"Line Allowed Charge Amount","system":"https://bluebutton.cms.gov/resources/codesystem/adjudication"}]}},{"amount":{"code":"USD","system":"urn:iso:std:iso:4217","value":0},"category":{"coding":[{"code":"https://bluebutton.cms.gov/resources/variables/line_bene_ptb_ddctbl_amt","display":"Line Beneficiary Part B Deductible Amount","system":"https://bluebutton.cms.gov/resources/codesystem/adjudication"}]}},{"category":{"coding":[{"code":"https://bluebutton.cms.gov/resources/variables/line_prcsg_ind_cd","display":"Line Processing Indicator Code","system":"https://bluebutton.cms.gov/resources/codesystem/adjudication"}]},"reason":{"coding":[{"code":"A","display":"Allowed","system":"https://bluebutton.cms.gov/resources/variables/line_prcsg_ind_cd"}]}}],"category":{"coding":[{"code":"1","display":"Medical care","system":"https://bluebutton.cms.gov/resources/variables/line_cms_type_srvc_cd"}]},"informationLinkId":[2],"locationCodeableConcept":{"coding":[{"code":"21","display":"Inpatient Hospital","system":"https://bluebutton.cms.gov/resources/variables/line_place_of_srvc_cd"}]},"net":{"code":"USD","system":"urn:iso:std:iso:4217","value":140.52},"sequence":3,"servicedPeriod":{"end":"2017-10-01T11:33:29-04:00","start":"2017-10-01T11:03:29-04:00"}},{"adjudication":[{"amount":{"code":"USD","system":"urn:iso:std:iso:4217","value":28.104000000000003},"category":{"coding":[{"code":"https://bluebutton.cms.gov/resources/variables/line_coinsrnc_amt","display":"Line Beneficiary Coinsurance Amount","system":"https://bluebutton.cms.gov/resources/codesystem/adjudication"}]}},{"amount":{"code":"USD","system":"urn:iso:std:iso:4217","value":112.41600000000001},"category":{"coding":[{"code":"https://bluebutton.cms.gov/resources/variables/line_prvdr_pmt_amt","display":"Line Provider Payment Amount","system":"https://bluebutton.cms.gov/resources/codesystem/adjudication"}]}},{"amount":{"code":"USD","system":"urn:iso:std:iso:4217","value":140.52},"category":{"coding":[{"code":"https://bluebutton.cms.gov/resources/variables/line_sbmtd_chrg_amt","display":"Line Submitted Charge Amount","system":"https://bluebutton.cms.gov/resources/codesystem/adjudication"}]}},{"amount":{"code":"USD","system":"urn:iso:std:iso:4217","value":140.52},"category":{"coding":[{"code":"https://bluebutton.cms.gov/resources/variables/line_alowd_chrg_amt","display":"Line Allowed Charge Amount","system":"https://bluebutton.cms.gov/resources/codesystem/adjudication"}]}},{"amount":{"code":"USD","system":"urn:iso:std:iso:4217","value":0},"category":{"coding":[{"code":"https://bluebutton.cms.gov/resources/variables/line_bene_ptb_ddctbl_amt","display":"Line Beneficiary Part B Deductible Amount","system":"https://bluebutton.cms.gov/resources/codesystem/adjudication"}]}},{"category":{"coding":[{"code":"https://bluebutton.cms.gov/resources/variables/line_prcsg_ind_cd","display":"Line Processing Indicator Code","system":"https://bluebutton.cms.gov/resources/codesystem/adjudication"}]},"reason":{"coding":[{"code":"A","display":"Allowed","system":"https://bluebutton.cms.gov/resources/variables/line_prcsg_ind_cd"}]}}],"category":{"coding":[{"code":"1","display":"Medical care","system":"https://bluebutton.cms.gov/resources/variables/line_cms_type_srvc_cd"}]},"informationLinkId":[3],"locationCodeableConcept":{"coding":[{"code":"21","display":"Inpatient Hospital","system":"https://bluebutton.cms.gov/resources/variables/line_place_of_srvc_cd"}]},"net":{"code":"USD","system":"urn:iso:std:iso:4217","value":140.52},"sequence":4,"servicedPeriod":{"end":"2017-10-01T11:33:29-04:00","start":"2017-10-01T11:03:29-04:00"}},{"adjudication":[{"amount":{"code":"USD","system":"urn:iso:std:iso:4217","value":28.104000000000003},"category":{"coding":[{"code":"https://bluebutton.cms.gov/resources/variables/line_coinsrnc_amt","display":"Line Beneficiary Coinsurance Amount","system":"https://bluebutton.cms.gov/resources/codesystem/adjudication"}]}},{"amount":{"code":"USD","system":"urn:iso:std:iso:4217","value":112.41600000000001},"category":{"coding":[{"code":"https://bluebutton.cms.gov/resources/variables/line_prvdr_pmt_amt","display":"Line Provider Payment Amount","system":"https://bluebutton.cms.gov/resources/codesystem/adjudication"}]}},{"amount":{"code":"USD","system":"urn:iso:std:iso:4217","value":140.52},"category":{"coding":[{"code":"https://bluebutton.cms.gov/resources/variables/line_sbmtd_chrg_amt","display":"Line Submitted Charge Amount","system":"https://bluebutton.cms.gov/resources/codesystem/adjudication"}]}},{"amount":{"code":"USD","system":"urn:iso:std:iso:4217","value":140.52},"category":{"coding":[{"code":"https://bluebutton.cms.gov/resources/variables/line_alowd_chrg_amt","display":"Line Allowed Charge Amount","system":"https://bluebutton.cms.gov/resources/codesystem/adjudication"}]}},{"amount":{"code":"USD","system":"urn:iso:std:iso:4217","value":0},"category":{"coding":[{"code":"https://bluebutton.cms.gov/resources/variables/line_bene_ptb_ddctbl_amt","display":"Line Beneficiary Part B Deductible Amount","system":"https://bluebutton.cms.gov/resources/codesystem/adjudication"}]}},{"category":{"coding":[{"code":"https://bluebutton.cms.gov/resources/variables/line_prcsg_ind_cd","display":"Line Processing Indicator Code","system":"https://bluebutton.cms.gov/resources/codesystem/adjudication"}]},"reason":{"coding":[{"code":"A","display":"Allowed","system":"https://bluebutton.cms.gov/resources/variables/line_prcsg_ind_cd"}]}}],"category":{"coding":[{"code":"1","display":"Medical care","system":"https://bluebutton.cms.gov/resources/variables/line_cms_type_srvc_cd"}]},"informationLinkId":[4],"locationCodeableConcept":{"coding":[{"code":"21","display":"Inpatient Hospital","system":"https://bluebutton.cms.gov/resources/variables/line_place_of_srvc_cd"}]},"net":{"code":"USD","system":"urn:iso:std:iso:4217","value":140.52},"sequence":5,"servicedPeriod":{"end":"2017-10-01T11:33:29-04:00","start":"2017-10-01T11:03:29-04:00"}},{"adjudication":[{"amount":{"code":"USD","system":"urn:iso:std:iso:4217","value":164.90800000000002},"category":{"coding":[{"code":"https://bluebutton.cms.gov/resources/variables/line_coinsrnc_amt","display":"Line Beneficiary Coinsurance Amount","system":"https://bluebutton.cms.gov/resources/codesystem/adjudication"}]}},{"amount":{"code":"USD","system":"urn:iso:std:iso:4217","value":659.6320000000001},"category":{"coding":[{"code":"https://bluebutton.cms.gov/resources/variables/line_prvdr_pmt_amt","display":"Line Provider Payment Amount","system":"https://bluebutton.cms.gov/resources/codesystem/adjudication"}]}},{"amount":{"code":"USD","system":"urn:iso:std:iso:4217","value":824.54},"category":{"coding":[{"code":"https://bluebutton.cms.gov/resources/variables/line_sbmtd_chrg_amt","display":"Line Submitted Charge Amount","system":"https://bluebutton.cms.gov/resources/codesystem/adjudication"}]}},{"amount":{"code":"USD","system":"urn:iso:std:iso:4217","value":824.54},"category":{"coding":[{"code":"https://bluebutton.cms.gov/resources/variables/line_alowd_chrg_amt","display":"Line Allowed Charge Amount","system":"https://bluebutton.cms.gov/resources/codesystem/adjudication"}]}},{"amount":{"code":"USD","system":"urn:iso:std:iso:4217","value":0},"category":{"coding":[{"code":"https://bluebutton.cms.gov/resources/variables/line_bene_ptb_ddctbl_amt","display":"Line Beneficiary Part B Deductible Amount","system":"https://bluebutton.cms.gov/resources/codesystem/adjudication"}]}},{"category":{"coding":[{"code":"https://bluebutton.cms.gov/resources/variables/line_prcsg_ind_cd","display":"Line Processing Indicator Code","system":"https://bluebutton.cms.gov/resources/codesystem/adjudication"}]},"reason":{"coding":[{"code":"A","display":"Allowed","system":"https://bluebutton.cms.gov/resources/variables/line_prcsg_ind_cd"}]}}],"category":{"coding":[{"code":"1","display":"Medical care","system":"https://bluebutton.cms.gov/resources/variables/line_cms_type_srvc_cd"}]},"locationCodeableConcept":{"coding":[{"code":"21","display":"Inpatient Hospital","system":"https://bluebutton.cms.gov/resources/variables/line_place_of_srvc_cd"}]},"net":{"code":"USD","system":"urn:iso:std:iso:4217","value":824.54},"sequence":6,"service":{"coding":[{"code":"428191000124101","system":"http://snomed.info/sct","version":"v1"}]},"servicedPeriod":{"end":"2017-10-01T11:33:29-04:00","start":"2017-10-01T11:03:29-04:00"}}],"meta":{"lastUpdated":"2019-04-09T12:00:35.174144+00:00","versionId":"MTU1NDgxMTIzNTE3NDE0NDAwMA"},"organization":{"identifier":{"value":"26f36041-e05b-4ed4-9b86-85f403bf1d18"}},"patient":{"reference":"Patient/00bce077-b35e-456a-aca4-4fd257f3319f"},"payment":{"amount":{"code":"USD","system":"urn:iso:std:iso:4217","value":1109.296}},"provider":{"identifier":{"value":"48d6ffb3-0aa9-4e21-b3f7-808de9f3fb0d"}},"referral":{"reference":"#1"},"resourceType":"ExplanationOfBenefit","status":"active","totalCost":{"code":"USD","system":"urn:iso:std:iso:4217","value":1511.62},"type":{"coding":[{"code":"71","display":"Local carrier non-durable medical equipment, prosthetics, orthotics, and supplies (DMEPOS) claim","system":"https://bluebutton.cms.gov/resources/variables/nch_clm_type_cd"},{"code":"CARRIER","display":"EOB Type","system":"https://bluebutton.cms.gov/resources/codesystem/eob-type"},{"code":"professional","display":"Claim Type","system":"http://hl7.org/fhir/ex-claimtype"},{"code":"O","display":"Part B physician/supplier claim record (processed by local carriers; can include DMEPOS services)","system":"https://bluebutton.cms.gov/resources/variables/nch_near_line_rec_ident_cd"}]}}},{"resource":{"billablePeriod":{"end":"2019-12-30T11:18:29-05:00","start":"2018-12-30T11:18:29-05:00"},"careTeam":[{"provider":{"identifier":{"system":"http://hl7.org/fhir/sid/us-npi","value":"99999999"}},"role":{"coding":[{"code":"primary","display":"Primary Care Practitioner","system":"http://hl7.org/fhir/claimcareteamrole"}]},"sequence":1}],"claim":{"reference":"Claim/34c8f9f3-7f23-4f53-98bb-85490dab848c"},"contained":[{"id":"1","intent":"order","recipient":[{"identifier":{"system":"http://hl7.org/fhir/sid/us-npi","value":"99999999"}}],"requester":{"agent":{"identifier":{"system":"http://hl7.org/fhir/sid/us-npi","value":"99999999"}}},"resourceType":"ReferralRequest","status":"completed","subject":{"reference":"Patient/00bce077-b35e-456a-aca4-4fd257f3319f"}},{"id":"coverage","resourceType":"Coverage","type":{"text":"medicaid"}}],"created":"2018-12-30T11:18:29-05:00","id":"bcd6c84e-1b2c-49e3-bb2d-19277711af38","identifier":[{"system":"https://bluebutton.cms.gov/resources/variables/clm_id","value":"34c8f9f3-7f23-4f53-98bb-85490dab848c"},{"system":"https://bluebutton.cms.gov/resources/identifier/claim-group","value":"99999999999"}],"insurance":{"coverage":{"reference":"#coverage"}},"item":[{"category":{"coding":[{"code":"1","display":"Medical care","system":"https://bluebutton.cms.gov/resources/variables/line_cms_type_srvc_cd"}]},"encounter":[{"reference":"Encounter/55f503b1-51d1-4560-bcaf-fb6cf02a4b68"}],"locationCodeableConcept":{"coding":[{"code":"23","display":"Emergency Room","system":"https://bluebutton.cms.gov/resources/variables/line_place_of_srvc_cd"}]},"sequence":1,"servicedPeriod":{"end":"2018-12-30T11:18:29-05:00","start":"2018-12-30T10:03:29-05:00"}},{"adjudication":[{"amount":{"code":"USD","system":"urn:iso:std:iso:4217","value":103.33},"category":{"coding":[{"code":"https://bluebutton.cms.gov/resources/variables/line_coinsrnc_amt","display":"Line Beneficiary Coinsurance Amount","system":"https://bluebutton.cms.gov/resources/codesystem/adjudication"}]}},{"amount":{"code":"USD","system":"urn:iso:std:iso:4217","value":413.32},"category":{"coding":[{"code":"https://bluebutton.cms.gov/resources/variables/line_prvdr_pmt_amt","display":"Line Provider Payment Amount","system":"https://bluebutton.cms.gov/resources/codesystem/adjudication"}]}},{"amount":{"code":"USD","system":"urn:iso:std:iso:4217","value":516.65},"category":{"coding":[{"code":"https://bluebutton.cms.gov/resources/variables/line_sbmtd_chrg_amt","display":"Line Submitted Charge Amount","system":"https://bluebutton.cms.gov/resources/codesystem/adjudication"}]}},{"amount":{"code":"USD","system":"urn:iso:std:iso:4217","value":516.65},"category":{"coding":[{"code":"https://bluebutton.cms.gov/resources/variables/line_alowd_chrg_amt","display":"Line Allowed Charge Amount","system":"https://bluebutton.cms.gov/resources/codesystem/adjudication"}]}},{"amount":{"code":"USD","system":"urn:iso:std:iso:4217","value":0},"category":{"coding":[{"code":"https://bluebutton.cms.gov/resources/variables/line_bene_ptb_ddctbl_amt","display":"Line Beneficiary Part B Deductible Amount","system":"https://bluebutton.cms.gov/resources/codesystem/adjudication"}]}},{"category":{"coding":[{"code":"https://bluebutton.cms.gov/resources/variables/line_prcsg_ind_cd","display":"Line Processing Indicator Code","system":"https://bluebutton.cms.gov/resources/codesystem/adjudication"}]},"reason":{"coding":[{"code":"A","display":"Allowed","system":"https://bluebutton.cms.gov/resources/variables/line_prcsg_ind_cd"}]}}],"category":{"coding":[{"code":"1","display":"Medical care","system":"https://bluebutton.cms.gov/resources/variables/line_cms_type_srvc_cd"}]},"locationCodeableConcept":{"coding":[{"code":"23","display":"Emergency Room","system":"https://bluebutton.cms.gov/resources/variables/line_place_of_srvc_cd"}]},"net":{"code":"USD","system":"urn:iso:std:iso:4217","value":516.65},"sequence":2,"service":{"coding":[{"code":"66348005","system":"http://snomed.info/sct","version":"v1"}]},"servicedPeriod":{"end":"2018-12-30T11:18:29-05:00","start":"2018-12-30T10:03:29-05:00"}}],"meta":{"lastUpdated":"2019-04-09T12:00:35.206076+00:00","versionId":"MTU1NDgxMTIzNTIwNjA3NjAwMA"},"organization":{"identifier":{"value":"26f36041-e05b-4ed4-9b86-85f403bf1d18"}},"patient":{"reference":"Patient/00bce077-b35e-456a-aca4-4fd257f3319f"},"payment":{"amount":{"code":"USD","system":"urn:iso:std:iso:4217","value":413.32}},"provider":{"identifier":{"value":"48d6ffb3-0aa9-4e21-b3f7-808de9f3fb0d"}},"referral":{"reference":"#1"},"resourceType":"ExplanationOfBenefit","status":"active","totalCost":{"code":"USD","system":"urn:iso:std:iso:4217","value":641.65},"type":{"coding":[{"code":"71","display":"Local carrier non-durable medical equipment, prosthetics, orthotics, and supplies (DMEPOS) claim","system":"https://bluebutton.cms.gov/resources/variables/nch_clm_type_cd"},{"code":"CARRIER","display":"EOB Type","system":"https://bluebutton.cms.gov/resources/codesystem/eob-type"},{"code":"professional","display":"Claim Type","system":"http://hl7.org/fhir/ex-claimtype"},{"code":"O","display":"Part B physician/supplier claim record (processed by local carriers; can include DMEPOS services)","system":"https://bluebutton.cms.gov/resources/variables/nch_near_line_rec_ident_cd"}]}}},{"resource":{"billablePeriod":{"end":"2015-06-30T11:18:29-04:00","extension":[{"url":"https://bluebutton.cms.gov/assets/ig/StructureDefinition-bluebutton-outpatient-claim-query-cd-extension","valueCoding":{"code":"3","display":"Final Bill","system":"https://bluebutton.cms.gov/assets/ig/ValueSet-claim-query-cd"}}],"start":"2014-06-30T11:18:29-04:00"},"careTeam":[{"provider":{"identifier":{"system":"http://hl7.org/fhir/sid/us-npi","value":"99999999"}},"role":{"coding":[{"code":"primary","display":"Primary Care Practitioner","system":"http://hl7.org/fhir/claimcareteamrole"}]},"sequence":1}],"contained":[{"id":"coverage","resourceType":"Coverage","type":{"text":"private"}}],"extension":[{"url":"https://bluebutton.cms.gov/assets/ig/StructureDefinition-bluebutton-outpatient-nch-profnl-cmpnt-chrg-amt-extension","valueMoney":{"code":"USD","system":"urn:iso:std:iso:4217","value":0}},{"url":"https://bluebutton.cms.gov/assets/ig/StructureDefinition-bluebutton-outpatient-nch-bene-ptb-ddctbl-amt-extension","valueMoney":{"code":"USD","system":"urn:iso:std:iso:4217","value":0}},{"url":"https://bluebutton.cms.gov/assets/ig/StructureDefinition-bluebutton-outpatient-nch-bene-ptb-coinsrnc-amt-extension","valueMoney":{"code":"USD","system":"urn:iso:std:iso:4217","value":0}},{"url":"https://bluebutton.cms.gov/assets/ig/StructureDefinition-bluebutton-outpatient-clm-op-prvdr-pmt-amt-extension","valueMoney":{"code":"USD","system":"urn:iso:std:iso:4217","value":0}},{"url":"https://bluebutton.cms.gov/assets/ig/StructureDefinition-bluebutton-outpatient-clm-op-bene-pmt-amt-extension","valueMoney":{"code":"USD","system":"urn:iso:std:iso:4217","value":0}},{"url":"https://bluebutton.cms.gov/assets/ig/StructureDefinition-bluebutton-outpatient-nch-bene-blood-ddctbl-lblty-am-extension","valueMoney":{"code":"USD","system":"urn:iso:std:iso:4217","value":0}},{"url":"https://bluebutton.cms.gov/assets/ig/StructureDefinition-bluebutton-outpatient-clm-mdcr-non-pmt-rsn-cd-extension","valueCoding":{"code":"N","display":"All other reasons for non-payment","system":"https://bluebutton.cms.gov/assets/ig/CodeSystem-clm-mdcr-non-pmt-rsn-cd"}},{"url":"https://bluebutton.cms.gov/assets/ig/StructureDefinition-bluebutton-outpatient-prpayamt-extension","valueMoney":{"code":"USD","system":"urn:iso:std:iso:4217","value":0}},{"url":"https://bluebutton.cms.gov/assets/ig/StructureDefinition-bluebutton-outpatient-fi-num-extension","valueIdentifier":{"system":"https://bluebutton.cms.gov/assets/ig/CodeSystem-fi-num","value":"002000"}}],"id":"c2b37c04-faf7-4880-8e97-639e1a127f82","identifier":[{"system":"https://bluebutton.cms.gov/resources/variables/clm_id","value":"c43956b2-456e-4a5e-938e-d9db79a15129"},{"system":"https://bluebutton.cms.gov/resources/identifier/claim-group","value":"99999999999"}],"insurance":{"coverage":{"reference":"#coverage"}},"item":[{"extension":[{"url":"https://bluebutton.cms.gov/assets/ig/StructureDefinition-bluebutton-outpatient-rev-cntr-ndc-qty-extension","valueQuantity":{"value":0}}],"locationCodeableConcept":{"coding":[{"code":"21","display":"Inpatient Hospital","system":"https://bluebutton.cms.gov/resources/variables/line_place_of_srvc_cd"}]},"sequence":1}],"meta":{"lastUpdated":"2019-04-09T10:50:50.458564+00:00","profile":["https://bluebutton.cms.gov/assets/ig/StructureDefinition-bluebutton-outpatient-claim"],"versionId":"MTU1NDgwNzA1MDQ1ODU2NDAwMA"},"organization":{"identifier":{"value":"26f36041-e05b-4ed4-9b86-85f403bf1d18"}},"patient":{"reference":"Patient/00bce077-b35e-456a-aca4-4fd257f3319f"},"payment":{"amount":{"code":"USD","system":"urn:iso:std:iso:4217","value":0}},"provider":{"identifier":{"value":"48d6ffb3-0aa9-4e21-b3f7-808de9f3fb0d"}},"resourceType":"ExplanationOfBenefit","status":"active","totalCost":{"code":"USD","system":"urn:iso:std:iso:4217","value":125},"type":{"coding":[{"code":"71","display":"Local carrier non-durable medical equipment, prosthetics, orthotics, and supplies (DMEPOS) claim","system":"https://bluebutton.cms.gov/resources/variables/nch_clm_type_cd"},{"code":"CARRIER","display":"EOB Type","system":"https://bluebutton.cms.gov/resources/codesystem/eob-type"},{"code":"professional","display":"Claim Type","system":"http://hl7.org/fhir/ex-claimtype"},{"code":"O","display":"Part B physician/supplier claim record (processed by local carriers; can include DMEPOS services)","system":"https://bluebutton.cms.gov/resources/variables/nch_near_line_rec_ident_cd"}]}}},{"resource":{"billablePeriod":{"end":"2010-08-30T11:33:29-04:00","start":"2009-08-30T11:33:29-04:00"},"careTeam":[{"provider":{"identifier":{"system":"http://hl7.org/fhir/sid/us-npi","value":"99999999"}},"role":{"coding":[{"code":"primary","display":"Primary Care Practitioner","system":"http://hl7.org/fhir/claimcareteamrole"}]},"sequence":1}],"claim":{"reference":"Claim/f0765c4a-bc6b-471f-b8f4-9ed6760fae54"},"contained":[{"id":"1","intent":"order","recipient":[{"identifier":{"system":"http://hl7.org/fhir/sid/us-npi","value":"99999999"}}],"requester":{"agent":{"identifier":{"system":"http://hl7.org/fhir/sid/us-npi","value":"99999999"}}},"resourceType":"ReferralRequest","status":"completed","subject":{"reference":"Patient/00bce077-b35e-456a-aca4-4fd257f3319f"}},{"id":"coverage","resourceType":"Coverage","type":{"text":"private"}}],"created":"2009-08-30T11:33:29-04:00","id":"ceffc3ff-a766-4ba9-adcc-4706bb79c240","identifier":[{"system":"https://bluebutton.cms.gov/resources/variables/clm_id","value":"f0765c4a-bc6b-471f-b8f4-9ed6760fae54"},{"system":"https://bluebutton.cms.gov/resources/identifier/claim-group","value":"99999999999"}],"insurance":{"coverage":{"reference":"#coverage"}},"item":[{"category":{"coding":[{"code":"1","display":"Medical care","system":"https://bluebutton.cms.gov/resources/variables/line_cms_type_srvc_cd"}]},"encounter":[{"reference":"Encounter/e09690a4-08a6-4088-b3e0-01dfc04919f7"}],"locationCodeableConcept":{"coding":[{"code":"21","display":"Inpatient Hospital","system":"https://bluebutton.cms.gov/resources/variables/line_place_of_srvc_cd"}]},"sequence":1,"servicedPeriod":{"end":"2009-08-30T11:33:29-04:00","start":"2009-08-30T11:03:29-04:00"}},{"adjudication":[{"amount":{"code":"USD","system":"urn:iso:std:iso:4217","value":28.104000000000003},"category":{"coding":[{"code":"https://bluebutton.cms.gov/resources/variables/line_coinsrnc_amt","display":"Line Beneficiary Coinsurance Amount","system":"https://bluebutton.cms.gov/resources/codesystem/adjudication"}]}},{"amount":{"code":"USD","system":"urn:iso:std:iso:4217","value":112.41600000000001},"category":{"coding":[{"code":"https://bluebutton.cms.gov/resources/variables/line_prvdr_pmt_amt","display":"Line Provider Payment Amount","system":"https://bluebutton.cms.gov/resources/codesystem/adjudication"}]}},{"amount":{"code":"USD","system":"urn:iso:std:iso:4217","value":140.52},"category":{"coding":[{"code":"https://bluebutton.cms.gov/resources/variables/line_sbmtd_chrg_amt","display":"Line Submitted Charge Amount","system":"https://bluebutton.cms.gov/resources/codesystem/adjudication"}]}},{"amount":{"code":"USD","system":"urn:iso:std:iso:4217","value":140.52},"category":{"coding":[{"code":"https://bluebutton.cms.gov/resources/variables/line_alowd_chrg_amt","display":"Line Allowed Charge Amount","system":"https://bluebutton.cms.gov/resources/codesystem/adjudication"}]}},{"amount":{"code":"USD","system":"urn:iso:std:iso:4217","value":0},"category":{"coding":[{"code":"https://bluebutton.cms.gov/resources/variables/line_bene_ptb_ddctbl_amt","display":"Line Beneficiary Part B Deductible Amount","system":"https://bluebutton.cms.gov/resources/codesystem/adjudication"}]}},{"category":{"coding":[{"code":"https://bluebutton.cms.gov/resources/variables/line_prcsg_ind_cd","display":"Line Processing Indicator Code","system":"https://bluebutton.cms.gov/resources/codesystem/adjudication"}]},"reason":{"coding":[{"code":"A","display":"Allowed","system":"https://bluebutton.cms.gov/resources/variables/line_prcsg_ind_cd"}]}}],"category":{"coding":[{"code":"1","display":"Medical care","system":"https://bluebutton.cms.gov/resources/variables/line_cms_type_srvc_cd"}]},"informationLinkId":[1],"locationCodeableConcept":{"coding":[{"code":"21","display":"Inpatient Hospital","system":"https://bluebutton.cms.gov/resources/variables/line_place_of_srvc_cd"}]},"net":{"code":"USD","system":"urn:iso:std:iso:4217","value":140.52},"sequence":2,"servicedPeriod":{"end":"2009-08-30T11:33:29-04:00","start":"2009-08-30T11:03:29-04:00"}},{"adjudication":[{"amount":{"code":"USD","system":"urn:iso:std:iso:4217","value":154.918},"category":{"coding":[{"code":"https://bluebutton.cms.gov/resources/variables/line_coinsrnc_amt","display":"Line Beneficiary Coinsurance Amount","system":"https://bluebutton.cms.gov/resources/codesystem/adjudication"}]}},{"amount":{"code":"USD","system":"urn:iso:std:iso:4217","value":619.672},"category":{"coding":[{"code":"https://bluebutton.cms.gov/resources/variables/line_prvdr_pmt_amt","display":"Line Provider Payment Amount","system":"https://bluebutton.cms.gov/resources/codesystem/adjudication"}]}},{"amount":{"code":"USD","system":"urn:iso:std:iso:4217","value":774.59},"category":{"coding":[{"code":"https://bluebutton.cms.gov/resources/variables/line_sbmtd_chrg_amt","display":"Line Submitted Charge Amount","system":"https://bluebutton.cms.gov/resources/codesystem/adjudication"}]}},{"amount":{"code":"USD","system":"urn:iso:std:iso:4217","value":774.59},"category":{"coding":[{"code":"https://bluebutton.cms.gov/resources/variables/line_alowd_chrg_amt","display":"Line Allowed Charge Amount","system":"https://bluebutton.cms.gov/resources/codesystem/adjudication"}]}},{"amount":{"code":"USD","system":"urn:iso:std:iso:4217","value":0},"category":{"coding":[{"code":"https://bluebutton.cms.gov/resources/variables/line_bene_ptb_ddctbl_amt","display":"Line Beneficiary Part B Deductible Amount","system":"https://bluebutton.cms.gov/resources/codesystem/adjudication"}]}},{"category":{"coding":[{"code":"https://bluebutton.cms.gov/resources/variables/line_prcsg_ind_cd","display":"Line Processing Indicator Code","system":"https://bluebutton.cms.gov/resources/codesystem/adjudication"}]},"reason":{"coding":[{"code":"A","display":"Allowed","system":"https://bluebutton.cms.gov/resources/variables/line_prcsg_ind_cd"}]}}],"category":{"coding":[{"code":"1","display":"Medical care","system":"https://bluebutton.cms.gov/resources/variables/line_cms_type_srvc_cd"}]},"locationCodeableConcept":{"coding":[{"code":"21","display":"Inpatient Hospital","system":"https://bluebutton.cms.gov/resources/variables/line_place_of_srvc_cd"}]},"net":{"code":"USD","system":"urn:iso:std:iso:4217","value":774.59},"sequence":3,"service":{"coding":[{"code":"428191000124101","system":"http://snomed.info/sct","version":"v1"}]},"servicedPeriod":{"end":"2009-08-30T11:33:29-04:00","start":"2009-08-30T11:03:29-04:00"}}],"meta":{"lastUpdated":"2019-04-09T10:50:50.465613+00:00","versionId":"MTU1NDgwNzA1MDQ2NTYxMzAwMA"},"organization":{"identifier":{"value":"26f36041-e05b-4ed4-9b86-85f403bf1d18"}},"patient":{"reference":"Patient/00bce077-b35e-456a-aca4-4fd257f3319f"},"payment":{"amount":{"code":"USD","system":"urn:iso:std:iso:4217","value":732.0880000000001}},"provider":{"identifier":{"value":"48d6ffb3-0aa9-4e21-b3f7-808de9f3fb0d"}},"referral":{"reference":"#1"},"resourceType":"ExplanationOfBenefit","status":"active","totalCost":{"code":"USD","system":"urn:iso:std:iso:4217","value":1040.11},"type":{"coding":[{"code":"71","display":"Local carrier non-durable medical equipment, prosthetics, orthotics, and supplies (DMEPOS) claim","system":"https://bluebutton.cms.gov/resources/variables/nch_clm_type_cd"},{"code":"CARRIER","display":"EOB Type","system":"https://bluebutton.cms.gov/resources/codesystem/eob-type"},{"code":"professional","display":"Claim Type","system":"http://hl7.org/fhir/ex-claimtype"},{"code":"O","display":"Part B physician/supplier claim record (processed by local carriers; can include DMEPOS services)","system":"https://bluebutton.cms.gov/resources/variables/nch_near_line_rec_ident_cd"}]}}},{"resource":{"billablePeriod":{"end":"2019-12-16T10:48:29-05:00","extension":[{"url":"https://bluebutton.cms.gov/assets/ig/StructureDefinition-bluebutton-inpatient-claim-query-cd-extension","valueCoding":{"code":"3","display":"Final Bill","system":"https://bluebutton.cms.gov/assets/ig/ValueSet-claim-query-cd"}}],"start":"2018-12-16T10:48:29-05:00"},"careTeam":[{"provider":{"identifier":{"system":"http://hl7.org/fhir/sid/us-npi","value":"99999999"}},"role":{"coding":[{"code":"primary","display":"Primary Care Practitioner","system":"http://hl7.org/fhir/claimcareteamrole"}]},"sequence":1}],"contained":[{"id":"coverage","resourceType":"Coverage","type":{"text":"medicaid"}}],"extension":[{"url":"https://bluebutton.cms.gov/assets/ig/StructureDefinition-bluebutton-inpatient-ime-op-clm-val-amt-extension","valueMoney":{"code":"USD","system":"urn:iso:std:iso:4217","value":400}},{"url":"https://bluebutton.cms.gov/assets/ig/StructureDefinition-bluebutton-inpatient-dsh-op-clm-val-amt-extension","valueMoney":{"code":"USD","system":"urn:iso:std:iso:4217","value":0}},{"url":"https://bluebutton.cms.gov/assets/ig/StructureDefinition-bluebutton-inpatient-clm-pass-thru-per-diem-amt-extension","valueMoney":{"code":"USD","system":"urn:iso:std:iso:4217","value":0}},{"url":"https://bluebutton.cms.gov/assets/ig/StructureDefinition-bluebutton-inpatient-nch-profnl-cmpnt-chrg-amt-extension","valueMoney":{"code":"USD","system":"urn:iso:std:iso:4217","value":0}},{"url":"https://bluebutton.cms.gov/assets/ig/StructureDefinition-bluebutton-inpatient-clm-tot-pps-cptl-amt-extension","valueMoney":{"code":"USD","system":"urn:iso:std:iso:4217","value":0}},{"url":"https://bluebutton.cms.gov/assets/ig/StructureDefinition-bluebutton-inpatient-nch-bene-ip-ddctbl-amt-extension","valueMoney":{"code":"USD","system":"urn:iso:std:iso:4217","value":0}},{"url":"https://bluebutton.cms.gov/assets/ig/StructureDefinition-bluebutton-inpatient-nch-bene-pta-coinsrnc-lblty-amt-extension","valueMoney":{"code":"USD","system":"urn:iso:std:iso:4217","value":0}},{"url":"https://bluebutton.cms.gov/assets/ig/StructureDefinition-bluebutton-inpatient-nch-ip-ncvrd-chrg-amt-extension","valueMoney":{"code":"USD","system":"urn:iso:std:iso:4217","value":0}},{"url":"https://bluebutton.cms.gov/assets/ig/StructureDefinition-bluebutton-inpatient-nch-ip-tot-ddctn-amt-extension","valueMoney":{"code":"USD","system":"urn:iso:std:iso:4217","value":0}},{"url":"https://bluebutton.cms.gov/assets/ig/StructureDefinition-bluebutton-inpatient-clm-pps-cptl-dsprprtnt-shr-amt-extension","valueMoney":{"code":"USD","system":"urn:iso:std:iso:4217","value":0}},{"url":"https://bluebutton.cms.gov/assets/ig/StructureDefinition-bluebutton-inpatient-clm-pps-cptl-excptn-amt-extension","valueMoney":{"code":"USD","system":"urn:iso:std:iso:4217","value":0}},{"url":"https://bluebutton.cms.gov/assets/ig/StructureDefinition-bluebutton-inpatient-clm-pps-cptl-fsp-amt-extension","valueMoney":{"code":"USD","system":"urn:iso:std:iso:4217","value":0}},{"url":"https://bluebutton.cms.gov/assets/ig/StructureDefinition-bluebutton-inpatient-clm-pps-cptl-ime-amt-extension","valueMoney":{"code":"USD","system":"urn:iso:std:iso:4217","value":400}},{"url":"https://bluebutton.cms.gov/assets/ig/StructureDefinition-bluebutton-inpatient-clm-pps-cptl-outlier-amt-extension","valueMoney":{"code":"USD","system":"urn:iso:std:iso:4217","value":0}},{"url":"https://bluebutton.cms.gov/assets/ig/StructureDefinition-bluebutton-inpatient-clm-pps-old-cptl-hld-hrmls-amt-extension","valueMoney":{"code":"USD","system":"urn:iso:std:iso:4217","value":0}},{"url":"https://bluebutton.cms.gov/assets/ig/StructureDefinition-bluebutton-inpatient-nch-drg-outlier-aprvd-pmt-amt-extension","valueMoney":{"code":"USD","system":"urn:iso:std:iso:4217","value":0}},{"url":"https://bluebutton.cms.gov/assets/ig/StructureDefinition-bluebutton-inpatient-nch-bene-blood-ddctbl-lblty-am-extension","valueMoney":{"code":"USD","system":"urn:iso:std:iso:4217","value":0}},{"url":"https://bluebutton.cms.gov/assets/ig/StructureDefinition-bluebutton-inpatient-clm-mdcr-non-pmt-rsn-cd-extension","valueCoding":{"code":"N","display":"All other reasons for non-payment","system":"https://bluebutton.cms.gov/assets/ig/CodeSystem-clm-mdcr-non-pmt-rsn-cd"}},{"url":"https://bluebutton.cms.gov/assets/ig/StructureDefinition-bluebutton-inpatient-prpayamt-extension","valueMoney":{"code":"USD","system":"urn:iso:std:iso:4217","value":0}},{"url":"https://bluebutton.cms.gov/assets/ig/StructureDefinition-bluebutton-inpatient-fi-num-extension","valueIdentifier":{"system":"https://bluebutton.cms.gov/assets/ig/CodeSystem-fi-num","value":"002000"}}],"id":"d90288ea-b7c3-4cb1-b882-9f5a8f28c38b","identifier":[{"system":"https://bluebutton.cms.gov/resources/variables/clm_id","value":"e42426f8-2fb3-4bf3-b4ed-6881db2f7c43"},{"system":"https://bluebutton.cms.gov/resources/identifier/claim-group","value":"99999999999"}],"insurance":{"coverage":{"reference":"#coverage"}},"item":[{"extension":[{"url":"https://bluebutton.cms.gov/assets/ig/StructureDefinition-bluebutton-inpatient-rev-cntr-ndc-qty-extension","valueQuantity":{"value":0}}],"locationCodeableConcept":{"coding":[{"code":"21","display":"Inpatient Hospital","system":"https://bluebutton.cms.gov/resources/variables/line_place_of_srvc_cd"}]},"sequence":1},{"adjudication":[{"amount":{"code":"USD","system":"urn:iso:std:iso:4217","value":1457.79},"category":{"coding":[{"code":"https://bluebutton.cms.gov/resources/variables/line_coinsrnc_amt","display":"Line Beneficiary Coinsurance Amount","system":"https://bluebutton.cms.gov/resources/codesystem/adjudication"}]}},{"amount":{"code":"USD","system":"urn:iso:std:iso:4217","value":5831.16},"category":{"coding":[{"code":"https://bluebutton.cms.gov/resources/variables/line_prvdr_pmt_amt","display":"Line Provider Payment Amount","system":"https://bluebutton.cms.gov/resources/codesystem/adjudication"}]}},{"amount":{"code":"USD","system":"urn:iso:std:iso:4217","value":7288.95},"category":{"coding":[{"code":"https://bluebutton.cms.gov/resources/variables/line_sbmtd_chrg_amt","display":"Line Submitted Charge Amount","system":"https://bluebutton.cms.gov/resources/codesystem/adjudication"}]}},{"amount":{"code":"USD","system":"urn:iso:std:iso:4217","value":7288.95},"category":{"coding":[{"code":"https://bluebutton.cms.gov/resources/variables/line_alowd_chrg_amt","display":"Line Allowed Charge Amount","system":"https://bluebutton.cms.gov/resources/codesystem/adjudication"}]}},{"amount":{"code":"USD","system":"urn:iso:std:iso:4217","value":0},"category":{"coding":[{"code":"https://bluebutton.cms.gov/resources/variables/line_bene_ptb_ddctbl_amt","display":"Line Beneficiary Part B Deductible Amount","system":"https://bluebutton.cms.gov/resources/codesystem/adjudication"}]}},{"category":{"coding":[{"code":"https://bluebutton.cms.gov/resources/variables/line_prcsg_ind_cd","display":"Line Processing Indicator Code","system":"https://bluebutton.cms.gov/resources/codesystem/adjudication"}]}}],"extension":[{"url":"https://bluebutton.cms.gov/assets/ig/StructureDefinition-bluebutton-inpatient-rev-cntr-ndc-qty-extension","valueQuantity":{"value":0}}],"locationCodeableConcept":{"coding":[{"code":"21","display":"Inpatient Hospital","system":"https://bluebutton.cms.gov/resources/variables/line_place_of_srvc_cd"}]},"sequence":2,"service":{"coding":[{"code":"274804006","system":"http://snomed.info/sct","version":"v1"}]}},{"adjudication":[{"amount":{"code":"USD","system":"urn:iso:std:iso:4217","value":1463.094},"category":{"coding":[{"code":"https://bluebutton.cms.gov/resources/variables/line_coinsrnc_amt","display":"Line Beneficiary Coinsurance Amount","system":"https://bluebutton.cms.gov/resources/codesystem/adjudication"}]}},{"amount":{"code":"USD","system":"urn:iso:std:iso:4217","value":5852.376},"category":{"coding":[{"code":"https://bluebutton.cms.gov/resources/variables/line_prvdr_pmt_amt","display":"Line Provider Payment Amount","system":"https://bluebutton.cms.gov/resources/codesystem/adjudication"}]}},{"amount":{"code":"USD","system":"urn:iso:std:iso:4217","value":7315.47},"category":{"coding":[{"code":"https://bluebutton.cms.gov/resources/variables/line_sbmtd_chrg_amt","display":"Line Submitted Charge Amount","system":"https://bluebutton.cms.gov/resources/codesystem/adjudication"}]}},{"amount":{"code":"USD","system":"urn:iso:std:iso:4217","value":7315.47},"category":{"coding":[{"code":"https://bluebutton.cms.gov/resources/variables/line_alowd_chrg_amt","display":"Line Allowed Charge Amount","system":"https://bluebutton.cms.gov/resources/codesystem/adjudication"}]}},{"amount":{"code":"USD","system":"urn:iso:std:iso:4217","value":0},"category":{"coding":[{"code":"https://bluebutton.cms.gov/resources/variables/line_bene_ptb_ddctbl_amt","display":"Line Beneficiary Part B Deductible Amount","system":"https://bluebutton.cms.gov/resources/codesystem/adjudication"}]}},{"category":{"coding":[{"code":"https://bluebutton.cms.gov/resources/variables/line_prcsg_ind_cd","display":"Line Processing Indicator Code","system":"https://bluebutton.cms.gov/resources/codesystem/adjudication"}]}}],"extension":[{"url":"https://bluebutton.cms.gov/assets/ig/StructureDefinition-bluebutton-inpatient-rev-cntr-ndc-qty-extension","valueQuantity":{"value":0}}],"locationCodeableConcept":{"coding":[{"code":"21","display":"Inpatient Hospital","system":"https://bluebutton.cms.gov/resources/variables/line_place_of_srvc_cd"}]},"sequence":3,"service":{"coding":[{"code":"225158009","system":"http://snomed.info/sct","version":"v1"}]}}],"meta":{"lastUpdated":"2019-04-09T12:00:35.189577+00:00","profile":["https://bluebutton.cms.gov/assets/ig/StructureDefinition-bluebutton-inpatient-claim"],"versionId":"MTU1NDgxMTIzNTE4OTU3NzAwMA"},"organization":{"identifier":{"value":"26f36041-e05b-4ed4-9b86-85f403bf1d18"}},"patient":{"reference":"Patient/00bce077-b35e-456a-aca4-4fd257f3319f"},"payment":{"amount":{"code":"USD","system":"urn:iso:std:iso:4217","value":11683.536}},"provider":{"identifier":{"value":"48d6ffb3-0aa9-4e21-b3f7-808de9f3fb0d"}},"resourceType":"ExplanationOfBenefit","status":"active","totalCost":{"code":"USD","system":"urn:iso:std:iso:4217","value":14729.42},"type":{"coding":[{"code":"71","display":"Local carrier non-durable medical equipment, prosthetics, orthotics, and supplies (DMEPOS) claim","system":"https://bluebutton.cms.gov/resources/variables/nch_clm_type_cd"},{"code":"CARRIER","display":"EOB Type","system":"https://bluebutton.cms.gov/resources/codesystem/eob-type"},{"code":"professional","display":"Claim Type","system":"http://hl7.org/fhir/ex-claimtype"},{"code":"O","display":"Part B physician/supplier claim record (processed by local carriers; can include DMEPOS services)","system":"https://bluebutton.cms.gov/resources/variables/nch_near_line_rec_ident_cd"}]}}},{"resource":{"billablePeriod":{"end":"2019-09-02T11:48:29-04:00","extension":[{"url":"https://bluebutton.cms.gov/assets/ig/StructureDefinition-bluebutton-inpatient-claim-query-cd-extension","valueCoding":{"code":"3","display":"Final Bill","system":"https://bluebutton.cms.gov/assets/ig/ValueSet-claim-query-cd"}}],"start":"2018-09-02T11:48:29-04:00"},"careTeam":[{"provider":{"identifier":{"system":"http://hl7.org/fhir/sid/us-npi","value":"99999999"}},"role":{"coding":[{"code":"primary","display":"Primary Care Practitioner","system":"http://hl7.org/fhir/claimcareteamrole"}]},"sequence":1}],"contained":[{"id":"coverage","resourceType":"Coverage","type":{"text":"medicaid"}}],"extension":[{"url":"https://bluebutton.cms.gov/assets/ig/StructureDefinition-bluebutton-inpatient-ime-op-clm-val-amt-extension","valueMoney":{"code":"USD","system":"urn:iso:std:iso:4217","value":400}},{"url":"https://bluebutton.cms.gov/assets/ig/StructureDefinition-bluebutton-inpatient-dsh-op-clm-val-amt-extension","valueMoney":{"code":"USD","system":"urn:iso:std:iso:4217","value":0}},{"url":"https://bluebutton.cms.gov/assets/ig/StructureDefinition-bluebutton-inpatient-clm-pass-thru-per-diem-amt-extension","valueMoney":{"code":"USD","system":"urn:iso:std:iso:4217","value":0}},{"url":"https://bluebutton.cms.gov/assets/ig/StructureDefinition-bluebutton-inpatient-nch-profnl-cmpnt-chrg-amt-extension","valueMoney":{"code":"USD","system":"urn:iso:std:iso:4217","value":0}},{"url":"https://bluebutton.cms.gov/assets/ig/StructureDefinition-bluebutton-inpatient-clm-tot-pps-cptl-amt-extension","valueMoney":{"code":"USD","system":"urn:iso:std:iso:4217","value":0}},{"url":"https://bluebutton.cms.gov/assets/ig/StructureDefinition-bluebutton-inpatient-nch-bene-ip-ddctbl-amt-extension","valueMoney":{"code":"USD","system":"urn:iso:std:iso:4217","value":0}},{"url":"https://bluebutton.cms.gov/assets/ig/StructureDefinition-bluebutton-inpatient-nch-bene-pta-coinsrnc-lblty-amt-extension","valueMoney":{"code":"USD","system":"urn:iso:std:iso:4217","value":0}},{"url":"https://bluebutton.cms.gov/assets/ig/StructureDefinition-bluebutton-inpatient-nch-ip-ncvrd-chrg-amt-extension","valueMoney":{"code":"USD","system":"urn:iso:std:iso:4217","value":0}},{"url":"https://bluebutton.cms.gov/assets/ig/StructureDefinition-bluebutton-inpatient-nch-ip-tot-ddctn-amt-extension","valueMoney":{"code":"USD","system":"urn:iso:std:iso:4217","value":0}},{"url":"https://bluebutton.cms.gov/assets/ig/StructureDefinition-bluebutton-inpatient-clm-pps-cptl-dsprprtnt-shr-amt-extension","valueMoney":{"code":"USD","system":"urn:iso:std:iso:4217","value":0}},{"url":"https://bluebutton.cms.gov/assets/ig/StructureDefinition-bluebutton-inpatient-clm-pps-cptl-excptn-amt-extension","valueMoney":{"code":"USD","system":"urn:iso:std:iso:4217","value":0}},{"url":"https://bluebutton.cms.gov/assets/ig/StructureDefinition-bluebutton-inpatient-clm-pps-cptl-fsp-amt-extension","valueMoney":{"code":"USD","system":"urn:iso:std:iso:4217","value":0}},{"url":"https://bluebutton.cms.gov/assets/ig/StructureDefinition-bluebutton-inpatient-clm-pps-cptl-ime-amt-extension","valueMoney":{"code":"USD","system":"urn:iso:std:iso:4217","value":400}},{"url":"https://bluebutton.cms.gov/assets/ig/StructureDefinition-bluebutton-inpatient-clm-pps-cptl-outlier-amt-extension","valueMoney":{"code":"USD","system":"urn:iso:std:iso:4217","value":0}},{"url":"https://bluebutton.cms.gov/assets/ig/StructureDefinition-bluebutton-inpatient-clm-pps-old-cptl-hld-hrmls-amt-extension","valueMoney":{"code":"USD","system":"urn:iso:std:iso:4217","value":0}},{"url":"https://bluebutton.cms.gov/assets/ig/StructureDefinition-bluebutton-inpatient-nch-drg-outlier-aprvd-pmt-amt-extension","valueMoney":{"code":"USD","system":"urn:iso:std:iso:4217","value":0}},{"url":"https://bluebutton.cms.gov/assets/ig/StructureDefinition-bluebutton-inpatient-nch-bene-blood-ddctbl-lblty-am-extension","valueMoney":{"code":"USD","system":"urn:iso:std:iso:4217","value":0}},{"url":"https://bluebutton.cms.gov/assets/ig/StructureDefinition-bluebutton-inpatient-clm-mdcr-non-pmt-rsn-cd-extension","valueCoding":{"code":"N","display":"All other reasons for non-payment","system":"https://bluebutton.cms.gov/assets/ig/CodeSystem-clm-mdcr-non-pmt-rsn-cd"}},{"url":"https://bluebutton.cms.gov/assets/ig/StructureDefinition-bluebutton-inpatient-prpayamt-extension","valueMoney":{"code":"USD","system":"urn:iso:std:iso:4217","value":0}},{"url":"https://bluebutton.cms.gov/assets/ig/StructureDefinition-bluebutton-inpatient-fi-num-extension","valueIdentifier":{"system":"https://bluebutton.cms.gov/assets/ig/CodeSystem-fi-num","value":"002000"}}],"id":"ee5286e6-f7f2-41ca-a90d-9f83996d2942","identifier":[{"system":"https://bluebutton.cms.gov/resources/variables/clm_id","value":"3be8185c-f1b8-4a4e-998b-cd2769b3676d"},{"system":"https://bluebutton.cms.gov/resources/identifier/claim-group","value":"99999999999"}],"insurance":{"coverage":{"reference":"#coverage"}},"item":[{"extension":[{"url":"https://bluebutton.cms.gov/assets/ig/StructureDefinition-bluebutton-inpatient-rev-cntr-ndc-qty-extension","valueQuantity":{"value":0}}],"locationCodeableConcept":{"coding":[{"code":"21","display":"Inpatient Hospital","system":"https://bluebutton.cms.gov/resources/variables/line_place_of_srvc_cd"}]},"sequence":1},{"adjudication":[{"amount":{"code":"USD","system":"urn:iso:std:iso:4217","value":1197.832},"category":{"coding":[{"code":"https://bluebutton.cms.gov/resources/variables/line_coinsrnc_amt","display":"Line Beneficiary Coinsurance Amount","system":"https://bluebutton.cms.gov/resources/codesystem/adjudication"}]}},{"amount":{"code":"USD","system":"urn:iso:std:iso:4217","value":4791.328},"category":{"coding":[{"code":"https://bluebutton.cms.gov/resources/variables/line_prvdr_pmt_amt","display":"Line Provider Payment Amount","system":"https://bluebutton.cms.gov/resources/codesystem/adjudication"}]}},{"amount":{"code":"USD","system":"urn:iso:std:iso:4217","value":5989.16},"category":{"coding":[{"code":"https://bluebutton.cms.gov/resources/variables/line_sbmtd_chrg_amt","display":"Line Submitted Charge Amount","system":"https://bluebutton.cms.gov/resources/codesystem/adjudication"}]}},{"amount":{"code":"USD","system":"urn:iso:std:iso:4217","value":5989.16},"category":{"coding":[{"code":"https://bluebutton.cms.gov/resources/variables/line_alowd_chrg_amt","display":"Line Allowed Charge Amount","system":"https://bluebutton.cms.gov/resources/codesystem/adjudication"}]}},{"amount":{"code":"USD","system":"urn:iso:std:iso:4217","value":0},"category":{"coding":[{"code":"https://bluebutton.cms.gov/resources/variables/line_bene_ptb_ddctbl_amt","display":"Line Beneficiary Part B Deductible Amount","system":"https://bluebutton.cms.gov/resources/codesystem/adjudication"}]}},{"category":{"coding":[{"code":"https://bluebutton.cms.gov/resources/variables/line_prcsg_ind_cd","display":"Line Processing Indicator Code","system":"https://bluebutton.cms.gov/resources/codesystem/adjudication"}]}}],"extension":[{"url":"https://bluebutton.cms.gov/assets/ig/StructureDefinition-bluebutton-inpatient-rev-cntr-ndc-qty-extension","valueQuantity":{"value":0}}],"locationCodeableConcept":{"coding":[{"code":"21","display":"Inpatient Hospital","system":"https://bluebutton.cms.gov/resources/variables/line_place_of_srvc_cd"}]},"sequence":2,"service":{"coding":[{"code":"274804006","system":"http://snomed.info/sct","version":"v1"}]}},{"adjudication":[{"amount":{"code":"USD","system":"urn:iso:std:iso:4217","value":908.3200000000002},"category":{"coding":[{"code":"https://bluebutton.cms.gov/resources/variables/line_coinsrnc_amt","display":"Line Beneficiary Coinsurance Amount","system":"https://bluebutton.cms.gov/resources/codesystem/adjudication"}]}},{"amount":{"code":"USD","system":"urn:iso:std:iso:4217","value":3633.2800000000007},"category":{"coding":[{"code":"https://bluebutton.cms.gov/resources/variables/line_prvdr_pmt_amt","display":"Line Provider Payment Amount","system":"https://bluebutton.cms.gov/resources/codesystem/adjudication"}]}},{"amount":{"code":"USD","system":"urn:iso:std:iso:4217","value":4541.6},"category":{"coding":[{"code":"https://bluebutton.cms.gov/resources/variables/line_sbmtd_chrg_amt","display":"Line Submitted Charge Amount","system":"https://bluebutton.cms.gov/resources/codesystem/adjudication"}]}},{"amount":{"code":"USD","system":"urn:iso:std:iso:4217","value":4541.6},"category":{"coding":[{"code":"https://bluebutton.cms.gov/resources/variables/line_alowd_chrg_amt","display":"Line Allowed Charge Amount","system":"https://bluebutton.cms.gov/resources/codesystem/adjudication"}]}},{"amount":{"code":"USD","system":"urn:iso:std:iso:4217","value":0},"category":{"coding":[{"code":"https://bluebutton.cms.gov/resources/variables/line_bene_ptb_ddctbl_amt","display":"Line Beneficiary Part B Deductible Amount","system":"https://bluebutton.cms.gov/resources/codesystem/adjudication"}]}},{"category":{"coding":[{"code":"https://bluebutton.cms.gov/resources/variables/line_prcsg_ind_cd","display":"Line Processing Indicator Code","system":"https://bluebutton.cms.gov/resources/codesystem/adjudication"}]}}],"extension":[{"url":"https://bluebutton.cms.gov/assets/ig/StructureDefinition-bluebutton-inpatient-rev-cntr-ndc-qty-extension","valueQuantity":{"value":0}}],"locationCodeableConcept":{"coding":[{"code":"21","display":"Inpatient Hospital","system":"https://bluebutton.cms.gov/resources/variables/line_place_of_srvc_cd"}]},"sequence":3,"service":{"coding":[{"code":"225158009","system":"http://snomed.info/sct","version":"v1"}]}}],"meta":{"lastUpdated":"2019-04-09T12:00:35.181079+00:00","profile":["https://bluebutton.cms.gov/assets/ig/StructureDefinition-bluebutton-inpatient-claim"],"versionId":"MTU1NDgxMTIzNTE4MTA3OTAwMA"},"organization":{"identifier":{"value":"26f36041-e05b-4ed4-9b86-85f403bf1d18"}},"patient":{"reference":"Patient/00bce077-b35e-456a-aca4-4fd257f3319f"},"payment":{"amount":{"code":"USD","system":"urn:iso:std:iso:4217","value":8424.608}},"provider":{"identifier":{"value":"48d6ffb3-0aa9-4e21-b3f7-808de9f3fb0d"}},"resourceType":"ExplanationOfBenefit","status":"active","totalCost":{"code":"USD","system":"urn:iso:std:iso:4217","value":10655.76},"type":{"coding":[{"code":"71","display":"Local carrier non-durable medical equipment, prosthetics, orthotics, and supplies (DMEPOS) claim","system":"https://bluebutton.cms.gov/resources/variables/nch_clm_type_cd"},{"code":"CARRIER","display":"EOB Type","system":"https://bluebutton.cms.gov/resources/codesystem/eob-type"},{"code":"professional","display":"Claim Type","system":"http://hl7.org/fhir/ex-claimtype"},{"code":"O","display":"Part B physician/supplier claim record (processed by local carriers; can include DMEPOS services)","system":"https://bluebutton.cms.gov/resources/variables/nch_near_line_rec_ident_cd"}]}}},{"resource":{"billablePeriod":{"end":"2019-05-13T16:18:29-04:00","extension":[{"url":"https://bluebutton.cms.gov/assets/ig/StructureDefinition-bluebutton-inpatient-claim-query-cd-extension","valueCoding":{"code":"3","display":"Final Bill","system":"https://bluebutton.cms.gov/assets/ig/ValueSet-claim-query-cd"}}],"start":"2018-05-13T16:18:29-04:00"},"careTeam":[{"provider":{"identifier":{"system":"http://hl7.org/fhir/sid/us-npi","value":"99999999"}},"role":{"coding":[{"code":"primary","display":"Primary Care Practitioner","system":"http://hl7.org/fhir/claimcareteamrole"}]},"sequence":1}],"contained":[{"id":"coverage","resourceType":"Coverage","type":{"text":"medicaid"}}],"diagnosis":[{"diagnosisReference":{"reference":"Condition/cd345d10-44c5-4028-89de-5e29a038f0fc"},"extension":[{"url":"https://bluebutton.cms.gov/assets/ig/StructureDefinition-bluebutton-inpatient-clm-poa-ind-sw1-extension","valueCoding":{"code":"Y","display":"Diagnosis present at time of admission","system":"https://bluebutton.cms.gov/assets/ig/CodeSystem-clm-poa-ind-sw1"}}],"sequence":1,"type":[{"coding":[{"code":"principal","system":"https://bluebutton.cms.gov/resources/codesystem/diagnosis-type"}]}]}],"extension":[{"url":"https://bluebutton.cms.gov/assets/ig/StructureDefinition-bluebutton-inpatient-ime-op-clm-val-amt-extension","valueMoney":{"code":"USD","system":"urn:iso:std:iso:4217","value":400}},{"url":"https://bluebutton.cms.gov/assets/ig/StructureDefinition-bluebutton-inpatient-dsh-op-clm-val-amt-extension","valueMoney":{"code":"USD","system":"urn:iso:std:iso:4217","value":0}},{"url":"https://bluebutton.cms.gov/assets/ig/StructureDefinition-bluebutton-inpatient-clm-pass-thru-per-diem-amt-extension","valueMoney":{"code":"USD","system":"urn:iso:std:iso:4217","value":0}},{"url":"https://bluebutton.cms.gov/assets/ig/StructureDefinition-bluebutton-inpatient-nch-profnl-cmpnt-chrg-amt-extension","valueMoney":{"code":"USD","system":"urn:iso:std:iso:4217","value":0}},{"url":"https://bluebutton.cms.gov/assets/ig/StructureDefinition-bluebutton-inpatient-clm-tot-pps-cptl-amt-extension","valueMoney":{"code":"USD","system":"urn:iso:std:iso:4217","value":0}},{"url":"https://bluebutton.cms.gov/assets/ig/StructureDefinition-bluebutton-inpatient-nch-bene-ip-ddctbl-amt-extension","valueMoney":{"code":"USD","system":"urn:iso:std:iso:4217","value":0}},{"url":"https://bluebutton.cms.gov/assets/ig/StructureDefinition-bluebutton-inpatient-nch-bene-pta-coinsrnc-lblty-amt-extension","valueMoney":{"code":"USD","system":"urn:iso:std:iso:4217","value":0}},{"url":"https://bluebutton.cms.gov/assets/ig/StructureDefinition-bluebutton-inpatient-nch-ip-ncvrd-chrg-amt-extension","valueMoney":{"code":"USD","system":"urn:iso:std:iso:4217","value":0}},{"url":"https://bluebutton.cms.gov/assets/ig/StructureDefinition-bluebutton-inpatient-nch-ip-tot-ddctn-amt-extension","valueMoney":{"code":"USD","system":"urn:iso:std:iso:4217","value":0}},{"url":"https://bluebutton.cms.gov/assets/ig/StructureDefinition-bluebutton-inpatient-clm-pps-cptl-dsprprtnt-shr-amt-extension","valueMoney":{"code":"USD","system":"urn:iso:std:iso:4217","value":0}},{"url":"https://bluebutton.cms.gov/assets/ig/StructureDefinition-bluebutton-inpatient-clm-pps-cptl-excptn-amt-extension","valueMoney":{"code":"USD","system":"urn:iso:std:iso:4217","value":0}},{"url":"https://bluebutton.cms.gov/assets/ig/StructureDefinition-bluebutton-inpatient-clm-pps-cptl-fsp-amt-extension","valueMoney":{"code":"USD","system":"urn:iso:std:iso:4217","value":0}},{"url":"https://bluebutton.cms.gov/assets/ig/StructureDefinition-bluebutton-inpatient-clm-pps-cptl-ime-amt-extension","valueMoney":{"code":"USD","system":"urn:iso:std:iso:4217","value":400}},{"url":"https://bluebutton.cms.gov/assets/ig/StructureDefinition-bluebutton-inpatient-clm-pps-cptl-outlier-amt-extension","valueMoney":{"code":"USD","system":"urn:iso:std:iso:4217","value":0}},{"url":"https://bluebutton.cms.gov/assets/ig/StructureDefinition-bluebutton-inpatient-clm-pps-old-cptl-hld-hrmls-amt-extension","valueMoney":{"code":"USD","system":"urn:iso:std:iso:4217","value":0}},{"url":"https://bluebutton.cms.gov/assets/ig/StructureDefinition-bluebutton-inpatient-nch-drg-outlier-aprvd-pmt-amt-extension","valueMoney":{"code":"USD","system":"urn:iso:std:iso:4217","value":0}},{"url":"https://bluebutton.cms.gov/assets/ig/StructureDefinition-bluebutton-inpatient-nch-bene-blood-ddctbl-lblty-am-extension","valueMoney":{"code":"USD","system":"urn:iso:std:iso:4217","value":0}},{"url":"https://bluebutton.cms.gov/assets/ig/StructureDefinition-bluebutton-inpatient-clm-mdcr-non-pmt-rsn-cd-extension","valueCoding":{"code":"N","display":"All other reasons for non-payment","system":"https://bluebutton.cms.gov/assets/ig/CodeSystem-clm-mdcr-non-pmt-rsn-cd"}},{"url":"https://bluebutton.cms.gov/assets/ig/StructureDefinition-bluebutton-inpatient-prpayamt-extension","valueMoney":{"code":"USD","system":"urn:iso:std:iso:4217","value":0}},{"url":"https://bluebutton.cms.gov/assets/ig/StructureDefinition-bluebutton-inpatient-fi-num-extension","valueIdentifier":{"system":"https://bluebutton.cms.gov/assets/ig/CodeSystem-fi-num","value":"002000"}}],"id":"faff650c-6cf6-4757-8ac5-6f6402c6419e","identifier":[{"system":"https://bluebutton.cms.gov/resources/variables/clm_id","value":"696d1c92-ce28-410c-87cd-373d9309af57"},{"system":"https://bluebutton.cms.gov/resources/identifier/claim-group","value":"99999999999"}],"insurance":{"coverage":{"reference":"#coverage"}},"item":[{"extension":[{"url":"https://bluebutton.cms.gov/assets/ig/StructureDefinition-bluebutton-inpatient-rev-cntr-ndc-qty-extension","valueQuantity":{"value":0}}],"locationCodeableConcept":{"coding":[{"code":"21","display":"Inpatient Hospital","system":"https://bluebutton.cms.gov/resources/variables/line_place_of_srvc_cd"}]},"sequence":1},{"extension":[{"url":"https://bluebutton.cms.gov/assets/ig/StructureDefinition-bluebutton-inpatient-rev-cntr-ndc-qty-extension","valueQuantity":{"value":0}}],"locationCodeableConcept":{"coding":[{"code":"21","display":"Inpatient Hospital","system":"https://bluebutton.cms.gov/resources/variables/line_place_of_srvc_cd"}]},"sequence":2},{"adjudication":[{"amount":{"code":"USD","system":"urn:iso:std:iso:4217","value":1459.732},"category":{"coding":[{"code":"https://bluebutton.cms.gov/resources/variables/line_coinsrnc_amt","display":"Line Beneficiary Coinsurance Amount","system":"https://bluebutton.cms.gov/resources/codesystem/adjudication"}]}},{"amount":{"code":"USD","system":"urn:iso:std:iso:4217","value":5838.928},"category":{"coding":[{"code":"https://bluebutton.cms.gov/resources/variables/line_prvdr_pmt_amt","display":"Line Provider Payment Amount","system":"https://bluebutton.cms.gov/resources/codesystem/adjudication"}]}},{"amount":{"code":"USD","system":"urn:iso:std:iso:4217","value":7298.66},"category":{"coding":[{"code":"https://bluebutton.cms.gov/resources/variables/line_sbmtd_chrg_amt","display":"Line Submitted Charge Amount","system":"https://bluebutton.cms.gov/resources/codesystem/adjudication"}]}},{"amount":{"code":"USD","system":"urn:iso:std:iso:4217","value":7298.66},"category":{"coding":[{"code":"https://bluebutton.cms.gov/resources/variables/line_alowd_chrg_amt","display":"Line Allowed Charge Amount","system":"https://bluebutton.cms.gov/resources/codesystem/adjudication"}]}},{"amount":{"code":"USD","system":"urn:iso:std:iso:4217","value":0},"category":{"coding":[{"code":"https://bluebutton.cms.gov/resources/variables/line_bene_ptb_ddctbl_amt","display":"Line Beneficiary Part B Deductible Amount","system":"https://bluebutton.cms.gov/resources/codesystem/adjudication"}]}},{"category":{"coding":[{"code":"https://bluebutton.cms.gov/resources/variables/line_prcsg_ind_cd","display":"Line Processing Indicator Code","system":"https://bluebutton.cms.gov/resources/codesystem/adjudication"}]}}],"extension":[{"url":"https://bluebutton.cms.gov/assets/ig/StructureDefinition-bluebutton-inpatient-rev-cntr-ndc-qty-extension","valueQuantity":{"value":0}}],"locationCodeableConcept":{"coding":[{"code":"21","display":"Inpatient Hospital","system":"https://bluebutton.cms.gov/resources/variables/line_place_of_srvc_cd"}]},"sequence":3,"service":{"coding":[{"code":"252160004","system":"http://snomed.info/sct","version":"v1"}]}},{"adjudication":[{"amount":{"code":"USD","system":"urn:iso:std:iso:4217","value":3218.9240000000004},"category":{"coding":[{"code":"https://bluebutton.cms.gov/resources/variables/line_coinsrnc_amt","display":"Line Beneficiary Coinsurance Amount","system":"https://bluebutton.cms.gov/resources/codesystem/adjudication"}]}},{"amount":{"code":"USD","system":"urn:iso:std:iso:4217","value":12875.696000000002},"category":{"coding":[{"code":"https://bluebutton.cms.gov/resources/variables/line_prvdr_pmt_amt","display":"Line Provider Payment Amount","system":"https://bluebutton.cms.gov/resources/codesystem/adjudication"}]}},{"amount":{"code":"USD","system":"urn:iso:std:iso:4217","value":16094.62},"category":{"coding":[{"code":"https://bluebutton.cms.gov/resources/variables/line_sbmtd_chrg_amt","display":"Line Submitted Charge Amount","system":"https://bluebutton.cms.gov/resources/codesystem/adjudication"}]}},{"amount":{"code":"USD","system":"urn:iso:std:iso:4217","value":16094.62},"category":{"coding":[{"code":"https://bluebutton.cms.gov/resources/variables/line_alowd_chrg_amt","display":"Line Allowed Charge Amount","system":"https://bluebutton.cms.gov/resources/codesystem/adjudication"}]}},{"amount":{"code":"USD","system":"urn:iso:std:iso:4217","value":0},"category":{"coding":[{"code":"https://bluebutton.cms.gov/resources/variables/line_bene_ptb_ddctbl_amt","display":"Line Beneficiary Part B Deductible Amount","system":"https://bluebutton.cms.gov/resources/codesystem/adjudication"}]}},{"category":{"coding":[{"code":"https://bluebutton.cms.gov/resources/variables/line_prcsg_ind_cd","display":"Line Processing Indicator Code","system":"https://bluebutton.cms.gov/resources/codesystem/adjudication"}]}}],"extension":[{"url":"https://bluebutton.cms.gov/assets/ig/StructureDefinition-bluebutton-inpatient-rev-cntr-ndc-qty-extension","valueQuantity":{"value":0}}],"locationCodeableConcept":{"coding":[{"code":"21","display":"Inpatient Hospital","system":"https://bluebutton.cms.gov/resources/variables/line_place_of_srvc_cd"}]},"sequence":4,"service":{"coding":[{"code":"169230002","system":"http://snomed.info/sct","version":"v1"}]}},{"adjudication":[{"amount":{"code":"USD","system":"urn:iso:std:iso:4217","value":1356.7340000000002},"category":{"coding":[{"code":"https://bluebutton.cms.gov/resources/variables/line_coinsrnc_amt","display":"Line Beneficiary Coinsurance Amount","system":"https://bluebutton.cms.gov/resources/codesystem/adjudication"}]}},{"amount":{"code":"USD","system":"urn:iso:std:iso:4217","value":5426.936000000001},"category":{"coding":[{"code":"https://bluebutton.cms.gov/resources/variables/line_prvdr_pmt_amt","display":"Line Provider Payment Amount","system":"https://bluebutton.cms.gov/resources/codesystem/adjudication"}]}},{"amount":{"code":"USD","system":"urn:iso:std:iso:4217","value":6783.67},"category":{"coding":[{"code":"https://bluebutton.cms.gov/resources/variables/line_sbmtd_chrg_amt","display":"Line Submitted Charge Amount","system":"https://bluebutton.cms.gov/resources/codesystem/adjudication"}]}},{"amount":{"code":"USD","system":"urn:iso:std:iso:4217","value":6783.67},"category":{"coding":[{"code":"https://bluebutton.cms.gov/resources/variables/line_alowd_chrg_amt","display":"Line Allowed Charge Amount","system":"https://bluebutton.cms.gov/resources/codesystem/adjudication"}]}},{"amount":{"code":"USD","system":"urn:iso:std:iso:4217","value":0},"category":{"coding":[{"code":"https://bluebutton.cms.gov/resources/variables/line_bene_ptb_ddctbl_amt","display":"Line Beneficiary Part B Deductible Amount","system":"https://bluebutton.cms.gov/resources/codesystem/adjudication"}]}},{"category":{"coding":[{"code":"https://bluebutton.cms.gov/resources/variables/line_prcsg_ind_cd","display":"Line Processing Indicator Code","system":"https://bluebutton.cms.gov/resources/codesystem/adjudication"}]}}],"extension":[{"url":"https://bluebutton.cms.gov/assets/ig/StructureDefinition-bluebutton-inpatient-rev-cntr-ndc-qty-extension","valueQuantity":{"value":0}}],"locationCodeableConcept":{"coding":[{"code":"21","display":"Inpatient Hospital","system":"https://bluebutton.cms.gov/resources/variables/line_place_of_srvc_cd"}]},"sequence":5,"service":{"coding":[{"code":"274804006","system":"http://snomed.info/sct","version":"v1"}]}},{"adjudication":[{"amount":{"code":"USD","system":"urn:iso:std:iso:4217","value":619.2260000000001},"category":{"coding":[{"code":"https://bluebutton.cms.gov/resources/variables/line_coinsrnc_amt","display":"Line Beneficiary Coinsurance Amount","system":"https://bluebutton.cms.gov/resources/codesystem/adjudication"}]}},{"amount":{"code":"USD","system":"urn:iso:std:iso:4217","value":2476.9040000000005},"category":{"coding":[{"code":"https://bluebutton.cms.gov/resources/variables/line_prvdr_pmt_amt","display":"Line Provider Payment Amount","system":"https://bluebutton.cms.gov/resources/codesystem/adjudication"}]}},{"amount":{"code":"USD","system":"urn:iso:std:iso:4217","value":3096.13},"category":{"coding":[{"code":"https://bluebutton.cms.gov/resources/variables/line_sbmtd_chrg_amt","display":"Line Submitted Charge Amount","system":"https://bluebutton.cms.gov/resources/codesystem/adjudication"}]}},{"amount":{"code":"USD","system":"urn:iso:std:iso:4217","value":3096.13},"category":{"coding":[{"code":"https://bluebutton.cms.gov/resources/variables/line_alowd_chrg_amt","display":"Line Allowed Charge Amount","system":"https://bluebutton.cms.gov/resources/codesystem/adjudication"}]}},{"amount":{"code":"USD","system":"urn:iso:std:iso:4217","value":0},"category":{"coding":[{"code":"https://bluebutton.cms.gov/resources/variables/line_bene_ptb_ddctbl_amt","display":"Line Beneficiary Part B Deductible Amount","system":"https://bluebutton.cms.gov/resources/codesystem/adjudication"}]}},{"category":{"coding":[{"code":"https://bluebutton.cms.gov/resources/variables/line_prcsg_ind_cd","display":"Line Processing Indicator Code","system":"https://bluebutton.cms.gov/resources/codesystem/adjudication"}]}}],"extension":[{"url":"https://bluebutton.cms.gov/assets/ig/StructureDefinition-bluebutton-inpatient-rev-cntr-ndc-qty-extension","valueQuantity":{"value":0}}],"locationCodeableConcept":{"coding":[{"code":"21","display":"Inpatient Hospital","system":"https://bluebutton.cms.gov/resources/variables/line_place_of_srvc_cd"}]},"sequence":6,"service":{"coding":[{"code":"225158009","system":"http://snomed.info/sct","version":"v1"}]}},{"adjudication":[{"amount":{"code":"USD","system":"urn:iso:std:iso:4217","value":565.496},"category":{"coding":[{"code":"https://bluebutton.cms.gov/resources/variables/line_coinsrnc_amt","display":"Line Beneficiary Coinsurance Amount","system":"https://bluebutton.cms.gov/resources/codesystem/adjudication"}]}},{"amount":{"code":"USD","system":"urn:iso:std:iso:4217","value":2261.984},"category":{"coding":[{"code":"https://bluebutton.cms.gov/resources/variables/line_prvdr_pmt_amt","display":"Line Provider Payment Amount","system":"https://bluebutton.cms.gov/resources/codesystem/adjudication"}]}},{"amount":{"code":"USD","system":"urn:iso:std:iso:4217","value":2827.48},"category":{"coding":[{"code":"https://bluebutton.cms.gov/resources/variables/line_sbmtd_chrg_amt","display":"Line Submitted Charge Amount","system":"https://bluebutton.cms.gov/resources/codesystem/adjudication"}]}},{"amount":{"code":"USD","system":"urn:iso:std:iso:4217","value":2827.48},"category":{"coding":[{"code":"https://bluebutton.cms.gov/resources/variables/line_alowd_chrg_amt","display":"Line Allowed Charge Amount","system":"https://bluebutton.cms.gov/resources/codesystem/adjudication"}]}},{"amount":{"code":"USD","system":"urn:iso:std:iso:4217","value":0},"category":{"coding":[{"code":"https://bluebutton.cms.gov/resources/variables/line_bene_ptb_ddctbl_amt","display":"Line Beneficiary Part B Deductible Amount","system":"https://bluebutton.cms.gov/resources/codesystem/adjudication"}]}},{"category":{"coding":[{"code":"https://bluebutton.cms.gov/resources/variables/line_prcsg_ind_cd","display":"Line Processing Indicator Code","system":"https://bluebutton.cms.gov/resources/codesystem/adjudication"}]}}],"extension":[{"url":"https://bluebutton.cms.gov/assets/ig/StructureDefinition-bluebutton-inpatient-rev-cntr-ndc-qty-extension","valueQuantity":{"value":0}}],"locationCodeableConcept":{"coding":[{"code":"21","display":"Inpatient Hospital","system":"https://bluebutton.cms.gov/resources/variables/line_place_of_srvc_cd"}]},"sequence":7,"service":{"coding":[{"code":"44608003","system":"http://snomed.info/sct","version":"v1"}]}},{"adjudication":[{"amount":{"code":"USD","system":"urn:iso:std:iso:4217","value":356.064},"category":{"coding":[{"code":"https://bluebutton.cms.gov/resources/variables/line_coinsrnc_amt","display":"Line Beneficiary Coinsurance Amount","system":"https://bluebutton.cms.gov/resources/codesystem/adjudication"}]}},{"amount":{"code":"USD","system":"urn:iso:std:iso:4217","value":1424.256},"category":{"coding":[{"code":"https://bluebutton.cms.gov/resources/variables/line_prvdr_pmt_amt","display":"Line Provider Payment Amount","system":"https://bluebutton.cms.gov/resources/codesystem/adjudication"}]}},{"amount":{"code":"USD","system":"urn:iso:std:iso:4217","value":1780.32},"category":{"coding":[{"code":"https://bluebutton.cms.gov/resources/variables/line_sbmtd_chrg_amt","display":"Line Submitted Charge Amount","system":"https://bluebutton.cms.gov/resources/codesystem/adjudication"}]}},{"amount":{"code":"USD","system":"urn:iso:std:iso:4217","value":1780.32},"category":{"coding":[{"code":"https://bluebutton.cms.gov/resources/variables/line_alowd_chrg_amt","display":"Line Allowed Charge Amount","system":"https://bluebutton.cms.gov/resources/codesystem/adjudication"}]}},{"amount":{"code":"USD","system":"urn:iso:std:iso:4217","value":0},"category":{"coding":[{"code":"https://bluebutton.cms.gov/resources/variables/line_bene_ptb_ddctbl_amt","display":"Line Beneficiary Part B Deductible Amount","system":"https://bluebutton.cms.gov/resources/codesystem/adjudication"}]}},{"category":{"coding":[{"code":"https://bluebutton.cms.gov/resources/variables/line_prcsg_ind_cd","display":"Line Processing Indicator Code","system":"https://bluebutton.cms.gov/resources/codesystem/adjudication"}]}}],"extension":[{"url":"https://bluebutton.cms.gov/assets/ig/StructureDefinition-bluebutton-inpatient-rev-cntr-ndc-qty-extension","valueQuantity":{"value":0}}],"locationCodeableConcept":{"coding":[{"code":"21","display":"Inpatient Hospital","system":"https://bluebutton.cms.gov/resources/variables/line_place_of_srvc_cd"}]},"sequence":8,"service":{"coding":[{"code":"104091002","system":"http://snomed.info/sct","version":"v1"}]}},{"adjudication":[{"amount":{"code":"USD","system":"urn:iso:std:iso:4217","value":472.236},"category":{"coding":[{"code":"https://bluebutton.cms.gov/resources/variables/line_coinsrnc_amt","display":"Line Beneficiary Coinsurance Amount","system":"https://bluebutton.cms.gov/resources/codesystem/adjudication"}]}},{"amount":{"code":"USD","system":"urn:iso:std:iso:4217","value":1888.944},"category":{"coding":[{"code":"https://bluebutton.cms.gov/resources/variables/line_prvdr_pmt_amt","display":"Line Provider Payment Amount","system":"https://bluebutton.cms.gov/resources/codesystem/adjudication"}]}},{"amount":{"code":"USD","system":"urn:iso:std:iso:4217","value":2361.18},"category":{"coding":[{"code":"https://bluebutton.cms.gov/resources/variables/line_sbmtd_chrg_amt","display":"Line Submitted Charge Amount","system":"https://bluebutton.cms.gov/resources/codesystem/adjudication"}]}},{"amount":{"code":"USD","system":"urn:iso:std:iso:4217","value":2361.18},"category":{"coding":[{"code":"https://bluebutton.cms.gov/resources/variables/line_alowd_chrg_amt","display":"Line Allowed Charge Amount","system":"https://bluebutton.cms.gov/resources/codesystem/adjudication"}]}},{"amount":{"code":"USD","system":"urn:iso:std:iso:4217","value":0},"category":{"coding":[{"code":"https://bluebutton.cms.gov/resources/variables/line_bene_ptb_ddctbl_amt","display":"Line Beneficiary Part B Deductible Amount","system":"https://bluebutton.cms.gov/resources/codesystem/adjudication"}]}},{"category":{"coding":[{"code":"https://bluebutton.cms.gov/resources/variables/line_prcsg_ind_cd","display":"Line Processing Indicator Code","system":"https://bluebutton.cms.gov/resources/codesystem/adjudication"}]}}],"extension":[{"url":"https://bluebutton.cms.gov/assets/ig/StructureDefinition-bluebutton-inpatient-rev-cntr-ndc-qty-extension","valueQuantity":{"value":0}}],"locationCodeableConcept":{"coding":[{"code":"21","display":"Inpatient Hospital","system":"https://bluebutton.cms.gov/resources/variables/line_place_of_srvc_cd"}]},"sequence":9,"service":{"coding":[{"code":"47758006","system":"http://snomed.info/sct","version":"v1"}]}},{"adjudication":[{"amount":{"code":"USD","system":"urn:iso:std:iso:4217","value":398.22800000000007},"category":{"coding":[{"code":"https://bluebutton.cms.gov/resources/variables/line_coinsrnc_amt","display":"Line Beneficiary Coinsurance Amount","system":"https://bluebutton.cms.gov/resources/codesystem/adjudication"}]}},{"amount":{"code":"USD","system":"urn:iso:std:iso:4217","value":1592.9120000000003},"category":{"coding":[{"code":"https://bluebutton.cms.gov/resources/variables/line_prvdr_pmt_amt","display":"Line Provider Payment Amount","system":"https://bluebutton.cms.gov/resources/codesystem/adjudication"}]}},{"amount":{"code":"USD","system":"urn:iso:std:iso:4217","value":1991.14},"category":{"coding":[{"code":"https://bluebutton.cms.gov/resources/variables/line_sbmtd_chrg_amt","display":"Line Submitted Charge Amount","system":"https://bluebutton.cms.gov/resources/codesystem/adjudication"}]}},{"amount":{"code":"USD","system":"urn:iso:std:iso:4217","value":1991.14},"category":{"coding":[{"code":"https://bluebutton.cms.gov/resources/variables/line_alowd_chrg_amt","display":"Line Allowed Charge Amount","system":"https://bluebutton.cms.gov/resources/codesystem/adjudication"}]}},{"amount":{"code":"USD","system":"urn:iso:std:iso:4217","value":0},"category":{"coding":[{"code":"https://bluebutton.cms.gov/resources/variables/line_bene_ptb_ddctbl_amt","display":"Line Beneficiary Part B Deductible Amount","system":"https://bluebutton.cms.gov/resources/codesystem/adjudication"}]}},{"category":{"coding":[{"code":"https://bluebutton.cms.gov/resources/variables/line_prcsg_ind_cd","display":"Line Processing Indicator Code","system":"https://bluebutton.cms.gov/resources/codesystem/adjudication"}]}}],"extension":[{"url":"https://bluebutton.cms.gov/assets/ig/StructureDefinition-bluebutton-inpatient-rev-cntr-ndc-qty-extension","valueQuantity":{"value":0}}],"locationCodeableConcept":{"coding":[{"code":"21","display":"Inpatient Hospital","system":"https://bluebutton.cms.gov/resources/variables/line_place_of_srvc_cd"}]},"sequence":10,"service":{"coding":[{"code":"31676001","system":"http://snomed.info/sct","version":"v1"}]}},{"adjudication":[{"amount":{"code":"USD","system":"urn:iso:std:iso:4217","value":369.952},"category":{"coding":[{"code":"https://bluebutton.cms.gov/resources/variables/line_coinsrnc_amt","display":"Line Beneficiary Coinsurance Amount","system":"https://bluebutton.cms.gov/resources/codesystem/adjudication"}]}},{"amount":{"code":"USD","system":"urn:iso:std:iso:4217","value":1479.808},"category":{"coding":[{"code":"https://bluebutton.cms.gov/resources/variables/line_prvdr_pmt_amt","display":"Line Provider Payment Amount","system":"https://bluebutton.cms.gov/resources/codesystem/adjudication"}]}},{"amount":{"code":"USD","system":"urn:iso:std:iso:4217","value":1849.76},"category":{"coding":[{"code":"https://bluebutton.cms.gov/resources/variables/line_sbmtd_chrg_amt","display":"Line Submitted Charge Amount","system":"https://bluebutton.cms.gov/resources/codesystem/adjudication"}]}},{"amount":{"code":"USD","system":"urn:iso:std:iso:4217","value":1849.76},"category":{"coding":[{"code":"https://bluebutton.cms.gov/resources/variables/line_alowd_chrg_amt","display":"Line Allowed Charge Amount","system":"https://bluebutton.cms.gov/resources/codesystem/adjudication"}]}},{"amount":{"code":"USD","system":"urn:iso:std:iso:4217","value":0},"category":{"coding":[{"code":"https://bluebutton.cms.gov/resources/variables/line_bene_ptb_ddctbl_amt","display":"Line Beneficiary Part B Deductible Amount","system":"https://bluebutton.cms.gov/resources/codesystem/adjudication"}]}},{"category":{"coding":[{"code":"https://bluebutton.cms.gov/resources/variables/line_prcsg_ind_cd","display":"Line Processing Indicator Code","system":"https://bluebutton.cms.gov/resources/codesystem/adjudication"}]}}],"extension":[{"url":"https://bluebutton.cms.gov/assets/ig/StructureDefinition-bluebutton-inpatient-rev-cntr-ndc-qty-extension","valueQuantity":{"value":0}}],"locationCodeableConcept":{"coding":[{"code":"21","display":"Inpatient Hospital","system":"https://bluebutton.cms.gov/resources/variables/line_place_of_srvc_cd"}]},"sequence":11,"service":{"coding":[{"code":"310861008","system":"http://snomed.info/sct","version":"v1"}]}},{"adjudication":[{"amount":{"code":"USD","system":"urn:iso:std:iso:4217","value":647.4380000000001},"category":{"coding":[{"code":"https://bluebutton.cms.gov/resources/variables/line_coinsrnc_amt","display":"Line Beneficiary Coinsurance Amount","system":"https://bluebutton.cms.gov/resources/codesystem/adjudication"}]}},{"amount":{"code":"USD","system":"urn:iso:std:iso:4217","value":2589.7520000000004},"category":{"coding":[{"code":"https://bluebutton.cms.gov/resources/variables/line_prvdr_pmt_amt","display":"Line Provider Payment Amount","system":"https://bluebutton.cms.gov/resources/codesystem/adjudication"}]}},{"amount":{"code":"USD","system":"urn:iso:std:iso:4217","value":3237.19},"category":{"coding":[{"code":"https://bluebutton.cms.gov/resources/variables/line_sbmtd_chrg_amt","display":"Line Submitted Charge Amount","system":"https://bluebutton.cms.gov/resources/codesystem/adjudication"}]}},{"amount":{"code":"USD","system":"urn:iso:std:iso:4217","value":3237.19},"category":{"coding":[{"code":"https://bluebutton.cms.gov/resources/variables/line_alowd_chrg_amt","display":"Line Allowed Charge Amount","system":"https://bluebutton.cms.gov/resources/codesystem/adjudication"}]}},{"amount":{"code":"USD","system":"urn:iso:std:iso:4217","value":0},"category":{"coding":[{"code":"https://bluebutton.cms.gov/resources/variables/line_bene_ptb_ddctbl_amt","display":"Line Beneficiary Part B Deductible Amount","system":"https://bluebutton.cms.gov/resources/codesystem/adjudication"}]}},{"category":{"coding":[{"code":"https://bluebutton.cms.gov/resources/variables/line_prcsg_ind_cd","display":"Line Processing Indicator Code","system":"https://bluebutton.cms.gov/resources/codesystem/adjudication"}]}}],"extension":[{"url":"https://bluebutton.cms.gov/assets/ig/StructureDefinition-bluebutton-inpatient-rev-cntr-ndc-qty-extension","valueQuantity":{"value":0}}],"locationCodeableConcept":{"coding":[{"code":"21","display":"Inpatient Hospital","system":"https://bluebutton.cms.gov/resources/variables/line_place_of_srvc_cd"}]},"sequence":12,"service":{"coding":[{"code":"165829005","system":"http://snomed.info/sct","version":"v1"}]}},{"adjudication":[{"amount":{"code":"USD","system":"urn:iso:std:iso:4217","value":477.184},"category":{"coding":[{"code":"https://bluebutton.cms.gov/resources/variables/line_coinsrnc_amt","display":"Line Beneficiary Coinsurance Amount","system":"https://bluebutton.cms.gov/resources/codesystem/adjudication"}]}},{"amount":{"code":"USD","system":"urn:iso:std:iso:4217","value":1908.736},"category":{"coding":[{"code":"https://bluebutton.cms.gov/resources/variables/line_prvdr_pmt_amt","display":"Line Provider Payment Amount","system":"https://bluebutton.cms.gov/resources/codesystem/adjudication"}]}},{"amount":{"code":"USD","system":"urn:iso:std:iso:4217","value":2385.92},"category":{"coding":[{"code":"https://bluebutton.cms.gov/resources/variables/line_sbmtd_chrg_amt","display":"Line Submitted Charge Amount","system":"https://bluebutton.cms.gov/resources/codesystem/adjudication"}]}},{"amount":{"code":"USD","system":"urn:iso:std:iso:4217","value":2385.92},"category":{"coding":[{"code":"https://bluebutton.cms.gov/resources/variables/line_alowd_chrg_amt","display":"Line Allowed Charge Amount","system":"https://bluebutton.cms.gov/resources/codesystem/adjudication"}]}},{"amount":{"code":"USD","system":"urn:iso:std:iso:4217","value":0},"category":{"coding":[{"code":"https://bluebutton.cms.gov/resources/variables/line_bene_ptb_ddctbl_amt","display":"Line Beneficiary Part B Deductible Amount","system":"https://bluebutton.cms.gov/resources/codesystem/adjudication"}]}},{"category":{"coding":[{"code":"https://bluebutton.cms.gov/resources/variables/line_prcsg_ind_cd","display":"Line Processing Indicator Code","system":"https://bluebutton.cms.gov/resources/codesystem/adjudication"}]}}],"extension":[{"url":"https://bluebutton.cms.gov/assets/ig/StructureDefinition-bluebutton-inpatient-rev-cntr-ndc-qty-extension","valueQuantity":{"value":0}}],"locationCodeableConcept":{"coding":[{"code":"21","display":"Inpatient Hospital","system":"https://bluebutton.cms.gov/resources/variables/line_place_of_srvc_cd"}]},"sequence":13,"service":{"coding":[{"code":"269828009","system":"http://snomed.info/sct","version":"v1"}]}},{"adjudication":[{"amount":{"code":"USD","system":"urn:iso:std:iso:4217","value":560.4979999999999},"category":{"coding":[{"code":"https://bluebutton.cms.gov/resources/variables/line_coinsrnc_amt","display":"Line Beneficiary Coinsurance Amount","system":"https://bluebutton.cms.gov/resources/codesystem/adjudication"}]}},{"amount":{"code":"USD","system":"urn:iso:std:iso:4217","value":2241.9919999999997},"category":{"coding":[{"code":"https://bluebutton.cms.gov/resources/variables/line_prvdr_pmt_amt","display":"Line Provider Payment Amount","system":"https://bluebutton.cms.gov/resources/codesystem/adjudication"}]}},{"amount":{"code":"USD","system":"urn:iso:std:iso:4217","value":2802.49},"category":{"coding":[{"code":"https://bluebutton.cms.gov/resources/variables/line_sbmtd_chrg_amt","display":"Line Submitted Charge Amount","system":"https://bluebutton.cms.gov/resources/codesystem/adjudication"}]}},{"amount":{"code":"USD","system":"urn:iso:std:iso:4217","value":2802.49},"category":{"coding":[{"code":"https://bluebutton.cms.gov/resources/variables/line_alowd_chrg_amt","display":"Line Allowed Charge Amount","system":"https://bluebutton.cms.gov/resources/codesystem/adjudication"}]}},{"amount":{"code":"USD","system":"urn:iso:std:iso:4217","value":0},"category":{"coding":[{"code":"https://bluebutton.cms.gov/resources/variables/line_bene_ptb_ddctbl_amt","display":"Line Beneficiary Part B Deductible Amount","system":"https://bluebutton.cms.gov/resources/codesystem/adjudication"}]}},{"category":{"coding":[{"code":"https://bluebutton.cms.gov/resources/variables/line_prcsg_ind_cd","display":"Line Processing Indicator Code","system":"https://bluebutton.cms.gov/resources/codesystem/adjudication"}]}}],"extension":[{"url":"https://bluebutton.cms.gov/assets/ig/StructureDefinition-bluebutton-inpatient-rev-cntr-ndc-qty-extension","valueQuantity":{"value":0}}],"locationCodeableConcept":{"coding":[{"code":"21","display":"Inpatient Hospital","system":"https://bluebutton.cms.gov/resources/variables/line_place_of_srvc_cd"}]},"sequence":14,"service":{"coding":[{"code":"117010004","system":"http://snomed.info/sct","version":"v1"}]}},{"adjudication":[{"amount":{"code":"USD","system":"urn:iso:std:iso:4217","value":596.746},"category":{"coding":[{"code":"https://bluebutton.cms.gov/resources/variables/line_coinsrnc_amt","display":"Line Beneficiary Coinsurance Amount","system":"https://bluebutton.cms.gov/resources/codesystem/adjudication"}]}},{"amount":{"code":"USD","system":"urn:iso:std:iso:4217","value":2386.984},"category":{"coding":[{"code":"https://bluebutton.cms.gov/resources/variables/line_prvdr_pmt_amt","display":"Line Provider Payment Amount","system":"https://bluebutton.cms.gov/resources/codesystem/adjudication"}]}},{"amount":{"code":"USD","system":"urn:iso:std:iso:4217","value":2983.73},"category":{"coding":[{"code":"https://bluebutton.cms.gov/resources/variables/line_sbmtd_chrg_amt","display":"Line Submitted Charge Amount","system":"https://bluebutton.cms.gov/resources/codesystem/adjudication"}]}},{"amount":{"code":"USD","system":"urn:iso:std:iso:4217","value":2983.73},"category":{"coding":[{"code":"https://bluebutton.cms.gov/resources/variables/line_alowd_chrg_amt","display":"Line Allowed Charge Amount","system":"https://bluebutton.cms.gov/resources/codesystem/adjudication"}]}},{"amount":{"code":"USD","system":"urn:iso:std:iso:4217","value":0},"category":{"coding":[{"code":"https://bluebutton.cms.gov/resources/variables/line_bene_ptb_ddctbl_amt","display":"Line Beneficiary Part B Deductible Amount","system":"https://bluebutton.cms.gov/resources/codesystem/adjudication"}]}},{"category":{"coding":[{"code":"https://bluebutton.cms.gov/resources/variables/line_prcsg_ind_cd","display":"Line Processing Indicator Code","system":"https://bluebutton.cms.gov/resources/codesystem/adjudication"}]}}],"extension":[{"url":"https://bluebutton.cms.gov/assets/ig/StructureDefinition-bluebutton-inpatient-rev-cntr-ndc-qty-extension","valueQuantity":{"value":0}}],"locationCodeableConcept":{"coding":[{"code":"21","display":"Inpatient Hospital","system":"https://bluebutton.cms.gov/resources/variables/line_place_of_srvc_cd"}]},"sequence":15,"service":{"coding":[{"code":"90226004","system":"http://snomed.info/sct","version":"v1"}]}},{"adjudication":[{"amount":{"code":"USD","system":"urn:iso:std:iso:4217","value":425.442},"category":{"coding":[{"code":"https://bluebutton.cms.gov/resources/variables/line_coinsrnc_amt","display":"Line Beneficiary Coinsurance Amount","system":"https://bluebutton.cms.gov/resources/codesystem/adjudication"}]}},{"amount":{"code":"USD","system":"urn:iso:std:iso:4217","value":1701.768},"category":{"coding":[{"code":"https://bluebutton.cms.gov/resources/variables/line_prvdr_pmt_amt","display":"Line Provider Payment Amount","system":"https://bluebutton.cms.gov/resources/codesystem/adjudication"}]}},{"amount":{"code":"USD","system":"urn:iso:std:iso:4217","value":2127.21},"category":{"coding":[{"code":"https://bluebutton.cms.gov/resources/variables/line_sbmtd_chrg_amt","display":"Line Submitted Charge Amount","system":"https://bluebutton.cms.gov/resources/codesystem/adjudication"}]}},{"amount":{"code":"USD","system":"urn:iso:std:iso:4217","value":2127.21},"category":{"coding":[{"code":"https://bluebutton.cms.gov/resources/variables/line_alowd_chrg_amt","display":"Line Allowed Charge Amount","system":"https://bluebutton.cms.gov/resources/codesystem/adjudication"}]}},{"amount":{"code":"USD","system":"urn:iso:std:iso:4217","value":0},"category":{"coding":[{"code":"https://bluebutton.cms.gov/resources/variables/line_bene_ptb_ddctbl_amt","display":"Line Beneficiary Part B Deductible Amount","system":"https://bluebutton.cms.gov/resources/codesystem/adjudication"}]}},{"category":{"coding":[{"code":"https://bluebutton.cms.gov/resources/variables/line_prcsg_ind_cd","display":"Line Processing Indicator Code","system":"https://bluebutton.cms.gov/resources/codesystem/adjudication"}]}}],"extension":[{"url":"https://bluebutton.cms.gov/assets/ig/StructureDefinition-bluebutton-inpatient-rev-cntr-ndc-qty-extension","valueQuantity":{"value":0}}],"locationCodeableConcept":{"coding":[{"code":"21","display":"Inpatient Hospital","system":"https://bluebutton.cms.gov/resources/variables/line_place_of_srvc_cd"}]},"sequence":16,"service":{"coding":[{"code":"395123002","system":"http://snomed.info/sct","version":"v1"}]}},{"adjudication":[{"amount":{"code":"USD","system":"urn:iso:std:iso:4217","value":441.1},"category":{"coding":[{"code":"https://bluebutton.cms.gov/resources/variables/line_coinsrnc_amt","display":"Line Beneficiary Coinsurance Amount","system":"https://bluebutton.cms.gov/resources/codesystem/adjudication"}]}},{"amount":{"code":"USD","system":"urn:iso:std:iso:4217","value":1764.4},"category":{"coding":[{"code":"https://bluebutton.cms.gov/resources/variables/line_prvdr_pmt_amt","display":"Line Provider Payment Amount","system":"https://bluebutton.cms.gov/resources/codesystem/adjudication"}]}},{"amount":{"code":"USD","system":"urn:iso:std:iso:4217","value":2205.5},"category":{"coding":[{"code":"https://bluebutton.cms.gov/resources/variables/line_sbmtd_chrg_amt","display":"Line Submitted Charge Amount","system":"https://bluebutton.cms.gov/resources/codesystem/adjudication"}]}},{"amount":{"code":"USD","system":"urn:iso:std:iso:4217","value":2205.5},"category":{"coding":[{"code":"https://bluebutton.cms.gov/resources/variables/line_alowd_chrg_amt","display":"Line Allowed Charge Amount","system":"https://bluebutton.cms.gov/resources/codesystem/adjudication"}]}},{"amount":{"code":"USD","system":"urn:iso:std:iso:4217","value":0},"category":{"coding":[{"code":"https://bluebutton.cms.gov/resources/variables/line_bene_ptb_ddctbl_amt","display":"Line Beneficiary Part B Deductible Amount","system":"https://bluebutton.cms.gov/resources/codesystem/adjudication"}]}},{"category":{"coding":[{"code":"https://bluebutton.cms.gov/resources/variables/line_prcsg_ind_cd","display":"Line Processing Indicator Code","system":"https://bluebutton.cms.gov/resources/codesystem/adjudication"}]}}],"extension":[{"url":"https://bluebutton.cms.gov/assets/ig/StructureDefinition-bluebutton-inpatient-rev-cntr-ndc-qty-extension","valueQuantity":{"value":0}}],"locationCodeableConcept":{"coding":[{"code":"21","display":"Inpatient Hospital","system":"https://bluebutton.cms.gov/resources/variables/line_place_of_srvc_cd"}]},"sequence":17,"service":{"coding":[{"code":"104375008","system":"http://snomed.info/sct","version":"v1"}]}},{"adjudication":[{"amount":{"code":"USD","system":"urn:iso:std:iso:4217","value":376.972},"category":{"coding":[{"code":"https://bluebutton.cms.gov/resources/variables/line_coinsrnc_amt","display":"Line Beneficiary Coinsurance Amount","system":"https://bluebutton.cms.gov/resources/codesystem/adjudication"}]}},{"amount":{"code":"USD","system":"urn:iso:std:iso:4217","value":1507.888},"category":{"coding":[{"code":"https://bluebutton.cms.gov/resources/variables/line_prvdr_pmt_amt","display":"Line Provider Payment Amount","system":"https://bluebutton.cms.gov/resources/codesystem/adjudication"}]}},{"amount":{"code":"USD","system":"urn:iso:std:iso:4217","value":1884.86},"category":{"coding":[{"code":"https://bluebutton.cms.gov/resources/variables/line_sbmtd_chrg_amt","display":"Line Submitted Charge Amount","system":"https://bluebutton.cms.gov/resources/codesystem/adjudication"}]}},{"amount":{"code":"USD","system":"urn:iso:std:iso:4217","value":1884.86},"category":{"coding":[{"code":"https://bluebutton.cms.gov/resources/variables/line_alowd_chrg_amt","display":"Line Allowed Charge Amount","system":"https://bluebutton.cms.gov/resources/codesystem/adjudication"}]}},{"amount":{"code":"USD","system":"urn:iso:std:iso:4217","value":0},"category":{"coding":[{"code":"https://bluebutton.cms.gov/resources/variables/line_bene_ptb_ddctbl_amt","display":"Line Beneficiary Part B Deductible Amount","system":"https://bluebutton.cms.gov/resources/codesystem/adjudication"}]}},{"category":{"coding":[{"code":"https://bluebutton.cms.gov/resources/variables/line_prcsg_ind_cd","display":"Line Processing Indicator Code","system":"https://bluebutton.cms.gov/resources/codesystem/adjudication"}]}}],"extension":[{"url":"https://bluebutton.cms.gov/assets/ig/StructureDefinition-bluebutton-inpatient-rev-cntr-ndc-qty-extension","valueQuantity":{"value":0}}],"locationCodeableConcept":{"coding":[{"code":"21","display":"Inpatient Hospital","system":"https://bluebutton.cms.gov/resources/variables/line_place_of_srvc_cd"}]},"sequence":18,"service":{"coding":[{"code":"169690007","system":"http://snomed.info/sct","version":"v1"}]}},{"adjudication":[{"amount":{"code":"USD","system":"urn:iso:std:iso:4217","value":610.9399999999999},"category":{"coding":[{"code":"https://bluebutton.cms.gov/resources/variables/line_coinsrnc_amt","display":"Line Beneficiary Coinsurance Amount","system":"https://bluebutton.cms.gov/resources/codesystem/adjudication"}]}},{"amount":{"code":"USD","system":"urn:iso:std:iso:4217","value":2443.7599999999998},"category":{"coding":[{"code":"https://bluebutton.cms.gov/resources/variables/line_prvdr_pmt_amt","display":"Line Provider Payment Amount","system":"https://bluebutton.cms.gov/resources/codesystem/adjudication"}]}},{"amount":{"code":"USD","system":"urn:iso:std:iso:4217","value":3054.7},"category":{"coding":[{"code":"https://bluebutton.cms.gov/resources/variables/line_sbmtd_chrg_amt","display":"Line Submitted Charge Amount","system":"https://bluebutton.cms.gov/resources/codesystem/adjudication"}]}},{"amount":{"code":"USD","system":"urn:iso:std:iso:4217","value":3054.7},"category":{"coding":[{"code":"https://bluebutton.cms.gov/resources/variables/line_alowd_chrg_amt","display":"Line Allowed Charge Amount","system":"https://bluebutton.cms.gov/resources/codesystem/adjudication"}]}},{"amount":{"code":"USD","system":"urn:iso:std:iso:4217","value":0},"category":{"coding":[{"code":"https://bluebutton.cms.gov/resources/variables/line_bene_ptb_ddctbl_amt","display":"Line Beneficiary Part B Deductible Amount","system":"https://bluebutton.cms.gov/resources/codesystem/adjudication"}]}},{"category":{"coding":[{"code":"https://bluebutton.cms.gov/resources/variables/line_prcsg_ind_cd","display":"Line Processing Indicator Code","system":"https://bluebutton.cms.gov/resources/codesystem/adjudication"}]}}],"extension":[{"url":"https://bluebutton.cms.gov/assets/ig/StructureDefinition-bluebutton-inpatient-rev-cntr-ndc-qty-extension","valueQuantity":{"value":0}}],"locationCodeableConcept":{"coding":[{"code":"21","display":"Inpatient Hospital","system":"https://bluebutton.cms.gov/resources/variables/line_place_of_srvc_cd"}]},"sequence":19,"service":{"coding":[{"code":"104326007","system":"http://snomed.info/sct","version":"v1"}]}},{"adjudication":[{"amount":{"code":"USD","system":"urn:iso:std:iso:4217","value":443.278},"category":{"coding":[{"code":"https://bluebutton.cms.gov/resources/variables/line_coinsrnc_amt","display":"Line Beneficiary Coinsurance Amount","system":"https://bluebutton.cms.gov/resources/codesystem/adjudication"}]}},{"amount":{"code":"USD","system":"urn:iso:std:iso:4217","value":1773.112},"category":{"coding":[{"code":"https://bluebutton.cms.gov/resources/variables/line_prvdr_pmt_amt","display":"Line Provider Payment Amount","system":"https://bluebutton.cms.gov/resources/codesystem/adjudication"}]}},{"amount":{"code":"USD","system":"urn:iso:std:iso:4217","value":2216.39},"category":{"coding":[{"code":"https://bluebutton.cms.gov/resources/variables/line_sbmtd_chrg_amt","display":"Line Submitted Charge Amount","system":"https://bluebutton.cms.gov/resources/codesystem/adjudication"}]}},{"amount":{"code":"USD","system":"urn:iso:std:iso:4217","value":2216.39},"category":{"coding":[{"code":"https://bluebutton.cms.gov/resources/variables/line_alowd_chrg_amt","display":"Line Allowed Charge Amount","system":"https://bluebutton.cms.gov/resources/codesystem/adjudication"}]}},{"amount":{"code":"USD","system":"urn:iso:std:iso:4217","value":0},"category":{"coding":[{"code":"https://bluebutton.cms.gov/resources/variables/line_bene_ptb_ddctbl_amt","display":"Line Beneficiary Part B Deductible Amount","system":"https://bluebutton.cms.gov/resources/codesystem/adjudication"}]}},{"category":{"coding":[{"code":"https://bluebutton.cms.gov/resources/variables/line_prcsg_ind_cd","display":"Line Processing Indicator Code","system":"https://bluebutton.cms.gov/resources/codesystem/adjudication"}]}}],"extension":[{"url":"https://bluebutton.cms.gov/assets/ig/StructureDefinition-bluebutton-inpatient-rev-cntr-ndc-qty-extension","valueQuantity":{"value":0}}],"locationCodeableConcept":{"coding":[{"code":"21","display":"Inpatient Hospital","system":"https://bluebutton.cms.gov/resources/variables/line_place_of_srvc_cd"}]},"sequence":20,"service":{"coding":[{"code":"28163009","system":"http://snomed.info/sct","version":"v1"}]}},{"adjudication":[{"amount":{"code":"USD","system":"urn:iso:std:iso:4217","value":456.10400000000004},"category":{"coding":[{"code":"https://bluebutton.cms.gov/resources/variables/line_coinsrnc_amt","display":"Line Beneficiary Coinsurance Amount","system":"https://bluebutton.cms.gov/resources/codesystem/adjudication"}]}},{"amount":{"code":"USD","system":"urn:iso:std:iso:4217","value":1824.4160000000002},"category":{"coding":[{"code":"https://bluebutton.cms.gov/resources/variables/line_prvdr_pmt_amt","display":"Line Provider Payment Amount","system":"https://bluebutton.cms.gov/resources/codesystem/adjudication"}]}},{"amount":{"code":"USD","system":"urn:iso:std:iso:4217","value":2280.52},"category":{"coding":[{"code":"https://bluebutton.cms.gov/resources/variables/line_sbmtd_chrg_amt","display":"Line Submitted Charge Amount","system":"https://bluebutton.cms.gov/resources/codesystem/adjudication"}]}},{"amount":{"code":"USD","system":"urn:iso:std:iso:4217","value":2280.52},"category":{"coding":[{"code":"https://bluebutton.cms.gov/resources/variables/line_alowd_chrg_amt","display":"Line Allowed Charge Amount","system":"https://bluebutton.cms.gov/resources/codesystem/adjudication"}]}},{"amount":{"code":"USD","system":"urn:iso:std:iso:4217","value":0},"category":{"coding":[{"code":"https://bluebutton.cms.gov/resources/variables/line_bene_ptb_ddctbl_amt","display":"Line Beneficiary Part B Deductible Amount","system":"https://bluebutton.cms.gov/resources/codesystem/adjudication"}]}},{"category":{"coding":[{"code":"https://bluebutton.cms.gov/resources/variables/line_prcsg_ind_cd","display":"Line Processing Indicator Code","system":"https://bluebutton.cms.gov/resources/codesystem/adjudication"}]}}],"extension":[{"url":"https://bluebutton.cms.gov/assets/ig/StructureDefinition-bluebutton-inpatient-rev-cntr-ndc-qty-extension","valueQuantity":{"value":0}}],"locationCodeableConcept":{"coding":[{"code":"21","display":"Inpatient Hospital","system":"https://bluebutton.cms.gov/resources/variables/line_place_of_srvc_cd"}]},"sequence":21,"service":{"coding":[{"code":"167271000","system":"http://snomed.info/sct","version":"v1"}]}},{"adjudication":[{"amount":{"code":"USD","system":"urn:iso:std:iso:4217","value":103.33},"category":{"coding":[{"code":"https://bluebutton.cms.gov/resources/variables/line_coinsrnc_amt","display":"Line Beneficiary Coinsurance Amount","system":"https://bluebutton.cms.gov/resources/codesystem/adjudication"}]}},{"amount":{"code":"USD","system":"urn:iso:std:iso:4217","value":413.32},"category":{"coding":[{"code":"https://bluebutton.cms.gov/resources/variables/line_prvdr_pmt_amt","display":"Line Provider Payment Amount","system":"https://bluebutton.cms.gov/resources/codesystem/adjudication"}]}},{"amount":{"code":"USD","system":"urn:iso:std:iso:4217","value":516.65},"category":{"coding":[{"code":"https://bluebutton.cms.gov/resources/variables/line_sbmtd_chrg_amt","display":"Line Submitted Charge Amount","system":"https://bluebutton.cms.gov/resources/codesystem/adjudication"}]}},{"amount":{"code":"USD","system":"urn:iso:std:iso:4217","value":516.65},"category":{"coding":[{"code":"https://bluebutton.cms.gov/resources/variables/line_alowd_chrg_amt","display":"Line Allowed Charge Amount","system":"https://bluebutton.cms.gov/resources/codesystem/adjudication"}]}},{"amount":{"code":"USD","system":"urn:iso:std:iso:4217","value":0},"category":{"coding":[{"code":"https://bluebutton.cms.gov/resources/variables/line_bene_ptb_ddctbl_amt","display":"Line Beneficiary Part B Deductible Amount","system":"https://bluebutton.cms.gov/resources/codesystem/adjudication"}]}},{"category":{"coding":[{"code":"https://bluebutton.cms.gov/resources/variables/line_prcsg_ind_cd","display":"Line Processing Indicator Code","system":"https://bluebutton.cms.gov/resources/codesystem/adjudication"}]}}],"extension":[{"url":"https://bluebutton.cms.gov/assets/ig/StructureDefinition-bluebutton-inpatient-rev-cntr-ndc-qty-extension","valueQuantity":{"value":0}}],"locationCodeableConcept":{"coding":[{"code":"21","display":"Inpatient Hospital","system":"https://bluebutton.cms.gov/resources/variables/line_place_of_srvc_cd"}]},"sequence":22,"service":{"coding":[{"code":"5880005","system":"http://snomed.info/sct","version":"v1"}]}}],"meta":{"lastUpdated":"2019-04-09T12:00:35.193925+00:00","profile":["https://bluebutton.cms.gov/assets/ig/StructureDefinition-bluebutton-inpatient-claim"],"versionId":"MTU1NDgxMTIzNTE5MzkyNTAwMA"},"organization":{"identifier":{"value":"26f36041-e05b-4ed4-9b86-85f403bf1d18"}},"patient":{"reference":"Patient/00bce077-b35e-456a-aca4-4fd257f3319f"},"payment":{"amount":{"code":"USD","system":"urn:iso:std:iso:4217","value":55822.49600000001}},"provider":{"identifier":{"value":"48d6ffb3-0aa9-4e21-b3f7-808de9f3fb0d"}},"resourceType":"ExplanationOfBenefit","status":"active","totalCost":{"code":"USD","system":"urn:iso:std:iso:4217","value":69903.12},"type":{"coding":[{"code":"71","display":"Local carrier non-durable medical equipment, prosthetics, orthotics, and supplies (DMEPOS) claim","system":"https://bluebutton.cms.gov/resources/variables/nch_clm_type_cd"},{"code":"CARRIER","display":"EOB Type","system":"https://bluebutton.cms.gov/resources/codesystem/eob-type"},{"code":"professional","display":"Claim Type","system":"http://hl7.org/fhir/ex-claimtype"},{"code":"O","display":"Part B physician/supplier claim record (processed by local carriers; can include DMEPOS services)","system":"https://bluebutton.cms.gov/resources/variables/nch_near_line_rec_ident_cd"}]}}},{"resource":{"date":"2009-08-30T11:03:29-04:00","encounter":{"reference":"Encounter/e09690a4-08a6-4088-b3e0-01dfc04919f7"},"id":"11cb2c8d-03e4-4a01-a969-e603cd15da4b","meta":{"lastUpdated":"2019-04-09T10:50:50.458557+00:00","versionId":"MTU1NDgwNzA1MDQ1ODU1NzAwMA"},"notGiven":false,"patient":{"reference":"Patient/00bce077-b35e-456a-aca4-4fd257f3319f"},"primarySource":true,"resourceType":"Immunization","status":"completed","vaccineCode":{"coding":[{"code":"140","display":"Influenza, seasonal, injectable, preservative free","system":"http://hl7.org/fhir/sid/cvx"}],"text":"Influenza, seasonal, injectable, preservative free"}}},{"resource":{"date":"2011-09-11T11:03:29-04:00","encounter":{"reference":"Encounter/7064bb17-3a99-420f-bd37-3c4c60bc42c9"},"id":"1af6cba2-d4de-4e0f-a7f6-17a3eaabb36c","meta":{"lastUpdated":"2019-04-09T10:50:50.468837+00:00","versionId":"MTU1NDgwNzA1MDQ2ODgzNzAwMA"},"notGiven":false,"patient":{"reference":"Patient/00bce077-b35e-456a-aca4-4fd257f3319f"},"primarySource":true,"resourceType":"Immunization","status":"completed","vaccineCode":{"coding":[{"code":"140","display":"Influenza, seasonal, injectable, preservative free","system":"http://hl7.org/fhir/sid/cvx"}],"text":"Influenza, seasonal, injectable, preservative free"}}},{"resource":{"date":"2013-09-22T11:03:29-04:00","encounter":{"reference":"Encounter/baa23348-755d-4139-90aa-20c899d518f2"},"id":"349967ee-d3c1-457a-bda5-c20605f13055","meta":{"lastUpdated":"2019-04-09T10:50:50.466913+00:00","versionId":"MTU1NDgwNzA1MDQ2NjkxMzAwMA"},"notGiven":false,"patient":{"reference":"Patient/00bce077-b35e-456a-aca4-4fd257f3319f"},"primarySource":true,"resourceType":"Immunization","status":"completed","vaccineCode":{"coding":[{"code":"140","display":"Influenza, seasonal, injectable, preservative free","system":"http://hl7.org/fhir/sid/cvx"}],"text":"Influenza, seasonal, injectable, preservative free"}}},{"resource":{"date":"2017-10-01T11:03:29-04:00","encounter":{"reference":"Encounter/14c8323f-be9c-4332-91a0-174a57dd5fd2"},"id":"361ce7d7-7364-47d0-b79f-5c703bcfd7d2","meta":{"lastUpdated":"2019-04-09T12:00:35.194779+00:00","versionId":"MTU1NDgxMTIzNTE5NDc3OTAwMA"},"notGiven":false,"patient":{"reference":"Patient/00bce077-b35e-456a-aca4-4fd257f3319f"},"primarySource":true,"resourceType":"Immunization","status":"completed","vaccineCode":{"coding":[{"code":"140","display":"Influenza, seasonal, injectable, preservative free","system":"http://hl7.org/fhir/sid/cvx"}],"text":"Influenza, seasonal, injectable, preservative free"}}},{"resource":{"date":"2014-09-28T11:03:29-04:00","encounter":{"reference":"Encounter/bcdd1122-68e9-4727-9d4c-f158dd19790a"},"id":"64eb6ae9-2d49-4386-9603-c433b9c3474d","meta":{"lastUpdated":"2019-04-09T10:50:50.471424+00:00","versionId":"MTU1NDgwNzA1MDQ3MTQyNDAwMA"},"notGiven":false,"patient":{"reference":"Patient/00bce077-b35e-456a-aca4-4fd257f3319f"},"primarySource":true,"resourceType":"Immunization","status":"completed","vaccineCode":{"coding":[{"code":"140","display":"Influenza, seasonal, injectable, preservative free","system":"http://hl7.org/fhir/sid/cvx"}],"text":"Influenza, seasonal, injectable, preservative free"}}},{"resource":{"date":"2012-09-16T11:03:29-04:00","encounter":{"reference":"Encounter/66a840d2-4032-4494-b964-fe7d5a96ffc7"},"id":"b9e5dc94-213d-468d-8c8b-517cf04822e5","meta":{"lastUpdated":"2019-04-09T10:50:50.460246+00:00","versionId":"MTU1NDgwNzA1MDQ2MDI0NjAwMA"},"notGiven":false,"patient":{"reference":"Patient/00bce077-b35e-456a-aca4-4fd257f3319f"},"primarySource":true,"resourceType":"Immunization","status":"completed","vaccineCode":{"coding":[{"code":"140","display":"Influenza, seasonal, injectable, preservative free","system":"http://hl7.org/fhir/sid/cvx"}],"text":"Influenza, seasonal, injectable, preservative free"}}},{"resource":{"date":"2017-10-01T11:03:29-04:00","encounter":{"reference":"Encounter/14c8323f-be9c-4332-91a0-174a57dd5fd2"},"id":"c1fd9745-5895-4051-96ac-f3e7f482daa3","meta":{"lastUpdated":"2019-04-09T12:00:35.190151+00:00","versionId":"MTU1NDgxMTIzNTE5MDE1MTAwMA"},"notGiven":false,"patient":{"reference":"Patient/00bce077-b35e-456a-aca4-4fd257f3319f"},"primarySource":true,"resourceType":"Immunization","status":"completed","vaccineCode":{"coding":[{"code":"114","display":"meningococcal MCV4P","system":"http://hl7.org/fhir/sid/cvx"}],"text":"meningococcal MCV4P"}}},{"resource":{"date":"2011-09-11T11:03:29-04:00","encounter":{"reference":"Encounter/7064bb17-3a99-420f-bd37-3c4c60bc42c9"},"id":"d94fadb7-5169-4b74-b565-fc9e434fd371","meta":{"lastUpdated":"2019-04-09T10:50:50.468836+00:00","versionId":"MTU1NDgwNzA1MDQ2ODgzNjAwMA"},"notGiven":false,"patient":{"reference":"Patient/00bce077-b35e-456a-aca4-4fd257f3319f"},"primarySource":true,"resourceType":"Immunization","status":"completed","vaccineCode":{"coding":[{"code":"114","display":"meningococcal MCV4P","system":"http://hl7.org/fhir/sid/cvx"}],"text":"meningococcal MCV4P"}}},{"resource":{"date":"2017-10-01T11:03:29-04:00","encounter":{"reference":"Encounter/14c8323f-be9c-4332-91a0-174a57dd5fd2"},"id":"e0846131-4523-4308-aa1d-6a45dd988c3f","meta":{"lastUpdated":"2019-04-09T12:00:35.180754+00:00","versionId":"MTU1NDgxMTIzNTE4MDc1NDAwMA"},"notGiven":false,"patient":{"reference":"Patient/00bce077-b35e-456a-aca4-4fd257f3319f"},"primarySource":true,"resourceType":"Immunization","status":"completed","vaccineCode":{"coding":[{"code":"113","display":"Td (adult) preservative free","system":"http://hl7.org/fhir/sid/cvx"}],"text":"Td (adult) preservative free"}}},{"resource":{"date":"2017-10-01T11:03:29-04:00","encounter":{"reference":"Encounter/14c8323f-be9c-4332-91a0-174a57dd5fd2"},"id":"ec7bd8d3-4625-47e0-9000-27fad4e0e484","meta":{"lastUpdated":"2019-04-09T12:00:35.179618+00:00","versionId":"MTU1NDgxMTIzNTE3OTYxODAwMA"},"notGiven":false,"patient":{"reference":"Patient/00bce077-b35e-456a-aca4-4fd257f3319f"},"primarySource":true,"resourceType":"Immunization","status":"completed","vaccineCode":{"coding":[{"code":"43","display":"Hep B, adult","system":"http://hl7.org/fhir/sid/cvx"}],"text":"Hep B, adult"}}},{"resource":{"date":"2010-09-05T11:03:29-04:00","encounter":{"reference":"Encounter/5f86b869-c64d-488f-bb39-9f44f1ca20a0"},"id":"f661b73f-8d46-443c-baa0-24a5327dfe36","meta":{"lastUpdated":"2019-04-09T10:50:50.462913+00:00","versionId":"MTU1NDgwNzA1MDQ2MjkxMzAwMA"},"notGiven":false,"patient":{"reference":"Patient/00bce077-b35e-456a-aca4-4fd257f3319f"},"primarySource":true,"resourceType":"Immunization","status":"completed","vaccineCode":{"coding":[{"code":"140","display":"Influenza, seasonal, injectable, preservative free","system":"http://hl7.org/fhir/sid/cvx"}],"text":"Influenza, seasonal, injectable, preservative free"}}},{"resource":{"authoredOn":"2011-07-16T11:03:29-04:00","context":{"reference":"Encounter/7288ce81-369b-4590-989b-3d09629b4666"},"id":"3605975a-6782-4f11-857a-7ffdfb249d9b","intent":"order","medicationCodeableConcept":{"coding":[{"code":"751905","display":"Trinessa 28 Day Pack","system":"http://www.nlm.nih.gov/research/umls/rxnorm"}],"text":"Trinessa 28 Day Pack"},"meta":{"lastUpdated":"2019-04-09T10:50:50.470618+00:00","versionId":"MTU1NDgwNzA1MDQ3MDYxODAwMA"},"requester":{"agent":{"reference":"Practitioner/48d6ffb3-0aa9-4e21-b3f7-808de9f3fb0d"},"onBehalfOf":{"reference":"Organization/26f36041-e05b-4ed4-9b86-85f403bf1d18"}},"resourceType":"MedicationRequest","status":"stopped","subject":{"reference":"Patient/00bce077-b35e-456a-aca4-4fd257f3319f"}}},{"resource":{"authoredOn":"2016-06-19T11:03:29-04:00","context":{"reference":"Encounter/36f56ab0-9c8d-4af5-8cad-c42b15bdf6a4"},"id":"6d2ce7de-9b71-48f7-a8f2-f093cf1b04db","intent":"order","medicationCodeableConcept":{"coding":[{"code":"751905","display":"Trinessa 28 Day Pack","system":"http://www.nlm.nih.gov/research/umls/rxnorm"}],"text":"Trinessa 28 Day Pack"},"meta":{"lastUpdated":"2019-04-09T10:50:50.461321+00:00","versionId":"MTU1NDgwNzA1MDQ2MTMyMTAwMA"},"requester":{"agent":{"reference":"Practitioner/48d6ffb3-0aa9-4e21-b3f7-808de9f3fb0d"},"onBehalfOf":{"reference":"Organization/26f36041-e05b-4ed4-9b86-85f403bf1d18"}},"resourceType":"MedicationRequest","status":"stopped","subject":{"reference":"Patient/00bce077-b35e-456a-aca4-4fd257f3319f"}}},{"resource":{"authoredOn":"2014-06-30T11:03:29-04:00","context":{"reference":"Encounter/60c51696-a615-4b40-aa39-fb8178b3731a"},"id":"7afcfed7-1562-48af-9b80-2fe0518f5152","intent":"order","medicationCodeableConcept":{"coding":[{"code":"749762","display":"Seasonique 91 Day Pack","system":"http://www.nlm.nih.gov/research/umls/rxnorm"}],"text":"Seasonique 91 Day Pack"},"meta":{"lastUpdated":"2019-04-09T10:50:50.470619+00:00","versionId":"MTU1NDgwNzA1MDQ3MDYxOTAwMA"},"requester":{"agent":{"reference":"Practitioner/48d6ffb3-0aa9-4e21-b3f7-808de9f3fb0d"},"onBehalfOf":{"reference":"Organization/26f36041-e05b-4ed4-9b86-85f403bf1d18"}},"resourceType":"MedicationRequest","status":"stopped","subject":{"reference":"Patient/00bce077-b35e-456a-aca4-4fd257f3319f"}}},{"resource":{"authoredOn":"2013-07-05T11:03:29-04:00","context":{"reference":"Encounter/581d9e24-0244-4385-878b-6fe26e2e0703"},"id":"a4184345-0624-4c26-92b1-542db066d23a","intent":"order","medicationCodeableConcept":{"coding":[{"code":"748856","display":"Yaz 28 Day Pack","system":"http://www.nlm.nih.gov/research/umls/rxnorm"}],"text":"Yaz 28 Day Pack"},"meta":{"lastUpdated":"2019-04-09T10:50:50.462413+00:00","versionId":"MTU1NDgwNzA1MDQ2MjQxMzAwMA"},"requester":{"agent":{"reference":"Practitioner/48d6ffb3-0aa9-4e21-b3f7-808de9f3fb0d"},"onBehalfOf":{"reference":"Organization/26f36041-e05b-4ed4-9b86-85f403bf1d18"}},"resourceType":"MedicationRequest","status":"stopped","subject":{"reference":"Patient/00bce077-b35e-456a-aca4-4fd257f3319f"}}},{"resource":{"category":[{"coding":[{"code":"laboratory","display":"laboratory","system":"http://hl7.org/fhir/observation-category"}]}],"code":{"coding":[{"code":"21000-5","display":"Erythrocyte distribution width [Entitic volume] by Automated count","system":"http://loinc.org"}],"text":"Erythrocyte distribution width [Entitic volume] by Automated count"},"context":{"reference":"Encounter/14c8323f-be9c-4332-91a0-174a57dd5fd2"},"effectiveDateTime":"2017-10-01T11:03:29-04:00","id":"004e0d9a-ae34-4c5b-81c3-355144da200b","issued":"2017-10-01T11:03:29.876-04:00","meta":{"lastUpdated":"2019-04-09T12:00:35.189651+00:00","versionId":"MTU1NDgxMTIzNTE4OTY1MTAwMA"},"resourceType":"Observation","status":"final","subject":{"reference":"Patient/00bce077-b35e-456a-aca4-4fd257f3319f"},"valueQuantity":{"code":"fL","system":"http://unitsofmeasure.org","unit":"fL","value":40.270527260850315}}},{"resource":{"category":[{"coding":[{"code":"vital-signs","display":"vital-signs","system":"http://hl7.org/fhir/observation-category"}]}],"code":{"coding":[{"code":"55284-4","display":"Blood Pressure","system":"http://loinc.org"}],"text":"Blood Pressure"},"component":[{"code":{"coding":[{"code":"8462-4","display":"Diastolic Blood Pressure","system":"http://loinc.org"}],"text":"Diastolic Blood Pressure"},"valueQuantity":{"code":"mmHg","system":"http://unitsofmeasure.org","unit":"mmHg","value":79.75980081197959}},{"code":{"coding":[{"code":"8480-6","display":"Systolic Blood Pressure","system":"http://loinc.org"}],"text":"Systolic Blood Pressure"},"valueQuantity":{"code":"mmHg","system":"http://unitsofmeasure.org","unit":"mmHg","value":131.5590585172213}}],"context":{"reference":"Encounter/e09690a4-08a6-4088-b3e0-01dfc04919f7"},"effectiveDateTime":"2009-08-30T11:03:29-04:00","id":"0350013d-a230-4ca7-8d6c-0595cc321096","issued":"2009-08-30T11:03:29.876-04:00","meta":{"lastUpdated":"2019-04-09T10:50:50.458555+00:00","versionId":"MTU1NDgwNzA1MDQ1ODU1NTAwMA"},"resourceType":"Observation","status":"final","subject":{"reference":"Patient/00bce077-b35e-456a-aca4-4fd257f3319f"}}},{"resource":{"category":[{"coding":[{"code":"survey","display":"survey","system":"http://hl7.org/fhir/observation-category"}]}],"code":{"coding":[{"code":"72166-2","display":"Tobacco smoking status NHIS","system":"http://loinc.org"}],"text":"Tobacco smoking status NHIS"},"context":{"reference":"Encounter/5f86b869-c64d-488f-bb39-9f44f1ca20a0"},"effectiveDateTime":"2010-09-05T11:03:29-04:00","id":"0bf65df1-2388-40e4-864e-1aaf89691dd1","issued":"2010-09-05T11:03:29.876-04:00","meta":{"lastUpdated":"2019-04-09T10:50:50.462912+00:00","versionId":"MTU1NDgwNzA1MDQ2MjkxMjAwMA"},"resourceType":"Observation","status":"final","subject":{"reference":"Patient/00bce077-b35e-456a-aca4-4fd257f3319f"},"valueCodeableConcept":{"coding":[{"code":"266919005","display":"Never smoker","system":"http://snomed.info/sct"}],"text":"Never smoker"}}},{"resource":{"category":[{"coding":[{"code":"laboratory","display":"laboratory","system":"http://hl7.org/fhir/observation-category"}]}],"code":{"coding":[{"code":"718-7","display":"Hemoglobin [Mass/volume] in Blood","system":"http://loinc.org"}],"text":"Hemoglobin [Mass/volume] in Blood"},"context":{"reference":"Encounter/7064bb17-3a99-420f-bd37-3c4c60bc42c9"},"effectiveDateTime":"2011-09-11T11:03:29-04:00","id":"12355561-2bf8-436a-9502-1835d660e92e","issued":"2011-09-11T11:03:29.876-04:00","meta":{"lastUpdated":"2019-04-09T10:50:50.458562+00:00","versionId":"MTU1NDgwNzA1MDQ1ODU2MjAwMA"},"resourceType":"Observation","status":"final","subject":{"reference":"Patient/00bce077-b35e-456a-aca4-4fd257f3319f"},"valueQuantity":{"code":"g/dL","system":"http://unitsofmeasure.org","unit":"g/dL","value":14.982084383996693}}},{"resource":{"category":[{"coding":[{"code":"vital-signs","display":"vital-signs","system":"http://hl7.org/fhir/observation-category"}]}],"code":{"coding":[{"code":"8302-2","display":"Body Height","system":"http://loinc.org"}],"text":"Body Height"},"context":{"reference":"Encounter/e09690a4-08a6-4088-b3e0-01dfc04919f7"},"effectiveDateTime":"2009-08-30T11:03:29-04:00","id":"156eae38-e460-45c9-8290-691d6b879cec","issued":"2009-08-30T11:03:29.876-04:00","meta":{"lastUpdated":"2019-04-09T10:50:50.465614+00:00","versionId":"MTU1NDgwNzA1MDQ2NTYxNDAwMA"},"resourceType":"Observation","status":"final","subject":{"reference":"Patient/00bce077-b35e-456a-aca4-4fd257f3319f"},"valueQuantity":{"code":"cm","system":"http://unitsofmeasure.org","unit":"cm","value":156.4494551889099}}},{"resource":{"category":[{"coding":[{"code":"vital-signs","display":"vital-signs","system":"http://hl7.org/fhir/observation-category"}]}],"code":{"coding":[{"code":"8302-2","display":"Body Height","system":"http://loinc.org"}],"text":"Body Height"},"context":{"reference":"Encounter/5f86b869-c64d-488f-bb39-9f44f1ca20a0"},"effectiveDateTime":"2010-09-05T11:03:29-04:00","id":"1750deb5-9324-44a8-9ae8-72f0e122ff03","issued":"2010-09-05T11:03:29.876-04:00","meta":{"lastUpdated":"2019-04-09T10:50:50.462914+00:00","versionId":"MTU1NDgwNzA1MDQ2MjkxNDAwMA"},"resourceType":"Observation","status":"final","subject":{"reference":"Patient/00bce077-b35e-456a-aca4-4fd257f3319f"},"valueQuantity":{"code":"cm","system":"http://unitsofmeasure.org","unit":"cm","value":157.93001455095285}}},{"resource":{"category":[{"coding":[{"code":"laboratory","display":"laboratory","system":"http://hl7.org/fhir/observation-category"}]}],"code":{"coding":[{"code":"786-4","display":"MCHC [Mass/volume] by Automated count","system":"http://loinc.org"}],"text":"MCHC [Mass/volume] by Automated count"},"context":{"reference":"Encounter/14c8323f-be9c-4332-91a0-174a57dd5fd2"},"effectiveDateTime":"2017-10-01T11:03:29-04:00","id":"191fc50c-d09a-4461-8f7a-865482226e26","issued":"2017-10-01T11:03:29.876-04:00","meta":{"lastUpdated":"2019-04-09T12:00:35.184799+00:00","versionId":"MTU1NDgxMTIzNTE4NDc5OTAwMA"},"resourceType":"Observation","status":"final","subject":{"reference":"Patient/00bce077-b35e-456a-aca4-4fd257f3319f"},"valueQuantity":{"code":"g/dL","system":"http://unitsofmeasure.org","unit":"g/dL","value":34.783089961603714}}},{"resource":{"category":[{"coding":[{"code":"laboratory","display":"laboratory","system":"http://hl7.org/fhir/observation-category"}]}],"code":{"coding":[{"code":"4544-3","display":"Hematocrit [Volume Fraction] of Blood by Automated count","system":"http://loinc.org"}],"text":"Hematocrit [Volume Fraction] of Blood by Automated count"},"context":{"reference":"Encounter/7064bb17-3a99-420f-bd37-3c4c60bc42c9"},"effectiveDateTime":"2011-09-11T11:03:29-04:00","id":"22d1bbdd-9d29-4909-8956-b091dcb096f2","issued":"2011-09-11T11:03:29.876-04:00","meta":{"lastUpdated":"2019-04-09T10:50:50.459887+00:00","versionId":"MTU1NDgwNzA1MDQ1OTg4NzAwMA"},"resourceType":"Observation","status":"final","subject":{"reference":"Patient/00bce077-b35e-456a-aca4-4fd257f3319f"},"valueQuantity":{"code":"%","system":"http://unitsofmeasure.org","unit":"%","value":36.17287432468473}}},{"resource":{"category":[{"coding":[{"code":"vital-signs","display":"vital-signs","system":"http://hl7.org/fhir/observation-category"}]}],"code":{"coding":[{"code":"8302-2","display":"Body Height","system":"http://loinc.org"}],"text":"Body Height"},"context":{"reference":"Encounter/bcdd1122-68e9-4727-9d4c-f158dd19790a"},"effectiveDateTime":"2014-09-28T11:03:29-04:00","id":"241e0ac6-da0d-47aa-ba02-3ebe240b6594","issued":"2014-09-28T11:03:29.876-04:00","meta":{"lastUpdated":"2019-04-09T10:50:50.469220+00:00","versionId":"MTU1NDgwNzA1MDQ2OTIyMDAwMA"},"resourceType":"Observation","status":"final","subject":{"reference":"Patient/00bce077-b35e-456a-aca4-4fd257f3319f"},"valueQuantity":{"code":"cm","system":"http://unitsofmeasure.org","unit":"cm","value":159.29926354149913}}},{"resource":{"category":[{"coding":[{"code":"vital-signs","display":"vital-signs","system":"http://hl7.org/fhir/observation-category"}]}],"code":{"coding":[{"code":"39156-5","display":"Body Mass Index","system":"http://loinc.org"}],"text":"Body Mass Index"},"context":{"reference":"Encounter/baa23348-755d-4139-90aa-20c899d518f2"},"effectiveDateTime":"2013-09-22T11:03:29-04:00","id":"2962ad04-1207-4234-ae07-b715403e7f71","issued":"2013-09-22T11:03:29.876-04:00","meta":{"lastUpdated":"2019-04-09T10:50:50.469226+00:00","versionId":"MTU1NDgwNzA1MDQ2OTIyNjAwMA"},"resourceType":"Observation","status":"final","subject":{"reference":"Patient/00bce077-b35e-456a-aca4-4fd257f3319f"},"valueQuantity":{"code":"kg/m2","system":"http://unitsofmeasure.org","unit":"kg/m2","value":24.695404217874806}}},{"resource":{"category":[{"coding":[{"code":"laboratory","display":"laboratory","system":"http://hl7.org/fhir/observation-category"}]}],"code":{"coding":[{"code":"32623-1","display":"Platelet mean volume [Entitic volume] in Blood by Automated count","system":"http://loinc.org"}],"text":"Platelet mean volume [Entitic volume] in Blood by Automated count"},"context":{"reference":"Encounter/14c8323f-be9c-4332-91a0-174a57dd5fd2"},"effectiveDateTime":"2017-10-01T11:03:29-04:00","id":"2b9e9443-7538-4c34-a0db-97e94ab9ead3","issued":"2017-10-01T11:03:29.876-04:00","meta":{"lastUpdated":"2019-04-09T12:00:35.182383+00:00","versionId":"MTU1NDgxMTIzNTE4MjM4MzAwMA"},"resourceType":"Observation","status":"final","subject":{"reference":"Patient/00bce077-b35e-456a-aca4-4fd257f3319f"},"valueQuantity":{"code":"fL","system":"http://unitsofmeasure.org","unit":"fL","value":11.662677818217151}}},{"resource":{"category":[{"coding":[{"code":"vital-signs","display":"vital-signs","system":"http://hl7.org/fhir/observation-category"}]}],"code":{"coding":[{"code":"72514-3","display":"Pain severity - 0-10 verbal numeric rating [Score] - Reported","system":"http://loinc.org"}],"text":"Pain severity - 0-10 verbal numeric rating [Score] - Reported"},"context":{"reference":"Encounter/bcdd1122-68e9-4727-9d4c-f158dd19790a"},"effectiveDateTime":"2014-09-28T11:03:29-04:00","id":"33171bf7-274c-41d9-83bc-1be28181c906","issued":"2014-09-28T11:03:29.876-04:00","meta":{"lastUpdated":"2019-04-09T10:50:50.469218+00:00","versionId":"MTU1NDgwNzA1MDQ2OTIxODAwMA"},"resourceType":"Observation","status":"final","subject":{"reference":"Patient/00bce077-b35e-456a-aca4-4fd257f3319f"},"valueQuantity":{"code":"{score}","system":"http://unitsofmeasure.org","unit":"{score}","value":1.997433629165347}}},{"resource":{"category":[{"coding":[{"code":"vital-signs","display":"vital-signs","system":"http://hl7.org/fhir/observation-category"}]}],"code":{"coding":[{"code":"72514-3","display":"Pain severity - 0-10 verbal numeric rating [Score] - Reported","system":"http://loinc.org"}],"text":"Pain severity - 0-10 verbal numeric rating [Score] - Reported"},"context":{"reference":"Encounter/7064bb17-3a99-420f-bd37-3c4c60bc42c9"},"effectiveDateTime":"2011-09-11T11:03:29-04:00","id":"35e21fab-9f12-441e-8824-52714b9ef586","issued":"2011-09-11T11:03:29.876-04:00","meta":{"lastUpdated":"2019-04-09T10:50:50.468826+00:00","versionId":"MTU1NDgwNzA1MDQ2ODgyNjAwMA"},"resourceType":"Observation","status":"final","subject":{"reference":"Patient/00bce077-b35e-456a-aca4-4fd257f3319f"},"valueQuantity":{"code":"{score}","system":"http://unitsofmeasure.org","unit":"{score}","value":2.0516033821658883}}},{"resource":{"category":[{"coding":[{"code":"laboratory","display":"laboratory","system":"http://hl7.org/fhir/observation-category"}]}],"code":{"coding":[{"code":"32207-3","display":"Platelet distribution width [Entitic volume] in Blood by Automated count","system":"http://loinc.org"}],"text":"Platelet distribution width [Entitic volume] in Blood by Automated count"},"context":{"reference":"Encounter/7064bb17-3a99-420f-bd37-3c4c60bc42c9"},"effectiveDateTime":"2011-09-11T11:03:29-04:00","id":"3699ce58-716f-47b7-a327-528d7879801f","issued":"2011-09-11T11:03:29.876-04:00","meta":{"lastUpdated":"2019-04-09T10:50:50.468839+00:00","versionId":"MTU1NDgwNzA1MDQ2ODgzOTAwMA"},"resourceType":"Observation","status":"final","subject":{"reference":"Patient/00bce077-b35e-456a-aca4-4fd257f3319f"},"valueQuantity":{"code":"fL","system":"http://unitsofmeasure.org","unit":"fL","value":332.82631546360824}}},{"resource":{"category":[{"coding":[{"code":"vital-signs","display":"vital-signs","system":"http://hl7.org/fhir/observation-category"}]}],"code":{"coding":[{"code":"8302-2","display":"Body Height","system":"http://loinc.org"}],"text":"Body Height"},"context":{"reference":"Encounter/14c8323f-be9c-4332-91a0-174a57dd5fd2"},"effectiveDateTime":"2017-10-01T11:03:29-04:00","id":"42a170bd-10c5-4399-aa7f-2286ce3298ad","issued":"2017-10-01T11:03:29.876-04:00","meta":{"lastUpdated":"2019-04-09T10:50:50.469227+00:00","versionId":"MTU1NDgwNzA1MDQ2OTIyNzAwMA"},"resourceType":"Observation","status":"final","subject":{"reference":"Patient/00bce077-b35e-456a-aca4-4fd257f3319f"},"valueQuantity":{"code":"cm","system":"http://unitsofmeasure.org","unit":"cm","value":159.36654175582868}}},{"resource":{"category":[{"coding":[{"code":"vital-signs","display":"vital-signs","system":"http://hl7.org/fhir/observation-category"}]}],"code":{"coding":[{"code":"8302-2","display":"Body Height","system":"http://loinc.org"}],"text":"Body Height"},"context":{"reference":"Encounter/7064bb17-3a99-420f-bd37-3c4c60bc42c9"},"effectiveDateTime":"2011-09-11T11:03:29-04:00","id":"44e428f9-204e-46a3-adaa-2c8b05fe8ac2","issued":"2011-09-11T11:03:29.876-04:00","meta":{"lastUpdated":"2019-04-09T10:50:50.468828+00:00","versionId":"MTU1NDgwNzA1MDQ2ODgyODAwMA"},"resourceType":"Observation","status":"final","subject":{"reference":"Patient/00bce077-b35e-456a-aca4-4fd257f3319f"},"valueQuantity":{"code":"cm","system":"http://unitsofmeasure.org","unit":"cm","value":158.64663583656227}}},{"resource":{"category":[{"coding":[{"code":"laboratory","display":"laboratory","system":"http://hl7.org/fhir/observation-category"}]}],"code":{"coding":[{"code":"785-6","display":"MCH [Entitic mass] by Automated count","system":"http://loinc.org"}],"text":"MCH [Entitic mass] by Automated count"},"context":{"reference":"Encounter/14c8323f-be9c-4332-91a0-174a57dd5fd2"},"effectiveDateTime":"2017-10-01T11:03:29-04:00","id":"49093948-2371-4db7-afa9-5c27b914cf82","issued":"2017-10-01T11:03:29.876-04:00","meta":{"lastUpdated":"2019-04-09T12:00:35.250516+00:00","versionId":"MTU1NDgxMTIzNTI1MDUxNjAwMA"},"resourceType":"Observation","status":"final","subject":{"reference":"Patient/00bce077-b35e-456a-aca4-4fd257f3319f"},"valueQuantity":{"code":"pg","system":"http://unitsofmeasure.org","unit":"pg","value":30.359623847650667}}},{"resource":{"category":[{"coding":[{"code":"vital-signs","display":"vital-signs","system":"http://hl7.org/fhir/observation-category"}]}],"code":{"coding":[{"code":"72514-3","display":"Pain severity - 0-10 verbal numeric rating [Score] - Reported","system":"http://loinc.org"}],"text":"Pain severity - 0-10 verbal numeric rating [Score] - Reported"},"context":{"reference":"Encounter/66a840d2-4032-4494-b964-fe7d5a96ffc7"},"effectiveDateTime":"2012-09-16T11:03:29-04:00","id":"4a58d487-b75a-4c5b-91f5-3e1fd80eb7ff","issued":"2012-09-16T11:03:29.876-04:00","meta":{"lastUpdated":"2019-04-09T10:50:50.468835+00:00","versionId":"MTU1NDgwNzA1MDQ2ODgzNTAwMA"},"resourceType":"Observation","status":"final","subject":{"reference":"Patient/00bce077-b35e-456a-aca4-4fd257f3319f"},"valueQuantity":{"code":"{score}","system":"http://unitsofmeasure.org","unit":"{score}","value":3.9434382561240637}}},{"resource":{"category":[{"coding":[{"code":"laboratory","display":"laboratory","system":"http://hl7.org/fhir/observation-category"}]}],"code":{"coding":[{"code":"789-8","display":"Erythrocytes [#/volume] in Blood by Automated count","system":"http://loinc.org"}],"text":"Erythrocytes [#/volume] in Blood by Automated count"},"context":{"reference":"Encounter/7064bb17-3a99-420f-bd37-3c4c60bc42c9"},"effectiveDateTime":"2011-09-11T11:03:29-04:00","id":"4a5ed8dd-b162-46e3-8f68-e1e8692ed1de","issued":"2011-09-11T11:03:29.876-04:00","meta":{"lastUpdated":"2019-04-09T10:50:50.458560+00:00","versionId":"MTU1NDgwNzA1MDQ1ODU2MDAwMA"},"resourceType":"Observation","status":"final","subject":{"reference":"Patient/00bce077-b35e-456a-aca4-4fd257f3319f"},"valueQuantity":{"code":"10*6/uL","system":"http://unitsofmeasure.org","unit":"10*6/uL","value":4.10151254177641}}},{"resource":{"category":[{"coding":[{"code":"laboratory","display":"laboratory","system":"http://hl7.org/fhir/observation-category"}]}],"code":{"coding":[{"code":"787-2","display":"MCV [Entitic volume] by Automated count","system":"http://loinc.org"}],"text":"MCV [Entitic volume] by Automated count"},"context":{"reference":"Encounter/14c8323f-be9c-4332-91a0-174a57dd5fd2"},"effectiveDateTime":"2017-10-01T11:03:29-04:00","id":"5052b786-97a7-49f6-a5dc-860db64c3866","issued":"2017-10-01T11:03:29.876-04:00","meta":{"lastUpdated":"2019-04-09T12:00:35.192820+00:00","versionId":"MTU1NDgxMTIzNTE5MjgyMDAwMA"},"resourceType":"Observation","status":"final","subject":{"reference":"Patient/00bce077-b35e-456a-aca4-4fd257f3319f"},"valueQuantity":{"code":"fL","system":"http://unitsofmeasure.org","unit":"fL","value":84.87179641208641}}},{"resource":{"category":[{"coding":[{"code":"vital-signs","display":"vital-signs","system":"http://hl7.org/fhir/observation-category"}]}],"code":{"coding":[{"code":"55284-4","display":"Blood Pressure","system":"http://loinc.org"}],"text":"Blood Pressure"},"component":[{"code":{"coding":[{"code":"8462-4","display":"Diastolic Blood Pressure","system":"http://loinc.org"}],"text":"Diastolic Blood Pressure"},"valueQuantity":{"code":"mmHg","system":"http://unitsofmeasure.org","unit":"mmHg","value":81.1158167640503}},{"code":{"coding":[{"code":"8480-6","display":"Systolic Blood Pressure","system":"http://loinc.org"}],"text":"Systolic Blood Pressure"},"valueQuantity":{"code":"mmHg","system":"http://unitsofmeasure.org","unit":"mmHg","value":125.89051691508192}}],"context":{"reference":"Encounter/14c8323f-be9c-4332-91a0-174a57dd5fd2"},"effectiveDateTime":"2017-10-01T11:03:29-04:00","id":"54a8a8e9-7827-4100-b2cc-bd9ef54343ae","issued":"2017-10-01T11:03:29.876-04:00","meta":{"lastUpdated":"2019-04-09T12:00:35.188972+00:00","versionId":"MTU1NDgxMTIzNTE4ODk3MjAwMA"},"resourceType":"Observation","status":"final","subject":{"reference":"Patient/00bce077-b35e-456a-aca4-4fd257f3319f"}}},{"resource":{"category":[{"coding":[{"code":"vital-signs","display":"vital-signs","system":"http://hl7.org/fhir/observation-category"}]}],"code":{"coding":[{"code":"39156-5","display":"Body Mass Index","system":"http://loinc.org"}],"text":"Body Mass Index"},"context":{"reference":"Encounter/5f86b869-c64d-488f-bb39-9f44f1ca20a0"},"effectiveDateTime":"2010-09-05T11:03:29-04:00","id":"5790631f-bf3c-4131-a892-ccfb9e7c6071","issued":"2010-09-05T11:03:29.876-04:00","meta":{"lastUpdated":"2019-04-09T10:50:50.458556+00:00","versionId":"MTU1NDgwNzA1MDQ1ODU1NjAwMA"},"resourceType":"Observation","status":"final","subject":{"reference":"Patient/00bce077-b35e-456a-aca4-4fd257f3319f"},"valueQuantity":{"code":"kg/m2","system":"http://unitsofmeasure.org","unit":"kg/m2","value":23.44366322462036}}},{"resource":{"category":[{"coding":[{"code":"survey","display":"survey","system":"http://hl7.org/fhir/observation-category"}]}],"code":{"coding":[{"code":"72166-2","display":"Tobacco smoking status NHIS","system":"http://loinc.org"}],"text":"Tobacco smoking status NHIS"},"context":{"reference":"Encounter/7064bb17-3a99-420f-bd37-3c4c60bc42c9"},"effectiveDateTime":"2011-09-11T11:03:29-04:00","id":"606b1207-574d-4972-8605-3dc9b1ec8c05","issued":"2011-09-11T11:03:29.876-04:00","meta":{"lastUpdated":"2019-04-09T10:50:50.468827+00:00","versionId":"MTU1NDgwNzA1MDQ2ODgyNzAwMA"},"resourceType":"Observation","status":"final","subject":{"reference":"Patient/00bce077-b35e-456a-aca4-4fd257f3319f"},"valueCodeableConcept":{"coding":[{"code":"266919005","display":"Never smoker","system":"http://snomed.info/sct"}],"text":"Never smoker"}}},{"resource":{"category":[{"coding":[{"code":"vital-signs","display":"vital-signs","system":"http://hl7.org/fhir/observation-category"}]}],"code":{"coding":[{"code":"72514-3","display":"Pain severity - 0-10 verbal numeric rating [Score] - Reported","system":"http://loinc.org"}],"text":"Pain severity - 0-10 verbal numeric rating [Score] - Reported"},"context":{"reference":"Encounter/e09690a4-08a6-4088-b3e0-01dfc04919f7"},"effectiveDateTime":"2009-08-30T11:03:29-04:00","id":"65a726f0-955d-49d4-91c2-ae35a55fe54c","issued":"2009-08-30T11:03:29.876-04:00","meta":{"lastUpdated":"2019-04-09T10:50:50.458553+00:00","versionId":"MTU1NDgwNzA1MDQ1ODU1MzAwMA"},"resourceType":"Observation","status":"final","subject":{"reference":"Patient/00bce077-b35e-456a-aca4-4fd257f3319f"},"valueQuantity":{"code":"{score}","system":"http://unitsofmeasure.org","unit":"{score}","value":3.156713941770892}}},{"resource":{"category":[{"coding":[{"code":"vital-signs","display":"vital-signs","system":"http://hl7.org/fhir/observation-category"}]}],"code":{"coding":[{"code":"29463-7","display":"Body Weight","system":"http://loinc.org"}],"text":"Body Weight"},"context":{"reference":"Encounter/e09690a4-08a6-4088-b3e0-01dfc04919f7"},"effectiveDateTime":"2009-08-30T11:03:29-04:00","id":"662bbe76-a982-4692-b773-4cc1817395ad","issued":"2009-08-30T11:03:29.876-04:00","meta":{"lastUpdated":"2019-04-09T10:50:50.458552+00:00","versionId":"MTU1NDgwNzA1MDQ1ODU1MjAwMA"},"resourceType":"Observation","status":"final","subject":{"reference":"Patient/00bce077-b35e-456a-aca4-4fd257f3319f"},"valueQuantity":{"code":"kg","system":"http://unitsofmeasure.org","unit":"kg","value":55.80730636715023}}},{"resource":{"category":[{"coding":[{"code":"laboratory","display":"laboratory","system":"http://hl7.org/fhir/observation-category"}]}],"code":{"coding":[{"code":"787-2","display":"MCV [Entitic volume] by Automated count","system":"http://loinc.org"}],"text":"MCV [Entitic volume] by Automated count"},"context":{"reference":"Encounter/7064bb17-3a99-420f-bd37-3c4c60bc42c9"},"effectiveDateTime":"2011-09-11T11:03:29-04:00","id":"66886f80-39f5-4004-9d6e-8f52c27cbad3","issued":"2011-09-11T11:03:29.876-04:00","meta":{"lastUpdated":"2019-04-09T10:50:50.468824+00:00","versionId":"MTU1NDgwNzA1MDQ2ODgyNDAwMA"},"resourceType":"Observation","status":"final","subject":{"reference":"Patient/00bce077-b35e-456a-aca4-4fd257f3319f"},"valueQuantity":{"code":"fL","system":"http://unitsofmeasure.org","unit":"fL","value":94.9146741539557}}},{"resource":{"category":[{"coding":[{"code":"laboratory","display":"laboratory","system":"http://hl7.org/fhir/observation-category"}]}],"code":{"coding":[{"code":"6690-2","display":"Leukocytes [#/volume] in Blood by Automated count","system":"http://loinc.org"}],"text":"Leukocytes [#/volume] in Blood by Automated count"},"context":{"reference":"Encounter/7064bb17-3a99-420f-bd37-3c4c60bc42c9"},"effectiveDateTime":"2011-09-11T11:03:29-04:00","id":"66c2b603-e463-432a-97fd-29143b261472","issued":"2011-09-11T11:03:29.876-04:00","meta":{"lastUpdated":"2019-04-09T10:50:50.460056+00:00","versionId":"MTU1NDgwNzA1MDQ2MDA1NjAwMA"},"resourceType":"Observation","status":"final","subject":{"reference":"Patient/00bce077-b35e-456a-aca4-4fd257f3319f"},"valueQuantity":{"code":"10*3/uL","system":"http://unitsofmeasure.org","unit":"10*3/uL","value":5.381466046318362}}},{"resource":{"category":[{"coding":[{"code":"laboratory","display":"laboratory","system":"http://hl7.org/fhir/observation-category"}]}],"code":{"coding":[{"code":"21000-5","display":"Erythrocyte distribution width [Entitic volume] by Automated count","system":"http://loinc.org"}],"text":"Erythrocyte distribution width [Entitic volume] by Automated count"},"context":{"reference":"Encounter/7064bb17-3a99-420f-bd37-3c4c60bc42c9"},"effectiveDateTime":"2011-09-11T11:03:29-04:00","id":"6bae2afe-7abd-41d4-a92d-c597b5d729df","issued":"2011-09-11T11:03:29.876-04:00","meta":{"lastUpdated":"2019-04-09T10:50:50.468840+00:00","versionId":"MTU1NDgwNzA1MDQ2ODg0MDAwMA"},"resourceType":"Observation","status":"final","subject":{"reference":"Patient/00bce077-b35e-456a-aca4-4fd257f3319f"},"valueQuantity":{"code":"fL","system":"http://unitsofmeasure.org","unit":"fL","value":41.715452796047956}}},{"resource":{"category":[{"coding":[{"code":"survey","display":"survey","system":"http://hl7.org/fhir/observation-category"}]}],"code":{"coding":[{"code":"72166-2","display":"Tobacco smoking status NHIS","system":"http://loinc.org"}],"text":"Tobacco smoking status NHIS"},"context":{"reference":"Encounter/14c8323f-be9c-4332-91a0-174a57dd5fd2"},"effectiveDateTime":"2017-10-01T11:03:29-04:00","id":"6fd10b6c-1e2e-4540-9553-93c1da47c1d9","issued":"2017-10-01T11:03:29.876-04:00","meta":{"lastUpdated":"2019-04-09T12:00:35.179231+00:00","versionId":"MTU1NDgxMTIzNTE3OTIzMTAwMA"},"resourceType":"Observation","status":"final","subject":{"reference":"Patient/00bce077-b35e-456a-aca4-4fd257f3319f"},"valueCodeableConcept":{"coding":[{"code":"266919005","display":"Never smoker","system":"http://snomed.info/sct"}],"text":"Never smoker"}}},{"resource":{"category":[{"coding":[{"code":"survey","display":"survey","system":"http://hl7.org/fhir/observation-category"}]}],"code":{"coding":[{"code":"72166-2","display":"Tobacco smoking status NHIS","system":"http://loinc.org"}],"text":"Tobacco smoking status NHIS"},"context":{"reference":"Encounter/baa23348-755d-4139-90aa-20c899d518f2"},"effectiveDateTime":"2013-09-22T11:03:29-04:00","id":"7076ca2b-40ab-428e-898f-6ded5b42dd04","issued":"2013-09-22T11:03:29.876-04:00","meta":{"lastUpdated":"2019-04-09T10:50:50.471422+00:00","versionId":"MTU1NDgwNzA1MDQ3MTQyMjAwMA"},"resourceType":"Observation","status":"final","subject":{"reference":"Patient/00bce077-b35e-456a-aca4-4fd257f3319f"},"valueCodeableConcept":{"coding":[{"code":"266919005","display":"Never smoker","system":"http://snomed.info/sct"}],"text":"Never smoker"}}},{"resource":{"category":[{"coding":[{"code":"vital-signs","display":"vital-signs","system":"http://hl7.org/fhir/observation-category"}]}],"code":{"coding":[{"code":"72514-3","display":"Pain severity - 0-10 verbal numeric rating [Score] - Reported","system":"http://loinc.org"}],"text":"Pain severity - 0-10 verbal numeric rating [Score] - Reported"},"context":{"reference":"Encounter/5f86b869-c64d-488f-bb39-9f44f1ca20a0"},"effectiveDateTime":"2010-09-05T11:03:29-04:00","id":"745e97d6-15a1-4820-a8fa-acc783c375e5","issued":"2010-09-05T11:03:29.876-04:00","meta":{"lastUpdated":"2019-04-09T10:50:50.462915+00:00","versionId":"MTU1NDgwNzA1MDQ2MjkxNTAwMA"},"resourceType":"Observation","status":"final","subject":{"reference":"Patient/00bce077-b35e-456a-aca4-4fd257f3319f"},"valueQuantity":{"code":"{score}","system":"http://unitsofmeasure.org","unit":"{score}","value":0.3834009317887679}}},{"resource":{"category":[{"coding":[{"code":"vital-signs","display":"vital-signs","system":"http://hl7.org/fhir/observation-category"}]}],"code":{"coding":[{"code":"39156-5","display":"Body Mass Index","system":"http://loinc.org"}],"text":"Body Mass Index"},"context":{"reference":"Encounter/66a840d2-4032-4494-b964-fe7d5a96ffc7"},"effectiveDateTime":"2012-09-16T11:03:29-04:00","id":"7973e7be-d495-468a-99a9-a3afa43ee555","issued":"2012-09-16T11:03:29.876-04:00","meta":{"lastUpdated":"2019-04-09T10:50:50.461393+00:00","versionId":"MTU1NDgwNzA1MDQ2MTM5MzAwMA"},"resourceType":"Observation","status":"final","subject":{"reference":"Patient/00bce077-b35e-456a-aca4-4fd257f3319f"},"valueQuantity":{"code":"kg/m2","system":"http://unitsofmeasure.org","unit":"kg/m2","value":24.313097758239167}}},{"resource":{"category":[{"coding":[{"code":"vital-signs","display":"vital-signs","system":"http://hl7.org/fhir/observation-category"}]}],"code":{"coding":[{"code":"72514-3","display":"Pain severity - 0-10 verbal numeric rating [Score] - Reported","system":"http://loinc.org"}],"text":"Pain severity - 0-10 verbal numeric rating [Score] - Reported"},"context":{"reference":"Encounter/14c8323f-be9c-4332-91a0-174a57dd5fd2"},"effectiveDateTime":"2017-10-01T11:03:29-04:00","id":"7fb2c5ba-f4d1-46f0-b114-b41608a7d15a","issued":"2017-10-01T11:03:29.876-04:00","meta":{"lastUpdated":"2019-04-09T10:50:50.469228+00:00","versionId":"MTU1NDgwNzA1MDQ2OTIyODAwMA"},"resourceType":"Observation","status":"final","subject":{"reference":"Patient/00bce077-b35e-456a-aca4-4fd257f3319f"},"valueQuantity":{"code":"{score}","system":"http://unitsofmeasure.org","unit":"{score}","value":1.0911059737839328}}},{"resource":{"category":[{"coding":[{"code":"vital-signs","display":"vital-signs","system":"http://hl7.org/fhir/observation-category"}]}],"code":{"coding":[{"code":"55284-4","display":"Blood Pressure","system":"http://loinc.org"}],"text":"Blood Pressure"},"component":[{"code":{"coding":[{"code":"8462-4","display":"Diastolic Blood Pressure","system":"http://loinc.org"}],"text":"Diastolic Blood Pressure"},"valueQuantity":{"code":"mmHg","system":"http://unitsofmeasure.org","unit":"mmHg","value":85.94086098461099}},{"code":{"coding":[{"code":"8480-6","display":"Systolic Blood Pressure","system":"http://loinc.org"}],"text":"Systolic Blood Pressure"},"valueQuantity":{"code":"mmHg","system":"http://unitsofmeasure.org","unit":"mmHg","value":118.01387489323585}}],"context":{"reference":"Encounter/baa23348-755d-4139-90aa-20c899d518f2"},"effectiveDateTime":"2013-09-22T11:03:29-04:00","id":"86d071f6-05b2-4d01-9f9f-2170dbcc3424","issued":"2013-09-22T11:03:29.876-04:00","meta":{"lastUpdated":"2019-04-09T10:50:50.469222+00:00","versionId":"MTU1NDgwNzA1MDQ2OTIyMjAwMA"},"resourceType":"Observation","status":"final","subject":{"reference":"Patient/00bce077-b35e-456a-aca4-4fd257f3319f"}}},{"resource":{"category":[{"coding":[{"code":"vital-signs","display":"vital-signs","system":"http://hl7.org/fhir/observation-category"}]}],"code":{"coding":[{"code":"39156-5","display":"Body Mass Index","system":"http://loinc.org"}],"text":"Body Mass Index"},"context":{"reference":"Encounter/e09690a4-08a6-4088-b3e0-01dfc04919f7"},"effectiveDateTime":"2009-08-30T11:03:29-04:00","id":"8802a92e-b4e9-498b-a32c-c9c01c88c164","issued":"2009-08-30T11:03:29.876-04:00","meta":{"lastUpdated":"2019-04-09T10:50:50.458554+00:00","versionId":"MTU1NDgwNzA1MDQ1ODU1NDAwMA"},"resourceType":"Observation","status":"final","subject":{"reference":"Patient/00bce077-b35e-456a-aca4-4fd257f3319f"},"valueQuantity":{"code":"kg/m2","system":"http://unitsofmeasure.org","unit":"kg/m2","value":22.80042544650367}}},{"resource":{"category":[{"coding":[{"code":"laboratory","display":"laboratory","system":"http://hl7.org/fhir/observation-category"}]}],"code":{"coding":[{"code":"32207-3","display":"Platelet distribution width [Entitic volume] in Blood by Automated count","system":"http://loinc.org"}],"text":"Platelet distribution width [Entitic volume] in Blood by Automated count"},"context":{"reference":"Encounter/14c8323f-be9c-4332-91a0-174a57dd5fd2"},"effectiveDateTime":"2017-10-01T11:03:29-04:00","id":"8ae654d4-b27a-4933-8e34-efb62cdbabeb","issued":"2017-10-01T11:03:29.876-04:00","meta":{"lastUpdated":"2019-04-09T12:00:35.182703+00:00","versionId":"MTU1NDgxMTIzNTE4MjcwMzAwMA"},"resourceType":"Observation","status":"final","subject":{"reference":"Patient/00bce077-b35e-456a-aca4-4fd257f3319f"},"valueQuantity":{"code":"fL","system":"http://unitsofmeasure.org","unit":"fL","value":290.7571273536173}}},{"resource":{"category":[{"coding":[{"code":"laboratory","display":"laboratory","system":"http://hl7.org/fhir/observation-category"}]}],"code":{"coding":[{"code":"4544-3","display":"Hematocrit [Volume Fraction] of Blood by Automated count","system":"http://loinc.org"}],"text":"Hematocrit [Volume Fraction] of Blood by Automated count"},"context":{"reference":"Encounter/14c8323f-be9c-4332-91a0-174a57dd5fd2"},"effectiveDateTime":"2017-10-01T11:03:29-04:00","id":"9198d395-dec3-4417-b50e-11ca6357db2b","issued":"2017-10-01T11:03:29.876-04:00","meta":{"lastUpdated":"2019-04-09T12:00:35.185576+00:00","versionId":"MTU1NDgxMTIzNTE4NTU3NjAwMA"},"resourceType":"Observation","status":"final","subject":{"reference":"Patient/00bce077-b35e-456a-aca4-4fd257f3319f"},"valueQuantity":{"code":"%","system":"http://unitsofmeasure.org","unit":"%","value":47.29423237817034}}},{"resource":{"category":[{"coding":[{"code":"laboratory","display":"laboratory","system":"http://hl7.org/fhir/observation-category"}]}],"code":{"coding":[{"code":"6690-2","display":"Leukocytes [#/volume] in Blood by Automated count","system":"http://loinc.org"}],"text":"Leukocytes [#/volume] in Blood by Automated count"},"context":{"reference":"Encounter/14c8323f-be9c-4332-91a0-174a57dd5fd2"},"effectiveDateTime":"2017-10-01T11:03:29-04:00","id":"929d75c1-40ef-4aad-a8d6-27415ba86ac3","issued":"2017-10-01T11:03:29.876-04:00","meta":{"lastUpdated":"2019-04-09T12:00:35.189322+00:00","versionId":"MTU1NDgxMTIzNTE4OTMyMjAwMA"},"resourceType":"Observation","status":"final","subject":{"reference":"Patient/00bce077-b35e-456a-aca4-4fd257f3319f"},"valueQuantity":{"code":"10*3/uL","system":"http://unitsofmeasure.org","unit":"10*3/uL","value":5.725347777635513}}},{"resource":{"category":[{"coding":[{"code":"vital-signs","display":"vital-signs","system":"http://hl7.org/fhir/observation-category"}]}],"code":{"coding":[{"code":"55284-4","display":"Blood Pressure","system":"http://loinc.org"}],"text":"Blood Pressure"},"component":[{"code":{"coding":[{"code":"8462-4","display":"Diastolic Blood Pressure","system":"http://loinc.org"}],"text":"Diastolic Blood Pressure"},"valueQuantity":{"code":"mmHg","system":"http://unitsofmeasure.org","unit":"mmHg","value":87.21494703596352}},{"code":{"coding":[{"code":"8480-6","display":"Systolic Blood Pressure","system":"http://loinc.org"}],"text":"Systolic Blood Pressure"},"valueQuantity":{"code":"mmHg","system":"http://unitsofmeasure.org","unit":"mmHg","value":136.9549002564676}}],"context":{"reference":"Encounter/7064bb17-3a99-420f-bd37-3c4c60bc42c9"},"effectiveDateTime":"2011-09-11T11:03:29-04:00","id":"944621ff-53ce-4174-98c6-1d75bb7bf217","issued":"2011-09-11T11:03:29.876-04:00","meta":{"lastUpdated":"2019-04-09T10:50:50.460768+00:00","versionId":"MTU1NDgwNzA1MDQ2MDc2ODAwMA"},"resourceType":"Observation","status":"final","subject":{"reference":"Patient/00bce077-b35e-456a-aca4-4fd257f3319f"}}},{"resource":{"category":[{"coding":[{"code":"vital-signs","display":"vital-signs","system":"http://hl7.org/fhir/observation-category"}]}],"code":{"coding":[{"code":"8302-2","display":"Body Height","system":"http://loinc.org"}],"text":"Body Height"},"context":{"reference":"Encounter/66a840d2-4032-4494-b964-fe7d5a96ffc7"},"effectiveDateTime":"2012-09-16T11:03:29-04:00","id":"9c47d756-610e-47b6-94cd-9d5fb709c3ce","issued":"2012-09-16T11:03:29.876-04:00","meta":{"lastUpdated":"2019-04-09T10:50:50.468838+00:00","versionId":"MTU1NDgwNzA1MDQ2ODgzODAwMA"},"resourceType":"Observation","status":"final","subject":{"reference":"Patient/00bce077-b35e-456a-aca4-4fd257f3319f"},"valueQuantity":{"code":"cm","system":"http://unitsofmeasure.org","unit":"cm","value":158.9819560544786}}},{"resource":{"category":[{"coding":[{"code":"survey","display":"survey","system":"http://hl7.org/fhir/observation-category"}]}],"code":{"coding":[{"code":"72166-2","display":"Tobacco smoking status NHIS","system":"http://loinc.org"}],"text":"Tobacco smoking status NHIS"},"context":{"reference":"Encounter/66a840d2-4032-4494-b964-fe7d5a96ffc7"},"effectiveDateTime":"2012-09-16T11:03:29-04:00","id":"9d59e461-006e-4137-8dd8-abed80cbaf7a","issued":"2012-09-16T11:03:29.876-04:00","meta":{"lastUpdated":"2019-04-09T10:50:50.460351+00:00","versionId":"MTU1NDgwNzA1MDQ2MDM1MTAwMA"},"resourceType":"Observation","status":"final","subject":{"reference":"Patient/00bce077-b35e-456a-aca4-4fd257f3319f"},"valueCodeableConcept":{"coding":[{"code":"266919005","display":"Never smoker","system":"http://snomed.info/sct"}],"text":"Never smoker"}}},{"resource":{"category":[{"coding":[{"code":"vital-signs","display":"vital-signs","system":"http://hl7.org/fhir/observation-category"}]}],"code":{"coding":[{"code":"29463-7","display":"Body Weight","system":"http://loinc.org"}],"text":"Body Weight"},"context":{"reference":"Encounter/14c8323f-be9c-4332-91a0-174a57dd5fd2"},"effectiveDateTime":"2017-10-01T11:03:29-04:00","id":"aba995fc-2562-4645-88e9-8a185a576e22","issued":"2017-10-01T11:03:29.876-04:00","meta":{"lastUpdated":"2019-04-09T12:00:35.192195+00:00","versionId":"MTU1NDgxMTIzNTE5MjE5NTAwMA"},"resourceType":"Observation","status":"final","subject":{"reference":"Patient/00bce077-b35e-456a-aca4-4fd257f3319f"},"valueQuantity":{"code":"kg","system":"http://unitsofmeasure.org","unit":"kg","value":68.56223656100997}}},{"resource":{"category":[{"coding":[{"code":"laboratory","display":"laboratory","system":"http://hl7.org/fhir/observation-category"}]}],"code":{"coding":[{"code":"718-7","display":"Hemoglobin [Mass/volume] in Blood","system":"http://loinc.org"}],"text":"Hemoglobin [Mass/volume] in Blood"},"context":{"reference":"Encounter/14c8323f-be9c-4332-91a0-174a57dd5fd2"},"effectiveDateTime":"2017-10-01T11:03:29-04:00","id":"ae59b377-20e3-4014-97f3-7f321c36b17f","issued":"2017-10-01T11:03:29.876-04:00","meta":{"lastUpdated":"2019-04-09T12:00:35.191885+00:00","versionId":"MTU1NDgxMTIzNTE5MTg4NTAwMA"},"resourceType":"Observation","status":"final","subject":{"reference":"Patient/00bce077-b35e-456a-aca4-4fd257f3319f"},"valueQuantity":{"code":"g/dL","system":"http://unitsofmeasure.org","unit":"g/dL","value":13.19750332324133}}},{"resource":{"category":[{"coding":[{"code":"vital-signs","display":"vital-signs","system":"http://hl7.org/fhir/observation-category"}]}],"code":{"coding":[{"code":"39156-5","display":"Body Mass Index","system":"http://loinc.org"}],"text":"Body Mass Index"},"context":{"reference":"Encounter/14c8323f-be9c-4332-91a0-174a57dd5fd2"},"effectiveDateTime":"2017-10-01T11:03:29-04:00","id":"b0fa2a7e-45ab-4086-b58b-195e847d2c6f","issued":"2017-10-01T11:03:29.876-04:00","meta":{"lastUpdated":"2019-04-09T12:00:35.177818+00:00","versionId":"MTU1NDgxMTIzNTE3NzgxODAwMA"},"resourceType":"Observation","status":"final","subject":{"reference":"Patient/00bce077-b35e-456a-aca4-4fd257f3319f"},"valueQuantity":{"code":"kg/m2","system":"http://unitsofmeasure.org","unit":"kg/m2","value":26.99545669658969}}},{"resource":{"category":[{"coding":[{"code":"vital-signs","display":"vital-signs","system":"http://hl7.org/fhir/observation-category"}]}],"code":{"coding":[{"code":"29463-7","display":"Body Weight","system":"http://loinc.org"}],"text":"Body Weight"},"context":{"reference":"Encounter/bcdd1122-68e9-4727-9d4c-f158dd19790a"},"effectiveDateTime":"2014-09-28T11:03:29-04:00","id":"b732fb8c-9ea7-49ad-8a02-3859f81c9d61","issued":"2014-09-28T11:03:29.876-04:00","meta":{"lastUpdated":"2019-04-09T10:50:50.469219+00:00","versionId":"MTU1NDgwNzA1MDQ2OTIxOTAwMA"},"resourceType":"Observation","status":"final","subject":{"reference":"Patient/00bce077-b35e-456a-aca4-4fd257f3319f"},"valueQuantity":{"code":"kg","system":"http://unitsofmeasure.org","unit":"kg","value":63.896948672985225}}},{"resource":{"category":[{"coding":[{"code":"vital-signs","display":"vital-signs","system":"http://hl7.org/fhir/observation-category"}]}],"code":{"coding":[{"code":"29463-7","display":"Body Weight","system":"http://loinc.org"}],"text":"Body Weight"},"context":{"reference":"Encounter/66a840d2-4032-4494-b964-fe7d5a96ffc7"},"effectiveDateTime":"2012-09-16T11:03:29-04:00","id":"b7b9c6d7-92d8-4aa9-ae85-bef3cbe65102","issued":"2012-09-16T11:03:29.876-04:00","meta":{"lastUpdated":"2019-04-09T10:50:50.458561+00:00","versionId":"MTU1NDgwNzA1MDQ1ODU2MTAwMA"},"resourceType":"Observation","status":"final","subject":{"reference":"Patient/00bce077-b35e-456a-aca4-4fd257f3319f"},"valueQuantity":{"code":"kg","system":"http://unitsofmeasure.org","unit":"kg","value":61.451992440277195}}},{"resource":{"category":[{"coding":[{"code":"laboratory","display":"laboratory","system":"http://hl7.org/fhir/observation-category"}]}],"code":{"coding":[{"code":"789-8","display":"Erythrocytes [#/volume] in Blood by Automated count","system":"http://loinc.org"}],"text":"Erythrocytes [#/volume] in Blood by Automated count"},"context":{"reference":"Encounter/14c8323f-be9c-4332-91a0-174a57dd5fd2"},"effectiveDateTime":"2017-10-01T11:03:29-04:00","id":"bc763085-bd86-4108-a750-6a3d2c1bff83","issued":"2017-10-01T11:03:29.876-04:00","meta":{"lastUpdated":"2019-04-09T12:00:35.242587+00:00","versionId":"MTU1NDgxMTIzNTI0MjU4NzAwMA"},"resourceType":"Observation","status":"final","subject":{"reference":"Patient/00bce077-b35e-456a-aca4-4fd257f3319f"},"valueQuantity":{"code":"10*6/uL","system":"http://unitsofmeasure.org","unit":"10*6/uL","value":5.373390659546846}}},{"resource":{"category":[{"coding":[{"code":"vital-signs","display":"vital-signs","system":"http://hl7.org/fhir/observation-category"}]}],"code":{"coding":[{"code":"29463-7","display":"Body Weight","system":"http://loinc.org"}],"text":"Body Weight"},"context":{"reference":"Encounter/7064bb17-3a99-420f-bd37-3c4c60bc42c9"},"effectiveDateTime":"2011-09-11T11:03:29-04:00","id":"bfdea2e3-82e1-4646-af3a-666287a0f74e","issued":"2011-09-11T11:03:29.876-04:00","meta":{"lastUpdated":"2019-04-09T10:50:50.468829+00:00","versionId":"MTU1NDgwNzA1MDQ2ODgyOTAwMA"},"resourceType":"Observation","status":"final","subject":{"reference":"Patient/00bce077-b35e-456a-aca4-4fd257f3319f"},"valueQuantity":{"code":"kg","system":"http://unitsofmeasure.org","unit":"kg","value":60.30604243951122}}},{"resource":{"category":[{"coding":[{"code":"laboratory","display":"laboratory","system":"http://hl7.org/fhir/observation-category"}]}],"code":{"coding":[{"code":"777-3","display":"Platelets [#/volume] in Blood by Automated count","system":"http://loinc.org"}],"text":"Platelets [#/volume] in Blood by Automated count"},"context":{"reference":"Encounter/7064bb17-3a99-420f-bd37-3c4c60bc42c9"},"effectiveDateTime":"2011-09-11T11:03:29-04:00","id":"c26e39d0-20ab-4b98-a460-5a0fe107603b","issued":"2011-09-11T11:03:29.876-04:00","meta":{"lastUpdated":"2019-04-09T10:50:50.460115+00:00","versionId":"MTU1NDgwNzA1MDQ2MDExNTAwMA"},"resourceType":"Observation","status":"final","subject":{"reference":"Patient/00bce077-b35e-456a-aca4-4fd257f3319f"},"valueQuantity":{"code":"10*3/uL","system":"http://unitsofmeasure.org","unit":"10*3/uL","value":362.73776676048}}},{"resource":{"category":[{"coding":[{"code":"laboratory","display":"laboratory","system":"http://hl7.org/fhir/observation-category"}]}],"code":{"coding":[{"code":"785-6","display":"MCH [Entitic mass] by Automated count","system":"http://loinc.org"}],"text":"MCH [Entitic mass] by Automated count"},"context":{"reference":"Encounter/7064bb17-3a99-420f-bd37-3c4c60bc42c9"},"effectiveDateTime":"2011-09-11T11:03:29-04:00","id":"c6701f4c-8abc-4afc-aea9-74980931b1e5","issued":"2011-09-11T11:03:29.876-04:00","meta":{"lastUpdated":"2019-04-09T10:50:50.461253+00:00","versionId":"MTU1NDgwNzA1MDQ2MTI1MzAwMA"},"resourceType":"Observation","status":"final","subject":{"reference":"Patient/00bce077-b35e-456a-aca4-4fd257f3319f"},"valueQuantity":{"code":"pg","system":"http://unitsofmeasure.org","unit":"pg","value":27.69537330723847}}},{"resource":{"category":[{"coding":[{"code":"laboratory","display":"laboratory","system":"http://hl7.org/fhir/observation-category"}]}],"code":{"coding":[{"code":"777-3","display":"Platelets [#/volume] in Blood by Automated count","system":"http://loinc.org"}],"text":"Platelets [#/volume] in Blood by Automated count"},"context":{"reference":"Encounter/14c8323f-be9c-4332-91a0-174a57dd5fd2"},"effectiveDateTime":"2017-10-01T11:03:29-04:00","id":"ca023dae-600d-4f24-b853-df33f0e25bb6","issued":"2017-10-01T11:03:29.876-04:00","meta":{"lastUpdated":"2019-04-09T12:00:35.182201+00:00","versionId":"MTU1NDgxMTIzNTE4MjIwMTAwMA"},"resourceType":"Observation","status":"final","subject":{"reference":"Patient/00bce077-b35e-456a-aca4-4fd257f3319f"},"valueQuantity":{"code":"10*3/uL","system":"http://unitsofmeasure.org","unit":"10*3/uL","value":157.382036152981}}},{"resource":{"category":[{"coding":[{"code":"vital-signs","display":"vital-signs","system":"http://hl7.org/fhir/observation-category"}]}],"code":{"coding":[{"code":"29463-7","display":"Body Weight","system":"http://loinc.org"}],"text":"Body Weight"},"context":{"reference":"Encounter/baa23348-755d-4139-90aa-20c899d518f2"},"effectiveDateTime":"2013-09-22T11:03:29-04:00","id":"cd00ce11-4957-497f-b43b-fc2b2afacf63","issued":"2013-09-22T11:03:29.876-04:00","meta":{"lastUpdated":"2019-04-09T10:50:50.469221+00:00","versionId":"MTU1NDgwNzA1MDQ2OTIyMTAwMA"},"resourceType":"Observation","status":"final","subject":{"reference":"Patient/00bce077-b35e-456a-aca4-4fd257f3319f"},"valueQuantity":{"code":"kg","system":"http://unitsofmeasure.org","unit":"kg","value":62.57201742987371}}},{"resource":{"category":[{"coding":[{"code":"vital-signs","display":"vital-signs","system":"http://hl7.org/fhir/observation-category"}]}],"code":{"coding":[{"code":"72514-3","display":"Pain severity - 0-10 verbal numeric rating [Score] - Reported","system":"http://loinc.org"}],"text":"Pain severity - 0-10 verbal numeric rating [Score] - Reported"},"context":{"reference":"Encounter/baa23348-755d-4139-90aa-20c899d518f2"},"effectiveDateTime":"2013-09-22T11:03:29-04:00","id":"ce1075df-328e-4647-a008-d55d12d0e7b1","issued":"2013-09-22T11:03:29.876-04:00","meta":{"lastUpdated":"2019-04-09T10:50:50.469216+00:00","versionId":"MTU1NDgwNzA1MDQ2OTIxNjAwMA"},"resourceType":"Observation","status":"final","subject":{"reference":"Patient/00bce077-b35e-456a-aca4-4fd257f3319f"},"valueQuantity":{"code":"{score}","system":"http://unitsofmeasure.org","unit":"{score}","value":3.6012772082216262}}},{"resource":{"category":[{"coding":[{"code":"vital-signs","display":"vital-signs","system":"http://hl7.org/fhir/observation-category"}]}],"code":{"coding":[{"code":"55284-4","display":"Blood Pressure","system":"http://loinc.org"}],"text":"Blood Pressure"},"component":[{"code":{"coding":[{"code":"8462-4","display":"Diastolic Blood Pressure","system":"http://loinc.org"}],"text":"Diastolic Blood Pressure"},"valueQuantity":{"code":"mmHg","system":"http://unitsofmeasure.org","unit":"mmHg","value":71.4173156356362}},{"code":{"coding":[{"code":"8480-6","display":"Systolic Blood Pressure","system":"http://loinc.org"}],"text":"Systolic Blood Pressure"},"valueQuantity":{"code":"mmHg","system":"http://unitsofmeasure.org","unit":"mmHg","value":126.3812948655428}}],"context":{"reference":"Encounter/66a840d2-4032-4494-b964-fe7d5a96ffc7"},"effectiveDateTime":"2012-09-16T11:03:29-04:00","id":"d3bdafe1-863f-44aa-8f73-87d5117f6128","issued":"2012-09-16T11:03:29.876-04:00","meta":{"lastUpdated":"2019-04-09T10:50:50.460763+00:00","versionId":"MTU1NDgwNzA1MDQ2MDc2MzAwMA"},"resourceType":"Observation","status":"final","subject":{"reference":"Patient/00bce077-b35e-456a-aca4-4fd257f3319f"}}},{"resource":{"category":[{"coding":[{"code":"vital-signs","display":"vital-signs","system":"http://hl7.org/fhir/observation-category"}]}],"code":{"coding":[{"code":"29463-7","display":"Body Weight","system":"http://loinc.org"}],"text":"Body Weight"},"context":{"reference":"Encounter/5f86b869-c64d-488f-bb39-9f44f1ca20a0"},"effectiveDateTime":"2010-09-05T11:03:29-04:00","id":"db001ab0-e801-4922-9fe7-6dd7def98b00","issued":"2010-09-05T11:03:29.876-04:00","meta":{"lastUpdated":"2019-04-09T10:50:50.458559+00:00","versionId":"MTU1NDgwNzA1MDQ1ODU1OTAwMA"},"resourceType":"Observation","status":"final","subject":{"reference":"Patient/00bce077-b35e-456a-aca4-4fd257f3319f"},"valueQuantity":{"code":"kg","system":"http://unitsofmeasure.org","unit":"kg","value":58.47292575314247}}},{"resource":{"category":[{"coding":[{"code":"survey","display":"survey","system":"http://hl7.org/fhir/observation-category"}]}],"code":{"coding":[{"code":"72166-2","display":"Tobacco smoking status NHIS","system":"http://loinc.org"}],"text":"Tobacco smoking status NHIS"},"context":{"reference":"Encounter/bcdd1122-68e9-4727-9d4c-f158dd19790a"},"effectiveDateTime":"2014-09-28T11:03:29-04:00","id":"df0ad812-5a80-43b9-9110-b5ca2f002fbe","issued":"2014-09-28T11:03:29.876-04:00","meta":{"lastUpdated":"2019-04-09T10:50:50.471425+00:00","versionId":"MTU1NDgwNzA1MDQ3MTQyNTAwMA"},"resourceType":"Observation","status":"final","subject":{"reference":"Patient/00bce077-b35e-456a-aca4-4fd257f3319f"},"valueCodeableConcept":{"coding":[{"code":"266919005","display":"Never smoker","system":"http://snomed.info/sct"}],"text":"Never smoker"}}},{"resource":{"category":[{"coding":[{"code":"vital-signs","display":"vital-signs","system":"http://hl7.org/fhir/observation-category"}]}],"code":{"coding":[{"code":"39156-5","display":"Body Mass Index","system":"http://loinc.org"}],"text":"Body Mass Index"},"context":{"reference":"Encounter/bcdd1122-68e9-4727-9d4c-f158dd19790a"},"effectiveDateTime":"2014-09-28T11:03:29-04:00","id":"e1ef7845-e9bd-48d9-9f69-fd71e2595341","issued":"2014-09-28T11:03:29.876-04:00","meta":{"lastUpdated":"2019-04-09T10:50:50.469223+00:00","versionId":"MTU1NDgwNzA1MDQ2OTIyMzAwMA"},"resourceType":"Observation","status":"final","subject":{"reference":"Patient/00bce077-b35e-456a-aca4-4fd257f3319f"},"valueQuantity":{"code":"kg/m2","system":"http://unitsofmeasure.org","unit":"kg/m2","value":25.179817807735752}}},{"resource":{"category":[{"coding":[{"code":"vital-signs","display":"vital-signs","system":"http://hl7.org/fhir/observation-category"}]}],"code":{"coding":[{"code":"55284-4","display":"Blood Pressure","system":"http://loinc.org"}],"text":"Blood Pressure"},"component":[{"code":{"coding":[{"code":"8462-4","display":"Diastolic Blood Pressure","system":"http://loinc.org"}],"text":"Diastolic Blood Pressure"},"valueQuantity":{"code":"mmHg","system":"http://unitsofmeasure.org","unit":"mmHg","value":87.26533315500492}},{"code":{"coding":[{"code":"8480-6","display":"Systolic Blood Pressure","system":"http://loinc.org"}],"text":"Systolic Blood Pressure"},"valueQuantity":{"code":"mmHg","system":"http://unitsofmeasure.org","unit":"mmHg","value":102.06987152990399}}],"context":{"reference":"Encounter/bcdd1122-68e9-4727-9d4c-f158dd19790a"},"effectiveDateTime":"2014-09-28T11:03:29-04:00","id":"e4601543-aa56-4404-a05c-1c01d74faef7","issued":"2014-09-28T11:03:29.876-04:00","meta":{"lastUpdated":"2019-04-09T10:50:50.471423+00:00","versionId":"MTU1NDgwNzA1MDQ3MTQyMzAwMA"},"resourceType":"Observation","status":"final","subject":{"reference":"Patient/00bce077-b35e-456a-aca4-4fd257f3319f"}}},{"resource":{"category":[{"coding":[{"code":"laboratory","display":"laboratory","system":"http://hl7.org/fhir/observation-category"}]}],"code":{"coding":[{"code":"786-4","display":"MCHC [Mass/volume] by Automated count","system":"http://loinc.org"}],"text":"MCHC [Mass/volume] by Automated count"},"context":{"reference":"Encounter/7064bb17-3a99-420f-bd37-3c4c60bc42c9"},"effectiveDateTime":"2011-09-11T11:03:29-04:00","id":"e4aa3c32-89e6-4bb9-b1ab-5265ecc078aa","issued":"2011-09-11T11:03:29.876-04:00","meta":{"lastUpdated":"2019-04-09T10:50:50.460523+00:00","versionId":"MTU1NDgwNzA1MDQ2MDUyMzAwMA"},"resourceType":"Observation","status":"final","subject":{"reference":"Patient/00bce077-b35e-456a-aca4-4fd257f3319f"},"valueQuantity":{"code":"g/dL","system":"http://unitsofmeasure.org","unit":"g/dL","value":34.513046755467556}}},{"resource":{"category":[{"coding":[{"code":"vital-signs","display":"vital-signs","system":"http://hl7.org/fhir/observation-category"}]}],"code":{"coding":[{"code":"55284-4","display":"Blood Pressure","system":"http://loinc.org"}],"text":"Blood Pressure"},"component":[{"code":{"coding":[{"code":"8462-4","display":"Diastolic Blood Pressure","system":"http://loinc.org"}],"text":"Diastolic Blood Pressure"},"valueQuantity":{"code":"mmHg","system":"http://unitsofmeasure.org","unit":"mmHg","value":79.3633125793532}},{"code":{"coding":[{"code":"8480-6","display":"Systolic Blood Pressure","system":"http://loinc.org"}],"text":"Systolic Blood Pressure"},"valueQuantity":{"code":"mmHg","system":"http://unitsofmeasure.org","unit":"mmHg","value":134.21801050826855}}],"context":{"reference":"Encounter/5f86b869-c64d-488f-bb39-9f44f1ca20a0"},"effectiveDateTime":"2010-09-05T11:03:29-04:00","id":"e88e29db-bd54-49b6-af86-ee43db210ea1","issued":"2010-09-05T11:03:29.876-04:00","meta":{"lastUpdated":"2019-04-09T10:50:50.460451+00:00","versionId":"MTU1NDgwNzA1MDQ2MDQ1MTAwMA"},"resourceType":"Observation","status":"final","subject":{"reference":"Patient/00bce077-b35e-456a-aca4-4fd257f3319f"}}},{"resource":{"category":[{"coding":[{"code":"survey","display":"survey","system":"http://hl7.org/fhir/observation-category"}]}],"code":{"coding":[{"code":"72166-2","display":"Tobacco smoking status NHIS","system":"http://loinc.org"}],"text":"Tobacco smoking status NHIS"},"context":{"reference":"Encounter/e09690a4-08a6-4088-b3e0-01dfc04919f7"},"effectiveDateTime":"2009-08-30T11:03:29-04:00","id":"f07adef2-4e7c-4678-83ab-8b58b6843b57","issued":"2009-08-30T11:03:29.876-04:00","meta":{"lastUpdated":"2019-04-09T10:50:50.459661+00:00","versionId":"MTU1NDgwNzA1MDQ1OTY2MTAwMA"},"resourceType":"Observation","status":"final","subject":{"reference":"Patient/00bce077-b35e-456a-aca4-4fd257f3319f"},"valueCodeableConcept":{"coding":[{"code":"266919005","display":"Never smoker","system":"http://snomed.info/sct"}],"text":"Never smoker"}}},{"resource":{"category":[{"coding":[{"code":"vital-signs","display":"vital-signs","system":"http://hl7.org/fhir/observation-category"}]}],"code":{"coding":[{"code":"8302-2","display":"Body Height","system":"http://loinc.org"}],"text":"Body Height"},"context":{"reference":"Encounter/baa23348-755d-4139-90aa-20c899d518f2"},"effectiveDateTime":"2013-09-22T11:03:29-04:00","id":"f51461cf-1609-425f-b4c8-c5105a45ca74","issued":"2013-09-22T11:03:29.876-04:00","meta":{"lastUpdated":"2019-04-09T10:50:50.460975+00:00","versionId":"MTU1NDgwNzA1MDQ2MDk3NTAwMA"},"resourceType":"Observation","status":"final","subject":{"reference":"Patient/00bce077-b35e-456a-aca4-4fd257f3319f"},"valueQuantity":{"code":"cm","system":"http://unitsofmeasure.org","unit":"cm","value":159.17762085055426}}},{"resource":{"category":[{"coding":[{"code":"laboratory","display":"laboratory","system":"http://hl7.org/fhir/observation-category"}]}],"code":{"coding":[{"code":"32623-1","display":"Platelet mean volume [Entitic volume] in Blood by Automated count","system":"http://loinc.org"}],"text":"Platelet mean volume [Entitic volume] in Blood by Automated count"},"context":{"reference":"Encounter/7064bb17-3a99-420f-bd37-3c4c60bc42c9"},"effectiveDateTime":"2011-09-11T11:03:29-04:00","id":"f7f3af1f-35f6-4655-9e21-380f8d5d5e15","issued":"2011-09-11T11:03:29.876-04:00","meta":{"lastUpdated":"2019-04-09T10:50:50.460344+00:00","versionId":"MTU1NDgwNzA1MDQ2MDM0NDAwMA"},"resourceType":"Observation","status":"final","subject":{"reference":"Patient/00bce077-b35e-456a-aca4-4fd257f3319f"},"valueQuantity":{"code":"fL","system":"http://unitsofmeasure.org","unit":"fL","value":11.505304495878896}}},{"resource":{"category":[{"coding":[{"code":"vital-signs","display":"vital-signs","system":"http://hl7.org/fhir/observation-category"}]}],"code":{"coding":[{"code":"39156-5","display":"Body Mass Index","system":"http://loinc.org"}],"text":"Body Mass Index"},"context":{"reference":"Encounter/7064bb17-3a99-420f-bd37-3c4c60bc42c9"},"effectiveDateTime":"2011-09-11T11:03:29-04:00","id":"f951550a-4ee9-4874-921a-a709d61d1beb","issued":"2011-09-11T11:03:29.876-04:00","meta":{"lastUpdated":"2019-04-09T10:50:50.468825+00:00","versionId":"MTU1NDgwNzA1MDQ2ODgyNTAwMA"},"resourceType":"Observation","status":"final","subject":{"reference":"Patient/00bce077-b35e-456a-aca4-4fd257f3319f"},"valueQuantity":{"code":"kg/m2","system":"http://unitsofmeasure.org","unit":"kg/m2","value":23.96067755053236}}},{"resource":{"code":{"coding":[{"code":"269828009","display":"Syphilis infection test","system":"http://snomed.info/sct"}],"text":"Syphilis infection test"},"context":{"reference":"Encounter/cc78b509-382c-4db7-91f2-ddbcc29d46e5"},"id":"05886761-2eb8-46e3-8ab0-0b45dc3258ca","meta":{"lastUpdated":"2019-04-09T12:00:35.189353+00:00","versionId":"MTU1NDgxMTIzNTE4OTM1MzAwMA"},"performedPeriod":{"end":"2018-05-13T11:18:29-04:00","start":"2018-05-13T11:03:29-04:00"},"reasonReference":[{"display":"Normal pregnancy","reference":"Condition/975f3bef-edbc-4ae0-a313-397237b88dbe"},{"display":"Normal pregnancy","reference":"Condition/4b40555c-fcfd-46c9-8d56-90cc3b69e826"},{"display":"Normal pregnancy","reference":"Condition/cd345d10-44c5-4028-89de-5e29a038f0fc"}],"resourceType":"Procedure","status":"completed","subject":{"reference":"Patient/00bce077-b35e-456a-aca4-4fd257f3319f"}}},{"resource":{"code":{"coding":[{"code":"395123002","display":"Urine screening test for diabetes","system":"http://snomed.info/sct"}],"text":"Urine screening test for diabetes"},"context":{"reference":"Encounter/cc78b509-382c-4db7-91f2-ddbcc29d46e5"},"id":"09fc8556-087a-495c-8bb2-6600311efd14","meta":{"lastUpdated":"2019-04-09T12:00:35.186854+00:00","versionId":"MTU1NDgxMTIzNTE4Njg1NDAwMA"},"performedPeriod":{"end":"2018-05-13T11:18:29-04:00","start":"2018-05-13T11:03:29-04:00"},"reasonReference":[{"display":"Normal pregnancy","reference":"Condition/975f3bef-edbc-4ae0-a313-397237b88dbe"},{"display":"Normal pregnancy","reference":"Condition/4b40555c-fcfd-46c9-8d56-90cc3b69e826"},{"display":"Normal pregnancy","reference":"Condition/cd345d10-44c5-4028-89de-5e29a038f0fc"}],"resourceType":"Procedure","status":"completed","subject":{"reference":"Patient/00bce077-b35e-456a-aca4-4fd257f3319f"}}},{"resource":{"code":{"coding":[{"code":"274804006","display":"Evaluation of uterine fundal height","system":"http://snomed.info/sct"}],"text":"Evaluation of uterine fundal height"},"context":{"reference":"Encounter/b1186a64-0bb2-402a-bbd1-f8be2edd7a0f"},"id":"0d8523c5-69de-4eff-909a-871bb16d13b4","meta":{"lastUpdated":"2019-04-09T12:00:35.195007+00:00","versionId":"MTU1NDgxMTIzNTE5NTAwNzAwMA"},"performedPeriod":{"end":"2018-10-28T11:18:29-04:00","start":"2018-10-28T11:03:29-04:00"},"reasonReference":[{"display":"Normal pregnancy","reference":"Condition/975f3bef-edbc-4ae0-a313-397237b88dbe"},{"display":"Normal pregnancy","reference":"Condition/4b40555c-fcfd-46c9-8d56-90cc3b69e826"},{"display":"Normal pregnancy","reference":"Condition/cd345d10-44c5-4028-89de-5e29a038f0fc"}],"resourceType":"Procedure","status":"completed","subject":{"reference":"Patient/00bce077-b35e-456a-aca4-4fd257f3319f"}}},{"resource":{"code":{"coding":[{"code":"10383002","display":"Counseling for termination of pregnancy","system":"http://snomed.info/sct"}],"text":"Counseling for termination of pregnancy"},"context":{"reference":"Encounter/48d7a9e6-9c7c-4f12-bc33-7e9665c8e604"},"id":"0e9c72e3-062d-4a75-b7d8-368e6f2ef6e3","meta":{"lastUpdated":"2019-04-09T12:00:35.183938+00:00","versionId":"MTU1NDgxMTIzNTE4MzkzODAwMA"},"performedPeriod":{"end":"2017-12-31T10:18:29-05:00","start":"2017-12-31T10:03:29-05:00"},"reasonReference":[{"display":"Normal pregnancy","reference":"Condition/975f3bef-edbc-4ae0-a313-397237b88dbe"},{"display":"Normal pregnancy","reference":"Condition/4b40555c-fcfd-46c9-8d56-90cc3b69e826"}],"resourceType":"Procedure","status":"completed","subject":{"reference":"Patient/00bce077-b35e-456a-aca4-4fd257f3319f"}}},{"resource":{"code":{"coding":[{"code":"44608003","display":"Blood typing, RH typing","system":"http://snomed.info/sct"}],"text":"Blood typing, RH typing"},"context":{"reference":"Encounter/cc78b509-382c-4db7-91f2-ddbcc29d46e5"},"id":"0ee15050-992e-476c-be3b-fefc82959785","meta":{"lastUpdated":"2019-04-09T12:00:35.188383+00:00","versionId":"MTU1NDgxMTIzNTE4ODM4MzAwMA"},"performedPeriod":{"end":"2018-05-13T11:18:29-04:00","start":"2018-05-13T11:03:29-04:00"},"reasonReference":[{"display":"Normal pregnancy","reference":"Condition/975f3bef-edbc-4ae0-a313-397237b88dbe"},{"display":"Normal pregnancy","reference":"Condition/4b40555c-fcfd-46c9-8d56-90cc3b69e826"},{"display":"Normal pregnancy","reference":"Condition/cd345d10-44c5-4028-89de-5e29a038f0fc"}],"resourceType":"Procedure","status":"completed","subject":{"reference":"Patient/00bce077-b35e-456a-aca4-4fd257f3319f"}}},{"resource":{"code":{"coding":[{"code":"274804006","display":"Evaluation of uterine fundal height","system":"http://snomed.info/sct"}],"text":"Evaluation of uterine fundal height"},"context":{"reference":"Encounter/05df08fa-12f2-4468-bbb1-217a1f764ce5"},"id":"10424a19-9c3f-4298-92d2-a73201a5257f","meta":{"lastUpdated":"2019-04-09T12:00:35.184129+00:00","versionId":"MTU1NDgxMTIzNTE4NDEyOTAwMA"},"performedPeriod":{"end":"2018-12-09T10:18:29-05:00","start":"2018-12-09T10:03:29-05:00"},"reasonReference":[{"display":"Normal pregnancy","reference":"Condition/975f3bef-edbc-4ae0-a313-397237b88dbe"},{"display":"Normal pregnancy","reference":"Condition/4b40555c-fcfd-46c9-8d56-90cc3b69e826"},{"display":"Normal pregnancy","reference":"Condition/cd345d10-44c5-4028-89de-5e29a038f0fc"}],"resourceType":"Procedure","status":"completed","subject":{"reference":"Patient/00bce077-b35e-456a-aca4-4fd257f3319f"}}},{"resource":{"code":{"coding":[{"code":"165829005","display":"Gonorrhea infection test","system":"http://snomed.info/sct"}],"text":"Gonorrhea infection test"},"context":{"reference":"Encounter/cc78b509-382c-4db7-91f2-ddbcc29d46e5"},"id":"1159fd05-0a96-428c-ac23-7b44e4522840","meta":{"lastUpdated":"2019-04-09T12:00:35.189670+00:00","versionId":"MTU1NDgxMTIzNTE4OTY3MDAwMA"},"performedPeriod":{"end":"2018-05-13T11:18:29-04:00","start":"2018-05-13T11:03:29-04:00"},"reasonReference":[{"display":"Normal pregnancy","reference":"Condition/975f3bef-edbc-4ae0-a313-397237b88dbe"},{"display":"Normal pregnancy","reference":"Condition/4b40555c-fcfd-46c9-8d56-90cc3b69e826"},{"display":"Normal pregnancy","reference":"Condition/cd345d10-44c5-4028-89de-5e29a038f0fc"}],"resourceType":"Procedure","status":"completed","subject":{"reference":"Patient/00bce077-b35e-456a-aca4-4fd257f3319f"}}},{"resource":{"code":{"coding":[{"code":"428191000124101","display":"Documentation of current medications","system":"http://snomed.info/sct"}],"text":"Documentation of current medications"},"context":{"reference":"Encounter/baa23348-755d-4139-90aa-20c899d518f2"},"id":"13a85913-3e1b-4381-b90a-17901315c778","meta":{"lastUpdated":"2019-04-09T10:50:50.469217+00:00","versionId":"MTU1NDgwNzA1MDQ2OTIxNzAwMA"},"performedPeriod":{"end":"2013-09-22T11:18:29-04:00","start":"2013-09-22T11:03:29-04:00"},"resourceType":"Procedure","status":"completed","subject":{"reference":"Patient/00bce077-b35e-456a-aca4-4fd257f3319f"}}},{"resource":{"code":{"coding":[{"code":"274804006","display":"Evaluation of uterine fundal height","system":"http://snomed.info/sct"}],"text":"Evaluation of uterine fundal height"},"context":{"reference":"Encounter/de113bd3-3ad5-400b-bb80-9761e88b0c6e"},"id":"13df765b-9f2c-466b-9060-6183512e1ace","meta":{"lastUpdated":"2019-04-09T12:00:35.191114+00:00","versionId":"MTU1NDgxMTIzNTE5MTExNDAwMA"},"performedPeriod":{"end":"2018-12-23T10:18:29-05:00","start":"2018-12-23T10:03:29-05:00"},"reasonReference":[{"display":"Normal pregnancy","reference":"Condition/975f3bef-edbc-4ae0-a313-397237b88dbe"},{"display":"Normal pregnancy","reference":"Condition/4b40555c-fcfd-46c9-8d56-90cc3b69e826"},{"display":"Normal pregnancy","reference":"Condition/cd345d10-44c5-4028-89de-5e29a038f0fc"}],"resourceType":"Procedure","status":"completed","subject":{"reference":"Patient/00bce077-b35e-456a-aca4-4fd257f3319f"}}},{"resource":{"code":{"coding":[{"code":"104091002","display":"Hemoglobin / Hematocrit / Platelet count","system":"http://snomed.info/sct"}],"text":"Hemoglobin / Hematocrit / Platelet count"},"context":{"reference":"Encounter/cc78b509-382c-4db7-91f2-ddbcc29d46e5"},"id":"1a78f11a-98db-4178-8a64-ccf300718988","meta":{"lastUpdated":"2019-04-09T12:00:35.189900+00:00","versionId":"MTU1NDgxMTIzNTE4OTkwMDAwMA"},"performedPeriod":{"end":"2018-05-13T11:18:29-04:00","start":"2018-05-13T11:03:29-04:00"},"reasonReference":[{"display":"Normal pregnancy","reference":"Condition/975f3bef-edbc-4ae0-a313-397237b88dbe"},{"display":"Normal pregnancy","reference":"Condition/4b40555c-fcfd-46c9-8d56-90cc3b69e826"},{"display":"Normal pregnancy","reference":"Condition/cd345d10-44c5-4028-89de-5e29a038f0fc"}],"resourceType":"Procedure","status":"completed","subject":{"reference":"Patient/00bce077-b35e-456a-aca4-4fd257f3319f"}}},{"resource":{"code":{"coding":[{"code":"268556000","display":"Urine screening for glucose","system":"http://snomed.info/sct"}],"text":"Urine screening for glucose"},"context":{"reference":"Encounter/447f992d-d9f2-4bc2-93d8-7371d3cb9eb4"},"id":"1c2c1d9c-5896-4174-9039-dd7aed6dbbb1","meta":{"lastUpdated":"2019-04-09T12:00:35.188935+00:00","versionId":"MTU1NDgxMTIzNTE4ODkzNTAwMA"},"performedPeriod":{"end":"2018-09-30T11:18:29-04:00","start":"2018-09-30T11:03:29-04:00"},"reasonReference":[{"display":"Normal pregnancy","reference":"Condition/975f3bef-edbc-4ae0-a313-397237b88dbe"},{"display":"Normal pregnancy","reference":"Condition/4b40555c-fcfd-46c9-8d56-90cc3b69e826"},{"display":"Normal pregnancy","reference":"Condition/cd345d10-44c5-4028-89de-5e29a038f0fc"}],"resourceType":"Procedure","status":"completed","subject":{"reference":"Patient/00bce077-b35e-456a-aca4-4fd257f3319f"}}}],"link":[{"url":"https://syntheticmass.mitre.org/v1/fhir/Patient/00bce077-b35e-456a-aca4-4fd257f3319f/$everything?_count=100&page_token=CoIBcHJvamVjdHMvc3ludGhlYS9sb2NhdGlvbnMvdXMtY2VudHJhbDEvZGF0YXNldHMvMjAxOTAyL2ZoaXJTdG9yZXMvc3ludGhldGljLW1hc3MvZmhpci9QYXRpZW50LzAwYmNlMDc3LWIzNWUtNDU2YS1hY2E0LTRmZDI1N2YzMzE5Zg%3D%3D","relation":"previous"},{"url":"https://syntheticmass.mitre.org/v1/fhir/Patient/00bce077-b35e-456a-aca4-4fd257f3319f/$everything?_count=100&page_token=CoIBcHJvamVjdHMvc3ludGhlYS9sb2NhdGlvbnMvdXMtY2VudHJhbDEvZGF0YXNldHMvMjAxOTAyL2ZoaXJTdG9yZXMvc3ludGhldGljLW1hc3MvZmhpci9QYXRpZW50LzAwYmNlMDc3LWIzNWUtNDU2YS1hY2E0LTRmZDI1N2YzMzE5ZiDIAQ%3D%3D","relation":"next"}],"total":252}
