{"resourceType":"Bundle","type":"searchset","entry":[{"resource":{"billablePeriod":{"end":"2013-04-23T10:32:11-04:00","start":"2012-04-23T10:32:11-04:00"},"careTeam":[{"provider":{"identifier":{"system":"http://hl7.org/fhir/sid/us-npi","value":"99999999"}},"role":{"coding":[{"code":"primary","display":"Primary Care Practitioner","system":"http://hl7.org/fhir/claimcareteamrole"}]},"sequence":1}],"claim":{"reference":"Claim/0e343e6e-a85f-4665-af8e-5887da81e35c"},"contained":[{"id":"1","intent":"order","recipient":[{"identifier":{"system":"http://hl7.org/fhir/sid/us-npi","value":"99999999"}}],"requester":{"agent":{"identifier":{"system":"http://hl7.org/fhir/sid/us-npi","value":"99999999"}}},"resourceType":"ReferralRequest","status":"completed","subject":{"reference":"Patient/000a04a1-7f9d-4325-8f99-0fd76e46bab3"}},{"id":"coverage","resourceType":"Coverage","type":{"text":"private"}}],"created":"2012-04-23T10:32:11-04:00","diagnosis":[{"diagnosisReference":{"reference":"Condition/bd0fc71f-2c4c-433d-a498-326477ea2ced"},"extension":[{"url":"https://bluebutton.cms.gov/assets/ig/StructureDefinition-bluebutton-inpatient-clm-poa-ind-sw1-extension","valueCoding":{"code":"Y","display":"Diagnosis present at time of admission","system":"https://bluebutton.cms.gov/assets/ig/CodeSystem-clm-poa-ind-sw1"}}],"sequence":1,"type":[{"coding":[{"code":"principal","system":"https://bluebutton.cms.gov/resources/codesystem/diagnosis-type"}]}]}],"id":"6b1c6999-c03b-4e2d-a3c2-16ad8cd38c93","identifier":[{"system":"https://bluebutton.cms.gov/resources/variables/clm_id","value":"0e343e6e-a85f-4665-af8e-5887da81e35c"},{"system":"https://bluebutton.cms.gov/resources/identifier/claim-group","value":"99999999999"}],"insurance":{"coverage":{"reference":"#coverage"}},"item":[{"category":{"coding":[{"code":"1","display":"Medical care","system":"https://bluebutton.cms.gov/resources/variables/line_cms_type_srvc_cd"}]},"encounter":[{"reference":"Encounter/a23fed55-17a4-4113-ac18-f463681a8596"}],"locationCodeableConcept":{"coding":[{"code":"21","display":"Inpatient Hospital","system":"https://bluebutton.cms.gov/resources/variables/line_place_of_srvc_cd"}]},"sequence":1,"servicedPeriod":{"end":"2012-04-23T10:32:11-04:00","start":"2012-04-23T10:17:11-04:00"}},{"adjudication":[{"amount":{"code":"USD","system":"urn:iso:std:iso:4217","value":28.104000000000003},"category":{"coding":[{"code":"https://bluebutton.cms.gov/resources/variables/line_coinsrnc_amt","display":"Line Beneficiary Coinsurance Amount","system":"https://bluebutton.cms.gov/resources/codesystem/adjudication"}]}},{"amount":{"code":"USD","system":"urn:iso:std:iso:4217","value":112.41600000000001},"category":{"coding":[{"code":"https://bluebutton.cms.gov/resources/variables/line_prvdr_pmt_amt","display":"Line Provider Payment Amount","system":"https://bluebutton.cms.gov/resources/codesystem/adjudication"}]}},{"amount":{"code":"USD","system":"urn:iso:std:iso:4217","value":140.52},"category":{"coding":[{"code":"https://bluebutton.cms.gov/resources/variables/line_sbmtd_chrg_amt","display":"Line Submitted Charge Amount","system":"https://bluebutton.cms.gov/resources/codesystem/adjudication"}]}},{"amount":{"code":"USD","system":"urn:iso:std:iso:4217","value":140.52},"category":{"coding":[{"code":"https://bluebutton.cms.gov/resources/variables/line_alowd_chrg_amt","display":"Line Allowed Charge Amount","system":"https://bluebutton.cms.gov/resources/codesystem/adjudication"}]}},{"amount":{"code":"USD","system":"urn:iso:std:iso:4217","value":0},"category":{"coding":[{"code":"https://bluebutton.cms.gov/resources/variables/line_bene_ptb_ddctbl_amt","display":"Line Beneficiary Part B Deductible Amount","system":"https://bluebutton.cms.gov/resources/codesystem/adjudication"}]}},{"category":{"coding":[{"code":"https://bluebutton.cms.gov/resources/variables/line_prcsg_ind_cd","display":"Line Processing Indicator Code","system":"https://bluebutton.cms.gov/resources/codesystem/adjudication"}]},"reason":{"coding":[{"code":"A","display":"Allowed","system":"https://bluebutton.cms.gov/resources/variables/line_prcsg_ind_cd"}]}}],"category":{"coding":[{"code":"1","display":"Medical care","system":"https://bluebutton.cms.gov/resources/variables/line_cms_type_srvc_cd"}]},"informationLinkId":[1],"locationCodeableConcept":{"coding":[{"code":"21","display":"Inpatient Hospital","system":"https://bluebutton.cms.gov/resources/variables/line_place_of_srvc_cd"}]},"net":{"code":"USD","system":"urn:iso:std:iso:4217","value":140.52},"sequence":2,"servicedPeriod":{"end":"2012-04-23T10:32:11-04:00","start":"2012-04-23T10:17:11-04:00"}},{"category":{"coding":[{"code":"1","display":"Medical care","system":"https://bluebutton.cms.gov/resources/variables/line_cms_type_srvc_cd"}]},"diagnosisLinkId":[1],"locationCodeableConcept":{"coding":[{"code":"21","display":"Inpatient Hospital","system":"https://bluebutton.cms.gov/resources/variables/line_place_of_srvc_cd"}]},"sequence":3,"servicedPeriod":{"end":"2012-04-23T10:32:11-04:00","start":"2012-04-23T10:17:11-04:00"}}],"meta":{"lastUpdated":"2019-04-09T09:55:24.651897+00:00","versionId":"MTU1NDgwMzcyNDY1MTg5NzAwMA"},"organization":{"identifier":{"value":"15aeb131-dae7-4392-bb46-3b4aeddf31d7"}},"patient":{"reference":"Patient/000a04a1-7f9d-4325-8f99-0fd76e46bab3"},"payment":{"amount":{"code":"USD","system":"urn:iso:std:iso:4217","value":112.41600000000001}},"provider":{"identifier":{"value":"417e9e98-335d-42f9-a957-ab1e79dca107"}},"referral":{"reference":"#1"},"resourceType":"ExplanationOfBenefit","status":"active","totalCost":{"code":"USD","system":"urn:iso:std:iso:4217","value":265.52},"type":{"coding":[{"code":"71","display":"Local carrier non-durable medical equipment, prosthetics, orthotics, and supplies (DMEPOS) claim","system":"https://bluebutton.cms.gov/resources/variables/nch_clm_type_cd"},{"code":"CARRIER","display":"EOB Type","system":"https://bluebutton.cms.gov/resources/codesystem/eob-type"},{"code":"professional","display":"Claim Type","system":"http://hl7.org/fhir/ex-claimtype"},{"code":"O","display":"Part B physician/supplier claim record (processed by local carriers; can include DMEPOS services)","system":"https://bluebutton.cms.gov/resources/variables/nch_near_line_rec_ident_cd"}]}}},{"resource":{"billablePeriod":{"end":"2013-10-05T11:43:11-04:00","start":"2012-10-05T11:43:11-04:00"},"careTeam":[{"provider":{"identifier":{"system":"http://hl7.org/fhir/sid/us-npi","value":"99999999"}},"role":{"coding":[{"code":"primary","display":"Primary Care Practitioner","system":"http://hl7.org/fhir/claimcareteamrole"}]},"sequence":1}],"claim":{"reference":"Claim/373a5372-9aae-4e40-9dd6-efb4044d516d"},"contained":[{"id":"1","intent":"order","recipient":[{"identifier":{"system":"http://hl7.org/fhir/sid/us-npi","value":"99999999"}}],"requester":{"agent":{"identifier":{"system":"http://hl7.org/fhir/sid/us-npi","value":"99999999"}}},"resourceType":"ReferralRequest","status":"completed","subject":{"reference":"Patient/000a04a1-7f9d-4325-8f99-0fd76e46bab3"}},{"id":"coverage","resourceType":"Coverage","type":{"text":"private"}}],"created":"2012-10-05T11:43:11-04:00","diagnosis":[{"diagnosisReference":{"reference":"Condition/55878dc9-76ea-49e6-8072-f2266ce79ab5"},"extension":[{"url":"https://bluebutton.cms.gov/assets/ig/StructureDefinition-bluebutton-inpatient-clm-poa-ind-sw1-extension","valueCoding":{"code":"Y","display":"Diagnosis present at time of admission","system":"https://bluebutton.cms.gov/assets/ig/CodeSystem-clm-poa-ind-sw1"}}],"sequence":1,"type":[{"coding":[{"code":"principal","system":"https://bluebutton.cms.gov/resources/codesystem/diagnosis-type"}]}]}],"id":"6d08fa8e-178d-4c8c-b0d1-cfe258e5fa2e","identifier":[{"system":"https://bluebutton.cms.gov/resources/variables/clm_id","value":"373a5372-9aae-4e40-9dd6-efb4044d516d"},{"system":"https://bluebutton.cms.gov/resources/identifier/claim-group","value":"99999999999"}],"insurance":{"coverage":{"reference":"#coverage"}},"item":[{"category":{"coding":[{"code":"1","display":"Medical care","system":"https://bluebutton.cms.gov/resources/variables/line_cms_type_srvc_cd"}]},"encounter":[{"reference":"Encounter/871ad267-f304-4ee3-9dd5-7773af7517ea"}],"locationCodeableConcept":{"coding":[{"code":"23","display":"Emergency Room","system":"https://bluebutton.cms.gov/resources/variables/line_place_of_srvc_cd"}]},"sequence":1,"servicedPeriod":{"end":"2012-10-05T11:43:11-04:00","start":"2012-10-05T10:17:11-04:00"}},{"category":{"coding":[{"code":"1","display":"Medical care","system":"https://bluebutton.cms.gov/resources/variables/line_cms_type_srvc_cd"}]},"diagnosisLinkId":[1],"locationCodeableConcept":{"coding":[{"code":"23","display":"Emergency Room","system":"https://bluebutton.cms.gov/resources/variables/line_place_of_srvc_cd"}]},"sequence":2,"servicedPeriod":{"end":"2012-10-05T11:43:11-04:00","start":"2012-10-05T10:17:11-04:00"}},{"adjudication":[{"amount":{"code":"USD","system":"urn:iso:std:iso:4217","value":1741.882},"category":{"coding":[{"code":"https://bluebutton.cms.gov/resources/variables/line_coinsrnc_amt","display":"Line Beneficiary Coinsurance Amount","system":"https://bluebutton.cms.gov/resources/codesystem/adjudication"}]}},{"amount":{"code":"USD","system":"urn:iso:std:iso:4217","value":6967.528},"category":{"coding":[{"code":"https://bluebutton.cms.gov/resources/variables/line_prvdr_pmt_amt","display":"Line Provider Payment Amount","system":"https://bluebutton.cms.gov/resources/codesystem/adjudication"}]}},{"amount":{"code":"USD","system":"urn:iso:std:iso:4217","value":8709.41},"category":{"coding":[{"code":"https://bluebutton.cms.gov/resources/variables/line_sbmtd_chrg_amt","display":"Line Submitted Charge Amount","system":"https://bluebutton.cms.gov/resources/codesystem/adjudication"}]}},{"amount":{"code":"USD","system":"urn:iso:std:iso:4217","value":8709.41},"category":{"coding":[{"code":"https://bluebutton.cms.gov/resources/variables/line_alowd_chrg_amt","display":"Line Allowed Charge Amount","system":"https://bluebutton.cms.gov/resources/codesystem/adjudication"}]}},{"amount":{"code":"USD","system":"urn:iso:std:iso:4217","value":0},"category":{"coding":[{"code":"https://bluebutton.cms.gov/resources/variables/line_bene_ptb_ddctbl_amt","display":"Line Beneficiary Part B Deductible Amount","system":"https://bluebutton.cms.gov/resources/codesystem/adjudication"}]}},{"category":{"coding":[{"code":"https://bluebutton.cms.gov/resources/variables/line_prcsg_ind_cd","display":"Line Processing Indicator Code","system":"https://bluebutton.cms.gov/resources/codesystem/adjudication"}]},"reason":{"coding":[{"code":"A","display":"Allowed","system":"https://bluebutton.cms.gov/resources/variables/line_prcsg_ind_cd"}]}}],"category":{"coding":[{"code":"1","display":"Medical care","system":"https://bluebutton.cms.gov/resources/variables/line_cms_type_srvc_cd"}]},"locationCodeableConcept":{"coding":[{"code":"23","display":"Emergency Room","system":"https://bluebutton.cms.gov/resources/variables/line_place_of_srvc_cd"}]},"net":{"code":"USD","system":"urn:iso:std:iso:4217","value":8709.41},"sequence":3,"service":{"coding":[{"code":"288086009","system":"http://snomed.info/sct","version":"v1"}]},"servicedPeriod":{"end":"2012-10-05T11:43:11-04:00","start":"2012-10-05T10:17:11-04:00"}},{"adjudication":[{"amount":{"code":"USD","system":"urn:iso:std:iso:4217","value":698.07},"category":{"coding":[{"code":"https://bluebutton.cms.gov/resources/variables/line_coinsrnc_amt","display":"Line Beneficiary Coinsurance Amount","system":"https://bluebutton.cms.gov/resources/codesystem/adjudication"}]}},{"amount":{"code":"USD","system":"urn:iso:std:iso:4217","value":2792.28},"category":{"coding":[{"code":"https://bluebutton.cms.gov/resources/variables/line_prvdr_pmt_amt","display":"Line Provider Payment Amount","system":"https://bluebutton.cms.gov/resources/codesystem/adjudication"}]}},{"amount":{"code":"USD","system":"urn:iso:std:iso:4217","value":3490.35},"category":{"coding":[{"code":"https://bluebutton.cms.gov/resources/variables/line_sbmtd_chrg_amt","display":"Line Submitted Charge Amount","system":"https://bluebutton.cms.gov/resources/codesystem/adjudication"}]}},{"amount":{"code":"USD","system":"urn:iso:std:iso:4217","value":3490.35},"category":{"coding":[{"code":"https://bluebutton.cms.gov/resources/variables/line_alowd_chrg_amt","display":"Line Allowed Charge Amount","system":"https://bluebutton.cms.gov/resources/codesystem/adjudication"}]}},{"amount":{"code":"USD","system":"urn:iso:std:iso:4217","value":0},"category":{"coding":[{"code":"https://bluebutton.cms.gov/resources/variables/line_bene_ptb_ddctbl_amt","display":"Line Beneficiary Part B Deductible Amount","system":"https://bluebutton.cms.gov/resources/codesystem/adjudication"}]}},{"category":{"coding":[{"code":"https://bluebutton.cms.gov/resources/variables/line_prcsg_ind_cd","display":"Line Processing Indicator Code","system":"https://bluebutton.cms.gov/resources/codesystem/adjudication"}]},"reason":{"coding":[{"code":"A","display":"Allowed","system":"https://bluebutton.cms.gov/resources/variables/line_prcsg_ind_cd"}]}}],"category":{"coding":[{"code":"1","display":"Medical care","system":"https://bluebutton.cms.gov/resources/variables/line_cms_type_srvc_cd"}]},"locationCodeableConcept":{"coding":[{"code":"23","display":"Emergency Room","system":"https://bluebutton.cms.gov/resources/variables/line_place_of_srvc_cd"}]},"net":{"code":"USD","system":"urn:iso:std:iso:4217","value":3490.35},"sequence":4,"service":{"coding":[{"code":"384700001","system":"http://snomed.info/sct","version":"v1"}]},"servicedPeriod":{"end":"2012-10-05T11:43:11-04:00","start":"2012-10-05T10:17:11-04:00"}}],"meta":{"lastUpdated":"2019-04-09T09:55:24.659127+00:00","versionId":"MTU1NDgwMzcyNDY1OTEyNzAwMA"},"organization":{"identifier":{"value":"15aeb131-dae7-4392-bb46-3b4aeddf31d7"}},"patient":{"reference":"Patient/000a04a1-7f9d-4325-8f99-0fd76e46bab3"},"payment":{"amount":{"code":"USD","system":"urn:iso:std:iso:4217","value":9759.808}},"provider":{"identifier":{"value":"417e9e98-335d-42f9-a957-ab1e79dca107"}},"referral":{"reference":"#1"},"resourceType":"ExplanationOfBenefit","status":"active","totalCost":{"code":"USD","system":"urn:iso:std:iso:4217","value":12324.76},"type":{"coding":[{"code":"71","display":"Local carrier non-durable medical equipment, prosthetics, orthotics, and supplies (DMEPOS) claim","system":"https://bluebutton.cms.gov/resources/variables/nch_clm_type_cd"},{"code":"CARRIER","display":"EOB Type","system":"https://bluebutton.cms.gov/resources/codesystem/eob-type"},{"code":"professional","display":"Claim Type","system":"http://hl7.org/fhir/ex-claimtype"},{"code":"O","display":"Part B physician/supplier claim record (processed by local carriers; can include DMEPOS services)","system":"https://bluebutton.cms.gov/resources/variables/nch_near_line_rec_ident_cd"}]}}},{"resource":{"billablePeriod":{"end":"2019-06-18T11:56:11-04:00","start":"2018-06-18T11:56:11-04:00"},"careTeam":[{"provider":{"identifier":{"system":"http://hl7.org/fhir/sid/us-npi","value":"99999999"}},"role":{"coding":[{"code":"primary","display":"Primary Care Practitioner","system":"http://hl7.org/fhir/claimcareteamrole"}]},"sequence":1}],"claim":{"reference":"Claim/6e1275dc-6c98-4696-9da0-805d916b84ac"},"contained":[{"id":"1","intent":"order","recipient":[{"identifier":{"system":"http://hl7.org/fhir/sid/us-npi","value":"99999999"}}],"requester":{"agent":{"identifier":{"system":"http://hl7.org/fhir/sid/us-npi","value":"99999999"}}},"resourceType":"ReferralRequest","status":"completed","subject":{"reference":"Patient/000a04a1-7f9d-4325-8f99-0fd76e46bab3"}},{"id":"coverage","resourceType":"Coverage","type":{"text":"private"}}],"created":"2018-06-18T11:56:11-04:00","diagnosis":[{"diagnosisReference":{"reference":"Condition/6e2bc410-97d8-4c85-a694-5cbb1b7f22dd"},"extension":[{"url":"https://bluebutton.cms.gov/assets/ig/StructureDefinition-bluebutton-inpatient-clm-poa-ind-sw1-extension","valueCoding":{"code":"Y","display":"Diagnosis present at time of admission","system":"https://bluebutton.cms.gov/assets/ig/CodeSystem-clm-poa-ind-sw1"}}],"sequence":1,"type":[{"coding":[{"code":"principal","system":"https://bluebutton.cms.gov/resources/codesystem/diagnosis-type"}]}]}],"id":"6ddca292-6fc3-45e8-a3ae-d1ca4e034007","identifier":[{"system":"https://bluebutton.cms.gov/resources/variables/clm_id","value":"6e1275dc-6c98-4696-9da0-805d916b84ac"},{"system":"https://bluebutton.cms.gov/resources/identifier/claim-group","value":"99999999999"}],"insurance":{"coverage":{"reference":"#coverage"}},"item":[{"category":{"coding":[{"code":"1","display":"Medical care","system":"https://bluebutton.cms.gov/resources/variables/line_cms_type_srvc_cd"}]},"encounter":[{"reference":"Encounter/62e31be8-7e38-4bae-8511-f315173e973c"}],"locationCodeableConcept":{"coding":[{"code":"23","display":"Emergency Room","system":"https://bluebutton.cms.gov/resources/variables/line_place_of_srvc_cd"}]},"sequence":1,"servicedPeriod":{"end":"2018-06-18T11:56:11-04:00","start":"2018-06-18T10:17:11-04:00"}},{"category":{"coding":[{"code":"1","display":"Medical care","system":"https://bluebutton.cms.gov/resources/variables/line_cms_type_srvc_cd"}]},"diagnosisLinkId":[1],"locationCodeableConcept":{"coding":[{"code":"23","display":"Emergency Room","system":"https://bluebutton.cms.gov/resources/variables/line_place_of_srvc_cd"}]},"sequence":2,"servicedPeriod":{"end":"2018-06-18T11:56:11-04:00","start":"2018-06-18T10:17:11-04:00"}},{"adjudication":[{"amount":{"code":"USD","system":"urn:iso:std:iso:4217","value":2227.936},"category":{"coding":[{"code":"https://bluebutton.cms.gov/resources/variables/line_coinsrnc_amt","display":"Line Beneficiary Coinsurance Amount","system":"https://bluebutton.cms.gov/resources/codesystem/adjudication"}]}},{"amount":{"code":"USD","system":"urn:iso:std:iso:4217","value":8911.744},"category":{"coding":[{"code":"https://bluebutton.cms.gov/resources/variables/line_prvdr_pmt_amt","display":"Line Provider Payment Amount","system":"https://bluebutton.cms.gov/resources/codesystem/adjudication"}]}},{"amount":{"code":"USD","system":"urn:iso:std:iso:4217","value":11139.68},"category":{"coding":[{"code":"https://bluebutton.cms.gov/resources/variables/line_sbmtd_chrg_amt","display":"Line Submitted Charge Amount","system":"https://bluebutton.cms.gov/resources/codesystem/adjudication"}]}},{"amount":{"code":"USD","system":"urn:iso:std:iso:4217","value":11139.68},"category":{"coding":[{"code":"https://bluebutton.cms.gov/resources/variables/line_alowd_chrg_amt","display":"Line Allowed Charge Amount","system":"https://bluebutton.cms.gov/resources/codesystem/adjudication"}]}},{"amount":{"code":"USD","system":"urn:iso:std:iso:4217","value":0},"category":{"coding":[{"code":"https://bluebutton.cms.gov/resources/variables/line_bene_ptb_ddctbl_amt","display":"Line Beneficiary Part B Deductible Amount","system":"https://bluebutton.cms.gov/resources/codesystem/adjudication"}]}},{"category":{"coding":[{"code":"https://bluebutton.cms.gov/resources/variables/line_prcsg_ind_cd","display":"Line Processing Indicator Code","system":"https://bluebutton.cms.gov/resources/codesystem/adjudication"}]},"reason":{"coding":[{"code":"A","display":"Allowed","system":"https://bluebutton.cms.gov/resources/variables/line_prcsg_ind_cd"}]}}],"category":{"coding":[{"code":"1","display":"Medical care","system":"https://bluebutton.cms.gov/resources/variables/line_cms_type_srvc_cd"}]},"locationCodeableConcept":{"coding":[{"code":"23","display":"Emergency Room","system":"https://bluebutton.cms.gov/resources/variables/line_place_of_srvc_cd"}]},"net":{"code":"USD","system":"urn:iso:std:iso:4217","value":11139.68},"sequence":3,"service":{"coding":[{"code":"288086009","system":"http://snomed.info/sct","version":"v1"}]},"servicedPeriod":{"end":"2018-06-18T11:56:11-04:00","start":"2018-06-18T10:17:11-04:00"}},{"adjudication":[{"amount":{"code":"USD","system":"urn:iso:std:iso:4217","value":645.196},"category":{"coding":[{"code":"https://bluebutton.cms.gov/resources/variables/line_coinsrnc_amt","display":"Line Beneficiary Coinsurance Amount","system":"https://bluebutton.cms.gov/resources/codesystem/adjudication"}]}},{"amount":{"code":"USD","system":"urn:iso:std:iso:4217","value":2580.784},"category":{"coding":[{"code":"https://bluebutton.cms.gov/resources/variables/line_prvdr_pmt_amt","display":"Line Provider Payment Amount","system":"https://bluebutton.cms.gov/resources/codesystem/adjudication"}]}},{"amount":{"code":"USD","system":"urn:iso:std:iso:4217","value":3225.98},"category":{"coding":[{"code":"https://bluebutton.cms.gov/resources/variables/line_sbmtd_chrg_amt","display":"Line Submitted Charge Amount","system":"https://bluebutton.cms.gov/resources/codesystem/adjudication"}]}},{"amount":{"code":"USD","system":"urn:iso:std:iso:4217","value":3225.98},"category":{"coding":[{"code":"https://bluebutton.cms.gov/resources/variables/line_alowd_chrg_amt","display":"Line Allowed Charge Amount","system":"https://bluebutton.cms.gov/resources/codesystem/adjudication"}]}},{"amount":{"code":"USD","system":"urn:iso:std:iso:4217","value":0},"category":{"coding":[{"code":"https://bluebutton.cms.gov/resources/variables/line_bene_ptb_ddctbl_amt","display":"Line Beneficiary Part B Deductible Amount","system":"https://bluebutton.cms.gov/resources/codesystem/adjudication"}]}},{"category":{"coding":[{"code":"https://bluebutton.cms.gov/resources/variables/line_prcsg_ind_cd","display":"Line Processing Indicator Code","system":"https://bluebutton.cms.gov/resources/codesystem/adjudication"}]},"reason":{"coding":[{"code":"A","display":"Allowed","system":"https://bluebutton.cms.gov/resources/variables/line_prcsg_ind_cd"}]}}],"category":{"coding":[{"code":"1","display":"Medical care","system":"https://bluebutton.cms.gov/resources/variables/line_cms_type_srvc_cd"}]},"locationCodeableConcept":{"coding":[{"code":"23","display":"Emergency Room","system":"https://bluebutton.cms.gov/resources/variables/line_place_of_srvc_cd"}]},"net":{"code":"USD","system":"urn:iso:std:iso:4217","value":3225.98},"sequence":4,"service":{"coding":[{"code":"384700001","system":"http://snomed.info/sct","version":"v1"}]},"servicedPeriod":{"end":"2018-06-18T11:56:11-04:00","start":"2018-06-18T10:17:11-04:00"}}],"meta":{"lastUpdated":"2019-04-09T09:55:27.749647+00:00","versionId":"MTU1NDgwMzcyNzc0OTY0NzAwMA"},"organization":{"identifier":{"value":"15aeb131-dae7-4392-bb46-3b4aeddf31d7"}},"patient":{"reference":"Patient/000a04a1-7f9d-4325-8f99-0fd76e46bab3"},"payment":{"amount":{"code":"USD","system":"urn:iso:std:iso:4217","value":11492.528}},"provider":{"identifier":{"value":"417e9e98-335d-42f9-a957-ab1e79dca107"}},"referral":{"reference":"#1"},"resourceType":"ExplanationOfBenefit","status":"active","totalCost":{"code":"USD","system":"urn:iso:std:iso:4217","value":14490.66},"type":{"coding":[{"code":"71","display":"Local carrier non-durable medical equipment, prosthetics, orthotics, and supplies (DMEPOS) claim","system":"https://bluebutton.cms.gov/resources/variables/nch_clm_type_cd"},{"code":"CARRIER","display":"EOB Type","system":"https://bluebutton.cms.gov/resources/codesystem/eob-type"},{"code":"professional","display":"Claim Type","system":"http://hl7.org/fhir/ex-claimtype"},{"code":"O","display":"Part B physician/supplier claim record (processed by local carriers; can include DMEPOS services)","system":"https://bluebutton.cms.gov/resources/variables/nch_near_line_rec_ident_cd"}]}}},{"resource":{"billablePeriod":{"end":"2010-02-23T09:32:11-05:00","extension":[{"url":"https://bluebutton.cms.gov/assets/ig/StructureDefinition-bluebutton-inpatient-claim-query-cd-extension","valueCoding":{"code":"3","display":"Final Bill","system":"https://bluebutton.cms.gov/assets/ig/ValueSet-claim-query-cd"}}],"start":"2009-02-23T09:32:11-05:00"},"careTeam":[{"provider":{"identifier":{"system":"http://hl7.org/fhir/sid/us-npi","value":"99999999"}},"role":{"coding":[{"code":"primary","display":"Primary Care Practitioner","system":"http://hl7.org/fhir/claimcareteamrole"}]},"sequence":1}],"contained":[{"id":"coverage","resourceType":"Coverage","type":{"text":"private"}}],"extension":[{"url":"https://bluebutton.cms.gov/assets/ig/StructureDefinition-bluebutton-inpatient-ime-op-clm-val-amt-extension","valueMoney":{"code":"USD","system":"urn:iso:std:iso:4217","value":400}},{"url":"https://bluebutton.cms.gov/assets/ig/StructureDefinition-bluebutton-inpatient-dsh-op-clm-val-amt-extension","valueMoney":{"code":"USD","system":"urn:iso:std:iso:4217","value":0}},{"url":"https://bluebutton.cms.gov/assets/ig/StructureDefinition-bluebutton-inpatient-clm-pass-thru-per-diem-amt-extension","valueMoney":{"code":"USD","system":"urn:iso:std:iso:4217","value":0}},{"url":"https://bluebutton.cms.gov/assets/ig/StructureDefinition-bluebutton-inpatient-nch-profnl-cmpnt-chrg-amt-extension","valueMoney":{"code":"USD","system":"urn:iso:std:iso:4217","value":0}},{"url":"https://bluebutton.cms.gov/assets/ig/StructureDefinition-bluebutton-inpatient-clm-tot-pps-cptl-amt-extension","valueMoney":{"code":"USD","system":"urn:iso:std:iso:4217","value":0}},{"url":"https://bluebutton.cms.gov/assets/ig/StructureDefinition-bluebutton-inpatient-nch-bene-ip-ddctbl-amt-extension","valueMoney":{"code":"USD","system":"urn:iso:std:iso:4217","value":0}},{"url":"https://bluebutton.cms.gov/assets/ig/StructureDefinition-bluebutton-inpatient-nch-bene-pta-coinsrnc-lblty-amt-extension","valueMoney":{"code":"USD","system":"urn:iso:std:iso:4217","value":0}},{"url":"https://bluebutton.cms.gov/assets/ig/StructureDefinition-bluebutton-inpatient-nch-ip-ncvrd-chrg-amt-extension","valueMoney":{"code":"USD","system":"urn:iso:std:iso:4217","value":0}},{"url":"https://bluebutton.cms.gov/assets/ig/StructureDefinition-bluebutton-inpatient-nch-ip-tot-ddctn-amt-extension","valueMoney":{"code":"USD","system":"urn:iso:std:iso:4217","value":0}},{"url":"https://bluebutton.cms.gov/assets/ig/StructureDefinition-bluebutton-inpatient-clm-pps-cptl-dsprprtnt-shr-amt-extension","valueMoney":{"code":"USD","system":"urn:iso:std:iso:4217","value":0}},{"url":"https://bluebutton.cms.gov/assets/ig/StructureDefinition-bluebutton-inpatient-clm-pps-cptl-excptn-amt-extension","valueMoney":{"code":"USD","system":"urn:iso:std:iso:4217","value":0}},{"url":"https://bluebutton.cms.gov/assets/ig/StructureDefinition-bluebutton-inpatient-clm-pps-cptl-fsp-amt-extension","valueMoney":{"code":"USD","system":"urn:iso:std:iso:4217","value":0}},{"url":"https://bluebutton.cms.gov/assets/ig/StructureDefinition-bluebutton-inpatient-clm-pps-cptl-ime-amt-extension","valueMoney":{"code":"USD","system":"urn:iso:std:iso:4217","value":400}},{"url":"https://bluebutton.cms.gov/assets/ig/StructureDefinition-bluebutton-inpatient-clm-pps-cptl-outlier-amt-extension","valueMoney":{"code":"USD","system":"urn:iso:std:iso:4217","value":0}},{"url":"https://bluebutton.cms.gov/assets/ig/StructureDefinition-bluebutton-inpatient-clm-pps-old-cptl-hld-hrmls-amt-extension","valueMoney":{"code":"USD","system":"urn:iso:std:iso:4217","value":0}},{"url":"https://bluebutton.cms.gov/assets/ig/StructureDefinition-bluebutton-inpatient-nch-drg-outlier-aprvd-pmt-amt-extension","valueMoney":{"code":"USD","system":"urn:iso:std:iso:4217","value":0}},{"url":"https://bluebutton.cms.gov/assets/ig/StructureDefinition-bluebutton-inpatient-nch-bene-blood-ddctbl-lblty-am-extension","valueMoney":{"code":"USD","system":"urn:iso:std:iso:4217","value":0}},{"url":"https://bluebutton.cms.gov/assets/ig/StructureDefinition-bluebutton-inpatient-clm-mdcr-non-pmt-rsn-cd-extension","valueCoding":{"code":"N","display":"All other reasons for non-payment","system":"https://bluebutton.cms.gov/assets/ig/CodeSystem-clm-mdcr-non-pmt-rsn-cd"}},{"url":"https://bluebutton.cms.gov/assets/ig/StructureDefinition-bluebutton-inpatient-prpayamt-extension","valueMoney":{"code":"USD","system":"urn:iso:std:iso:4217","value":0}},{"url":"https://bluebutton.cms.gov/assets/ig/StructureDefinition-bluebutton-inpatient-fi-num-extension","valueIdentifier":{"system":"https://bluebutton.cms.gov/assets/ig/CodeSystem-fi-num","value":"002000"}}],"id":"7e0da805-d510-435d-bb40-8bee2141ed4c","identifier":[{"system":"https://bluebutton.cms.gov/resources/variables/clm_id","value":"82aca724-ea67-40fc-937e-d0966dd3102a"},{"system":"https://bluebutton.cms.gov/resources/identifier/claim-group","value":"99999999999"}],"insurance":{"coverage":{"reference":"#coverage"}},"item":[{"extension":[{"url":"https://bluebutton.cms.gov/assets/ig/StructureDefinition-bluebutton-inpatient-rev-cntr-ndc-qty-extension","valueQuantity":{"value":0}}],"locationCodeableConcept":{"coding":[{"code":"21","display":"Inpatient Hospital","system":"https://bluebutton.cms.gov/resources/variables/line_place_of_srvc_cd"}]},"sequence":1}],"meta":{"lastUpdated":"2019-04-09T09:55:23.580759+00:00","profile":["https://bluebutton.cms.gov/assets/ig/StructureDefinition-bluebutton-inpatient-claim"],"versionId":"MTU1NDgwMzcyMzU4MDc1OTAwMA"},"organization":{"identifier":{"value":"15aeb131-dae7-4392-bb46-3b4aeddf31d7"}},"patient":{"reference":"Patient/000a04a1-7f9d-4325-8f99-0fd76e46bab3"},"payment":{"amount":{"code":"USD","system":"urn:iso:std:iso:4217","value":0}},"provider":{"identifier":{"value":"417e9e98-335d-42f9-a957-ab1e79dca107"}},"resourceType":"ExplanationOfBenefit","status":"active","totalCost":{"code":"USD","system":"urn:iso:std:iso:4217","value":125},"type":{"coding":[{"code":"71","display":"Local carrier non-durable medical equipment, prosthetics, orthotics, and supplies (DMEPOS) claim","system":"https://bluebutton.cms.gov/resources/variables/nch_clm_type_cd"},{"code":"CARRIER","display":"EOB Type","system":"https://bluebutton.cms.gov/resources/codesystem/eob-type"},{"code":"professional","display":"Claim Type","system":"http://hl7.org/fhir/ex-claimtype"},{"code":"O","display":"Part B physician/supplier claim record (processed by local carriers; can include DMEPOS services)","system":"https://bluebutton.cms.gov/resources/variables/nch_near_line_rec_ident_cd"}]}}},{"resource":{"billablePeriod":{"end":"2012-04-18T10:32:11-04:00","start":"2011-04-18T10:32:11-04:00"},"careTeam":[{"provider":{"identifier":{"system":"http://hl7.org/fhir/sid/us-npi","value":"99999999"}},"role":{"coding":[{"code":"primary","display":"Primary Care Practitioner","system":"http://hl7.org/fhir/claimcareteamrole"}]},"sequence":1}],"claim":{"reference":"Claim/527d6da8-8409-4582-bc79-efd7b3de9517"},"contained":[{"id":"1","intent":"order","recipient":[{"identifier":{"system":"http://hl7.org/fhir/sid/us-npi","value":"99999999"}}],"requester":{"agent":{"identifier":{"system":"http://hl7.org/fhir/sid/us-npi","value":"99999999"}}},"resourceType":"ReferralRequest","status":"completed","subject":{"reference":"Patient/000a04a1-7f9d-4325-8f99-0fd76e46bab3"}},{"id":"coverage","resourceType":"Coverage","type":{"text":"private"}}],"created":"2011-04-18T10:32:11-04:00","id":"8d46213c-e689-49d7-8c66-4fa127d9b318","identifier":[{"system":"https://bluebutton.cms.gov/resources/variables/clm_id","value":"527d6da8-8409-4582-bc79-efd7b3de9517"},{"system":"https://bluebutton.cms.gov/resources/identifier/claim-group","value":"99999999999"}],"insurance":{"coverage":{"reference":"#coverage"}},"item":[{"category":{"coding":[{"code":"1","display":"Medical care","system":"https://bluebutton.cms.gov/resources/variables/line_cms_type_srvc_cd"}]},"encounter":[{"reference":"Encounter/995aa808-fde7-4d91-85e7-cb57fb86470d"}],"locationCodeableConcept":{"coding":[{"code":"21","display":"Inpatient Hospital","system":"https://bluebutton.cms.gov/resources/variables/line_place_of_srvc_cd"}]},"sequence":1,"servicedPeriod":{"end":"2011-04-18T10:32:11-04:00","start":"2011-04-18T10:17:11-04:00"}},{"adjudication":[{"amount":{"code":"USD","system":"urn:iso:std:iso:4217","value":28.104000000000003},"category":{"coding":[{"code":"https://bluebutton.cms.gov/resources/variables/line_coinsrnc_amt","display":"Line Beneficiary Coinsurance Amount","system":"https://bluebutton.cms.gov/resources/codesystem/adjudication"}]}},{"amount":{"code":"USD","system":"urn:iso:std:iso:4217","value":112.41600000000001},"category":{"coding":[{"code":"https://bluebutton.cms.gov/resources/variables/line_prvdr_pmt_amt","display":"Line Provider Payment Amount","system":"https://bluebutton.cms.gov/resources/codesystem/adjudication"}]}},{"amount":{"code":"USD","system":"urn:iso:std:iso:4217","value":140.52},"category":{"coding":[{"code":"https://bluebutton.cms.gov/resources/variables/line_sbmtd_chrg_amt","display":"Line Submitted Charge Amount","system":"https://bluebutton.cms.gov/resources/codesystem/adjudication"}]}},{"amount":{"code":"USD","system":"urn:iso:std:iso:4217","value":140.52},"category":{"coding":[{"code":"https://bluebutton.cms.gov/resources/variables/line_alowd_chrg_amt","display":"Line Allowed Charge Amount","system":"https://bluebutton.cms.gov/resources/codesystem/adjudication"}]}},{"amount":{"code":"USD","system":"urn:iso:std:iso:4217","value":0},"category":{"coding":[{"code":"https://bluebutton.cms.gov/resources/variables/line_bene_ptb_ddctbl_amt","display":"Line Beneficiary Part B Deductible Amount","system":"https://bluebutton.cms.gov/resources/codesystem/adjudication"}]}},{"category":{"coding":[{"code":"https://bluebutton.cms.gov/resources/variables/line_prcsg_ind_cd","display":"Line Processing Indicator Code","system":"https://bluebutton.cms.gov/resources/codesystem/adjudication"}]},"reason":{"coding":[{"code":"A","display":"Allowed","system":"https://bluebutton.cms.gov/resources/variables/line_prcsg_ind_cd"}]}}],"category":{"coding":[{"code":"1","display":"Medical care","system":"https://bluebutton.cms.gov/resources/variables/line_cms_type_srvc_cd"}]},"informationLinkId":[1],"locationCodeableConcept":{"coding":[{"code":"21","display":"Inpatient Hospital","system":"https://bluebutton.cms.gov/resources/variables/line_place_of_srvc_cd"}]},"net":{"code":"USD","system":"urn:iso:std:iso:4217","value":140.52},"sequence":2,"servicedPeriod":{"end":"2011-04-18T10:32:11-04:00","start":"2011-04-18T10:17:11-04:00"}}],"meta":{"lastUpdated":"2019-04-09T09:55:24.653178+00:00","versionId":"MTU1NDgwMzcyNDY1MzE3ODAwMA"},"organization":{"identifier":{"value":"15aeb131-dae7-4392-bb46-3b4aeddf31d7"}},"patient":{"reference":"Patient/000a04a1-7f9d-4325-8f99-0fd76e46bab3"},"payment":{"amount":{"code":"USD","system":"urn:iso:std:iso:4217","value":112.41600000000001}},"provider":{"identifier":{"value":"417e9e98-335d-42f9-a957-ab1e79dca107"}},"referral":{"reference":"#1"},"resourceType":"ExplanationOfBenefit","status":"active","totalCost":{"code":"USD","system":"urn:iso:std:iso:4217","value":265.52},"type":{"coding":[{"code":"71","display":"Local carrier non-durable medical equipment, prosthetics, orthotics, and supplies (DMEPOS) claim","system":"https://bluebutton.cms.gov/resources/variables/nch_clm_type_cd"},{"code":"CARRIER","display":"EOB Type","system":"https://bluebutton.cms.gov/resources/codesystem/eob-type"},{"code":"professional","display":"Claim Type","system":"http://hl7.org/fhir/ex-claimtype"},{"code":"O","display":"Part B physician/supplier claim record (processed by local carriers; can include DMEPOS services)","system":"https://bluebutton.cms.gov/resources/variables/nch_near_line_rec_ident_cd"}]}}},{"resource":{"billablePeriod":{"end":"2015-03-17T10:47:11-04:00","start":"2014-03-17T10:47:11-04:00"},"careTeam":[{"provider":{"identifier":{"system":"http://hl7.org/fhir/sid/us-npi","value":"99999999"}},"role":{"coding":[{"code":"primary","display":"Primary Care Practitioner","system":"http://hl7.org/fhir/claimcareteamrole"}]},"sequence":1}],"claim":{"reference":"Claim/7c1c4340-11a2-4290-85ff-d18d0e2327f0"},"contained":[{"id":"1","intent":"order","recipient":[{"identifier":{"system":"http://hl7.org/fhir/sid/us-npi","value":"99999999"}}],"requester":{"agent":{"identifier":{"system":"http://hl7.org/fhir/sid/us-npi","value":"99999999"}}},"resourceType":"ReferralRequest","status":"completed","subject":{"reference":"Patient/000a04a1-7f9d-4325-8f99-0fd76e46bab3"}},{"id":"coverage","resourceType":"Coverage","type":{"text":"private"}}],"created":"2014-03-17T10:47:11-04:00","id":"900bcedc-766e-419a-9874-ff65ca7cbcef","identifier":[{"system":"https://bluebutton.cms.gov/resources/variables/clm_id","value":"7c1c4340-11a2-4290-85ff-d18d0e2327f0"},{"system":"https://bluebutton.cms.gov/resources/identifier/claim-group","value":"99999999999"}],"insurance":{"coverage":{"reference":"#coverage"}},"item":[{"category":{"coding":[{"code":"1","display":"Medical care","system":"https://bluebutton.cms.gov/resources/variables/line_cms_type_srvc_cd"}]},"encounter":[{"reference":"Encounter/8a3dee06-c791-4a66-a4ff-4b17522e75e8"}],"locationCodeableConcept":{"coding":[{"code":"21","display":"Inpatient Hospital","system":"https://bluebutton.cms.gov/resources/variables/line_place_of_srvc_cd"}]},"sequence":1,"servicedPeriod":{"end":"2014-03-17T10:47:11-04:00","start":"2014-03-17T10:17:11-04:00"}},{"adjudication":[{"amount":{"code":"USD","system":"urn:iso:std:iso:4217","value":28.104000000000003},"category":{"coding":[{"code":"https://bluebutton.cms.gov/resources/variables/line_coinsrnc_amt","display":"Line Beneficiary Coinsurance Amount","system":"https://bluebutton.cms.gov/resources/codesystem/adjudication"}]}},{"amount":{"code":"USD","system":"urn:iso:std:iso:4217","value":112.41600000000001},"category":{"coding":[{"code":"https://bluebutton.cms.gov/resources/variables/line_prvdr_pmt_amt","display":"Line Provider Payment Amount","system":"https://bluebutton.cms.gov/resources/codesystem/adjudication"}]}},{"amount":{"code":"USD","system":"urn:iso:std:iso:4217","value":140.52},"category":{"coding":[{"code":"https://bluebutton.cms.gov/resources/variables/line_sbmtd_chrg_amt","display":"Line Submitted Charge Amount","system":"https://bluebutton.cms.gov/resources/codesystem/adjudication"}]}},{"amount":{"code":"USD","system":"urn:iso:std:iso:4217","value":140.52},"category":{"coding":[{"code":"https://bluebutton.cms.gov/resources/variables/line_alowd_chrg_amt","display":"Line Allowed Charge Amount","system":"https://bluebutton.cms.gov/resources/codesystem/adjudication"}]}},{"amount":{"code":"USD","system":"urn:iso:std:iso:4217","value":0},"category":{"coding":[{"code":"https://bluebutton.cms.gov/resources/variables/line_bene_ptb_ddctbl_amt","display":"Line Beneficiary Part B Deductible Amount","system":"https://bluebutton.cms.gov/resources/codesystem/adjudication"}]}},{"category":{"coding":[{"code":"https://bluebutton.cms.gov/resources/variables/line_prcsg_ind_cd","display":"Line Processing Indicator Code","system":"https://bluebutton.cms.gov/resources/codesystem/adjudication"}]},"reason":{"coding":[{"code":"A","display":"Allowed","system":"https://bluebutton.cms.gov/resources/variables/line_prcsg_ind_cd"}]}}],"category":{"coding":[{"code":"1","display":"Medical care","system":"https://bluebutton.cms.gov/resources/variables/line_cms_type_srvc_cd"}]},"informationLinkId":[1],"locationCodeableConcept":{"coding":[{"code":"21","display":"Inpatient Hospital","system":"https://bluebutton.cms.gov/resources/variables/line_place_of_srvc_cd"}]},"net":{"code":"USD","system":"urn:iso:std:iso:4217","value":140.52},"sequence":2,"servicedPeriod":{"end":"2014-03-17T10:47:11-04:00","start":"2014-03-17T10:17:11-04:00"}},{"adjudication":[{"amount":{"code":"USD","system":"urn:iso:std:iso:4217","value":28.104000000000003},"category":{"coding":[{"code":"https://bluebutton.cms.gov/resources/variables/line_coinsrnc_amt","display":"Line Beneficiary Coinsurance Amount","system":"https://bluebutton.cms.gov/resources/codesystem/adjudication"}]}},{"amount":{"code":"USD","system":"urn:iso:std:iso:4217","value":112.41600000000001},"category":{"coding":[{"code":"https://bluebutton.cms.gov/resources/variables/line_prvdr_pmt_amt","display":"Line Provider Payment Amount","system":"https://bluebutton.cms.gov/resources/codesystem/adjudication"}]}},{"amount":{"code":"USD","system":"urn:iso:std:iso:4217","value":140.52},"category":{"coding":[{"code":"https://bluebutton.cms.gov/resources/variables/line_sbmtd_chrg_amt","display":"Line Submitted Charge Amount","system":"https://bluebutton.cms.gov/resources/codesystem/adjudication"}]}},{"amount":{"code":"USD","system":"urn:iso:std:iso:4217","value":140.52},"category":{"coding":[{"code":"https://bluebutton.cms.gov/resources/variables/line_alowd_chrg_amt","display":"Line Allowed Charge Amount","system":"https://bluebutton.cms.gov/resources/codesystem/adjudication"}]}},{"amount":{"code":"USD","system":"urn:iso:std:iso:4217","value":0},"category":{"coding":[{"code":"https://bluebutton.cms.gov/resources/variables/line_bene_ptb_ddctbl_amt","display":"Line Beneficiary Part B Deductible Amount","system":"https://bluebutton.cms.gov/resources/codesystem/adjudication"}]}},{"category":{"coding":[{"code":"https://bluebutton.cms.gov/resources/variables/line_prcsg_ind_cd","display":"Line Processing Indicator Code","system":"https://bluebutton.cms.gov/resources/codesystem/adjudication"}]},"reason":{"coding":[{"code":"A","display":"Allowed","system":"https://bluebutton.cms.gov/resources/variables/line_prcsg_ind_cd"}]}}],"category":{"coding":[{"code":"1","display":"Medical care","system":"https://bluebutton.cms.gov/resources/variables/line_cms_type_srvc_cd"}]},"informationLinkId":[2],"locationCodeableConcept":{"coding":[{"code":"21","display":"Inpatient Hospital","system":"https://bluebutton.cms.gov/resources/variables/line_place_of_srvc_cd"}]},"net":{"code":"USD","system":"urn:iso:std:iso:4217","value":140.52},"sequence":3,"servicedPeriod":{"end":"2014-03-17T10:47:11-04:00","start":"2014-03-17T10:17:11-04:00"}},{"adjudication":[{"amount":{"code":"USD","system":"urn:iso:std:iso:4217","value":167.9},"category":{"coding":[{"code":"https://bluebutton.cms.gov/resources/variables/line_coinsrnc_amt","display":"Line Beneficiary Coinsurance Amount","system":"https://bluebutton.cms.gov/resources/codesystem/adjudication"}]}},{"amount":{"code":"USD","system":"urn:iso:std:iso:4217","value":671.6},"category":{"coding":[{"code":"https://bluebutton.cms.gov/resources/variables/line_prvdr_pmt_amt","display":"Line Provider Payment Amount","system":"https://bluebutton.cms.gov/resources/codesystem/adjudication"}]}},{"amount":{"code":"USD","system":"urn:iso:std:iso:4217","value":839.5},"category":{"coding":[{"code":"https://bluebutton.cms.gov/resources/variables/line_sbmtd_chrg_amt","display":"Line Submitted Charge Amount","system":"https://bluebutton.cms.gov/resources/codesystem/adjudication"}]}},{"amount":{"code":"USD","system":"urn:iso:std:iso:4217","value":839.5},"category":{"coding":[{"code":"https://bluebutton.cms.gov/resources/variables/line_alowd_chrg_amt","display":"Line Allowed Charge Amount","system":"https://bluebutton.cms.gov/resources/codesystem/adjudication"}]}},{"amount":{"code":"USD","system":"urn:iso:std:iso:4217","value":0},"category":{"coding":[{"code":"https://bluebutton.cms.gov/resources/variables/line_bene_ptb_ddctbl_amt","display":"Line Beneficiary Part B Deductible Amount","system":"https://bluebutton.cms.gov/resources/codesystem/adjudication"}]}},{"category":{"coding":[{"code":"https://bluebutton.cms.gov/resources/variables/line_prcsg_ind_cd","display":"Line Processing Indicator Code","system":"https://bluebutton.cms.gov/resources/codesystem/adjudication"}]},"reason":{"coding":[{"code":"A","display":"Allowed","system":"https://bluebutton.cms.gov/resources/variables/line_prcsg_ind_cd"}]}}],"category":{"coding":[{"code":"1","display":"Medical care","system":"https://bluebutton.cms.gov/resources/variables/line_cms_type_srvc_cd"}]},"locationCodeableConcept":{"coding":[{"code":"21","display":"Inpatient Hospital","system":"https://bluebutton.cms.gov/resources/variables/line_place_of_srvc_cd"}]},"net":{"code":"USD","system":"urn:iso:std:iso:4217","value":839.5},"sequence":4,"service":{"coding":[{"code":"428191000124101","system":"http://snomed.info/sct","version":"v1"}]},"servicedPeriod":{"end":"2014-03-17T10:47:11-04:00","start":"2014-03-17T10:17:11-04:00"}}],"meta":{"lastUpdated":"2019-04-09T09:55:26.697197+00:00","versionId":"MTU1NDgwMzcyNjY5NzE5NzAwMA"},"organization":{"identifier":{"value":"15aeb131-dae7-4392-bb46-3b4aeddf31d7"}},"patient":{"reference":"Patient/000a04a1-7f9d-4325-8f99-0fd76e46bab3"},"payment":{"amount":{"code":"USD","system":"urn:iso:std:iso:4217","value":896.432}},"provider":{"identifier":{"value":"417e9e98-335d-42f9-a957-ab1e79dca107"}},"referral":{"reference":"#1"},"resourceType":"ExplanationOfBenefit","status":"active","totalCost":{"code":"USD","system":"urn:iso:std:iso:4217","value":1245.54},"type":{"coding":[{"code":"71","display":"Local carrier non-durable medical equipment, prosthetics, orthotics, and supplies (DMEPOS) claim","system":"https://bluebutton.cms.gov/resources/variables/nch_clm_type_cd"},{"code":"CARRIER","display":"EOB Type","system":"https://bluebutton.cms.gov/resources/codesystem/eob-type"},{"code":"professional","display":"Claim Type","system":"http://hl7.org/fhir/ex-claimtype"},{"code":"O","display":"Part B physician/supplier claim record (processed by local carriers; can include DMEPOS services)","system":"https://bluebutton.cms.gov/resources/variables/nch_near_line_rec_ident_cd"}]}}},{"resource":{"billablePeriod":{"end":"2014-01-13T09:32:11-05:00","extension":[{"url":"https://bluebutton.cms.gov/assets/ig/StructureDefinition-bluebutton-inpatient-claim-query-cd-extension","valueCoding":{"code":"3","display":"Final Bill","system":"https://bluebutton.cms.gov/assets/ig/ValueSet-claim-query-cd"}}],"start":"2013-01-13T09:32:11-05:00"},"careTeam":[{"provider":{"identifier":{"system":"http://hl7.org/fhir/sid/us-npi","value":"99999999"}},"role":{"coding":[{"code":"primary","display":"Primary Care Practitioner","system":"http://hl7.org/fhir/claimcareteamrole"}]},"sequence":1}],"contained":[{"id":"coverage","resourceType":"Coverage","type":{"text":"private"}}],"extension":[{"url":"https://bluebutton.cms.gov/assets/ig/StructureDefinition-bluebutton-inpatient-ime-op-clm-val-amt-extension","valueMoney":{"code":"USD","system":"urn:iso:std:iso:4217","value":400}},{"url":"https://bluebutton.cms.gov/assets/ig/StructureDefinition-bluebutton-inpatient-dsh-op-clm-val-amt-extension","valueMoney":{"code":"USD","system":"urn:iso:std:iso:4217","value":0}},{"url":"https://bluebutton.cms.gov/assets/ig/StructureDefinition-bluebutton-inpatient-clm-pass-thru-per-diem-amt-extension","valueMoney":{"code":"USD","system":"urn:iso:std:iso:4217","value":0}},{"url":"https://bluebutton.cms.gov/assets/ig/StructureDefinition-bluebutton-inpatient-nch-profnl-cmpnt-chrg-amt-extension","valueMoney":{"code":"USD","system":"urn:iso:std:iso:4217","value":0}},{"url":"https://bluebutton.cms.gov/assets/ig/StructureDefinition-bluebutton-inpatient-clm-tot-pps-cptl-amt-extension","valueMoney":{"code":"USD","system":"urn:iso:std:iso:4217","value":0}},{"url":"https://bluebutton.cms.gov/assets/ig/StructureDefinition-bluebutton-inpatient-nch-bene-ip-ddctbl-amt-extension","valueMoney":{"code":"USD","system":"urn:iso:std:iso:4217","value":0}},{"url":"https://bluebutton.cms.gov/assets/ig/StructureDefinition-bluebutton-inpatient-nch-bene-pta-coinsrnc-lblty-amt-extension","valueMoney":{"code":"USD","system":"urn:iso:std:iso:4217","value":0}},{"url":"https://bluebutton.cms.gov/assets/ig/StructureDefinition-bluebutton-inpatient-nch-ip-ncvrd-chrg-amt-extension","valueMoney":{"code":"USD","system":"urn:iso:std:iso:4217","value":0}},{"url":"https://bluebutton.cms.gov/assets/ig/StructureDefinition-bluebutton-inpatient-nch-ip-tot-ddctn-amt-extension","valueMoney":{"code":"USD","system":"urn:iso:std:iso:4217","value":0}},{"url":"https://bluebutton.cms.gov/assets/ig/StructureDefinition-bluebutton-inpatient-clm-pps-cptl-dsprprtnt-shr-amt-extension","valueMoney":{"code":"USD","system":"urn:iso:std:iso:4217","value":0}},{"url":"https://bluebutton.cms.gov/assets/ig/StructureDefinition-bluebutton-inpatient-clm-pps-cptl-excptn-amt-extension","valueMoney":{"code":"USD","system":"urn:iso:std:iso:4217","value":0}},{"url":"https://bluebutton.cms.gov/assets/ig/StructureDefinition-bluebutton-inpatient-clm-pps-cptl-fsp-amt-extension","valueMoney":{"code":"USD","system":"urn:iso:std:iso:4217","value":0}},{"url":"https://bluebutton.cms.gov/assets/ig/StructureDefinition-bluebutton-inpatient-clm-pps-cptl-ime-amt-extension","valueMoney":{"code":"USD","system":"urn:iso:std:iso:4217","value":400}},{"url":"https://bluebutton.cms.gov/assets/ig/StructureDefinition-bluebutton-inpatient-clm-pps-cptl-outlier-amt-extension","valueMoney":{"code":"USD","system":"urn:iso:std:iso:4217","value":0}},{"url":"https://bluebutton.cms.gov/assets/ig/StructureDefinition-bluebutton-inpatient-clm-pps-old-cptl-hld-hrmls-amt-extension","valueMoney":{"code":"USD","system":"urn:iso:std:iso:4217","value":0}},{"url":"https://bluebutton.cms.gov/assets/ig/StructureDefinition-bluebutton-inpatient-nch-drg-outlier-aprvd-pmt-amt-extension","valueMoney":{"code":"USD","system":"urn:iso:std:iso:4217","value":0}},{"url":"https://bluebutton.cms.gov/assets/ig/StructureDefinition-bluebutton-inpatient-nch-bene-blood-ddctbl-lblty-am-extension","valueMoney":{"code":"USD","system":"urn:iso:std:iso:4217","value":0}},{"url":"https://bluebutton.cms.gov/assets/ig/StructureDefinition-bluebutton-inpatient-clm-mdcr-non-pmt-rsn-cd-extension","valueCoding":{"code":"N","display":"All other reasons for non-payment","system":"https://bluebutton.cms.gov/assets/ig/CodeSystem-clm-mdcr-non-pmt-rsn-cd"}},{"url":"https://bluebutton.cms.gov/assets/ig/StructureDefinition-bluebutton-inpatient-prpayamt-extension","valueMoney":{"code":"USD","system":"urn:iso:std:iso:4217","value":0}},{"url":"https://bluebutton.cms.gov/assets/ig/StructureDefinition-bluebutton-inpatient-fi-num-extension","valueIdentifier":{"system":"https://bluebutton.cms.gov/assets/ig/CodeSystem-fi-num","value":"002000"}}],"id":"98ae0473-07b0-4b29-acc0-1c210ddb4e3f","identifier":[{"system":"https://bluebutton.cms.gov/resources/variables/clm_id","value":"7e4229d6-2005-4dd7-98a8-5c05b127f517"},{"system":"https://bluebutton.cms.gov/resources/identifier/claim-group","value":"99999999999"}],"insurance":{"coverage":{"reference":"#coverage"}},"item":[{"extension":[{"url":"https://bluebutton.cms.gov/assets/ig/StructureDefinition-bluebutton-inpatient-rev-cntr-ndc-qty-extension","valueQuantity":{"value":0}}],"locationCodeableConcept":{"coding":[{"code":"21","display":"Inpatient Hospital","system":"https://bluebutton.cms.gov/resources/variables/line_place_of_srvc_cd"}]},"sequence":1}],"meta":{"lastUpdated":"2019-04-09T09:55:25.661394+00:00","profile":["https://bluebutton.cms.gov/assets/ig/StructureDefinition-bluebutton-inpatient-claim"],"versionId":"MTU1NDgwMzcyNTY2MTM5NDAwMA"},"organization":{"identifier":{"value":"15aeb131-dae7-4392-bb46-3b4aeddf31d7"}},"patient":{"reference":"Patient/000a04a1-7f9d-4325-8f99-0fd76e46bab3"},"payment":{"amount":{"code":"USD","system":"urn:iso:std:iso:4217","value":0}},"provider":{"identifier":{"value":"417e9e98-335d-42f9-a957-ab1e79dca107"}},"resourceType":"ExplanationOfBenefit","status":"active","totalCost":{"code":"USD","system":"urn:iso:std:iso:4217","value":125},"type":{"coding":[{"code":"71","display":"Local carrier non-durable medical equipment, prosthetics, orthotics, and supplies (DMEPOS) claim","system":"https://bluebutton.cms.gov/resources/variables/nch_clm_type_cd"},{"code":"CARRIER","display":"EOB Type","system":"https://bluebutton.cms.gov/resources/codesystem/eob-type"},{"code":"professional","display":"Claim Type","system":"http://hl7.org/fhir/ex-claimtype"},{"code":"O","display":"Part B physician/supplier claim record (processed by local carriers; can include DMEPOS services)","system":"https://bluebutton.cms.gov/resources/variables/nch_near_line_rec_ident_cd"}]}}},{"resource":{"billablePeriod":{"end":"2014-04-29T10:47:11-04:00","start":"2013-04-29T10:47:11-04:00"},"careTeam":[{"provider":{"identifier":{"system":"http://hl7.org/fhir/sid/us-npi","value":"99999999"}},"role":{"coding":[{"code":"primary","display":"Primary Care Practitioner","system":"http://hl7.org/fhir/claimcareteamrole"}]},"sequence":1}],"claim":{"reference":"Claim/dd5f719f-1199-43b8-ac5c-4009bb9115db"},"contained":[{"id":"1","intent":"order","recipient":[{"identifier":{"system":"http://hl7.org/fhir/sid/us-npi","value":"99999999"}}],"requester":{"agent":{"identifier":{"system":"http://hl7.org/fhir/sid/us-npi","value":"99999999"}}},"resourceType":"ReferralRequest","status":"completed","subject":{"reference":"Patient/000a04a1-7f9d-4325-8f99-0fd76e46bab3"}},{"id":"coverage","resourceType":"Coverage","type":{"text":"private"}}],"created":"2013-04-29T10:47:11-04:00","id":"9a00da09-ff49-4cf3-b89b-f49379f15bdb","identifier":[{"system":"https://bluebutton.cms.gov/resources/variables/clm_id","value":"dd5f719f-1199-43b8-ac5c-4009bb9115db"},{"system":"https://bluebutton.cms.gov/resources/identifier/claim-group","value":"99999999999"}],"insurance":{"coverage":{"reference":"#coverage"}},"item":[{"category":{"coding":[{"code":"1","display":"Medical care","system":"https://bluebutton.cms.gov/resources/variables/line_cms_type_srvc_cd"}]},"encounter":[{"reference":"Encounter/ffe08eab-30e2-43f6-880d-926d9ae3e906"}],"locationCodeableConcept":{"coding":[{"code":"21","display":"Inpatient Hospital","system":"https://bluebutton.cms.gov/resources/variables/line_place_of_srvc_cd"}]},"sequence":1,"servicedPeriod":{"end":"2013-04-29T10:47:11-04:00","start":"2013-04-29T10:17:11-04:00"}},{"adjudication":[{"amount":{"code":"USD","system":"urn:iso:std:iso:4217","value":28.104000000000003},"category":{"coding":[{"code":"https://bluebutton.cms.gov/resources/variables/line_coinsrnc_amt","display":"Line Beneficiary Coinsurance Amount","system":"https://bluebutton.cms.gov/resources/codesystem/adjudication"}]}},{"amount":{"code":"USD","system":"urn:iso:std:iso:4217","value":112.41600000000001},"category":{"coding":[{"code":"https://bluebutton.cms.gov/resources/variables/line_prvdr_pmt_amt","display":"Line Provider Payment Amount","system":"https://bluebutton.cms.gov/resources/codesystem/adjudication"}]}},{"amount":{"code":"USD","system":"urn:iso:std:iso:4217","value":140.52},"category":{"coding":[{"code":"https://bluebutton.cms.gov/resources/variables/line_sbmtd_chrg_amt","display":"Line Submitted Charge Amount","system":"https://bluebutton.cms.gov/resources/codesystem/adjudication"}]}},{"amount":{"code":"USD","system":"urn:iso:std:iso:4217","value":140.52},"category":{"coding":[{"code":"https://bluebutton.cms.gov/resources/variables/line_alowd_chrg_amt","display":"Line Allowed Charge Amount","system":"https://bluebutton.cms.gov/resources/codesystem/adjudication"}]}},{"amount":{"code":"USD","system":"urn:iso:std:iso:4217","value":0},"category":{"coding":[{"code":"https://bluebutton.cms.gov/resources/variables/line_bene_ptb_ddctbl_amt","display":"Line Beneficiary Part B Deductible Amount","system":"https://bluebutton.cms.gov/resources/codesystem/adjudication"}]}},{"category":{"coding":[{"code":"https://bluebutton.cms.gov/resources/variables/line_prcsg_ind_cd","display":"Line Processing Indicator Code","system":"https://bluebutton.cms.gov/resources/codesystem/adjudication"}]},"reason":{"coding":[{"code":"A","display":"Allowed","system":"https://bluebutton.cms.gov/resources/variables/line_prcsg_ind_cd"}]}}],"category":{"coding":[{"code":"1","display":"Medical care","system":"https://bluebutton.cms.gov/resources/variables/line_cms_type_srvc_cd"}]},"informationLinkId":[1],"locationCodeableConcept":{"coding":[{"code":"21","display":"Inpatient Hospital","system":"https://bluebutton.cms.gov/resources/variables/line_place_of_srvc_cd"}]},"net":{"code":"USD","system":"urn:iso:std:iso:4217","value":140.52},"sequence":2,"servicedPeriod":{"end":"2013-04-29T10:47:11-04:00","start":"2013-04-29T10:17:11-04:00"}},{"adjudication":[{"amount":{"code":"USD","system":"urn:iso:std:iso:4217","value":113.51800000000001},"category":{"coding":[{"code":"https://bluebutton.cms.gov/resources/variables/line_coinsrnc_amt","display":"Line Beneficiary Coinsurance Amount","system":"https://bluebutton.cms.gov/resources/codesystem/adjudication"}]}},{"amount":{"code":"USD","system":"urn:iso:std:iso:4217","value":454.07200000000006},"category":{"coding":[{"code":"https://bluebutton.cms.gov/resources/variables/line_prvdr_pmt_amt","display":"Line Provider Payment Amount","system":"https://bluebutton.cms.gov/resources/codesystem/adjudication"}]}},{"amount":{"code":"USD","system":"urn:iso:std:iso:4217","value":567.59},"category":{"coding":[{"code":"https://bluebutton.cms.gov/resources/variables/line_sbmtd_chrg_amt","display":"Line Submitted Charge Amount","system":"https://bluebutton.cms.gov/resources/codesystem/adjudication"}]}},{"amount":{"code":"USD","system":"urn:iso:std:iso:4217","value":567.59},"category":{"coding":[{"code":"https://bluebutton.cms.gov/resources/variables/line_alowd_chrg_amt","display":"Line Allowed Charge Amount","system":"https://bluebutton.cms.gov/resources/codesystem/adjudication"}]}},{"amount":{"code":"USD","system":"urn:iso:std:iso:4217","value":0},"category":{"coding":[{"code":"https://bluebutton.cms.gov/resources/variables/line_bene_ptb_ddctbl_amt","display":"Line Beneficiary Part B Deductible Amount","system":"https://bluebutton.cms.gov/resources/codesystem/adjudication"}]}},{"category":{"coding":[{"code":"https://bluebutton.cms.gov/resources/variables/line_prcsg_ind_cd","display":"Line Processing Indicator Code","system":"https://bluebutton.cms.gov/resources/codesystem/adjudication"}]},"reason":{"coding":[{"code":"A","display":"Allowed","system":"https://bluebutton.cms.gov/resources/variables/line_prcsg_ind_cd"}]}}],"category":{"coding":[{"code":"1","display":"Medical care","system":"https://bluebutton.cms.gov/resources/variables/line_cms_type_srvc_cd"}]},"locationCodeableConcept":{"coding":[{"code":"21","display":"Inpatient Hospital","system":"https://bluebutton.cms.gov/resources/variables/line_place_of_srvc_cd"}]},"net":{"code":"USD","system":"urn:iso:std:iso:4217","value":567.59},"sequence":3,"service":{"coding":[{"code":"428191000124101","system":"http://snomed.info/sct","version":"v1"}]},"servicedPeriod":{"end":"2013-04-29T10:47:11-04:00","start":"2013-04-29T10:17:11-04:00"}}],"meta":{"lastUpdated":"2019-04-09T09:55:25.668228+00:00","versionId":"MTU1NDgwMzcyNTY2ODIyODAwMA"},"organization":{"identifier":{"value":"15aeb131-dae7-4392-bb46-3b4aeddf31d7"}},"patient":{"reference":"Patient/000a04a1-7f9d-4325-8f99-0fd76e46bab3"},"payment":{"amount":{"code":"USD","system":"urn:iso:std:iso:4217","value":566.488}},"provider":{"identifier":{"value":"417e9e98-335d-42f9-a957-ab1e79dca107"}},"referral":{"reference":"#1"},"resourceType":"ExplanationOfBenefit","status":"active","totalCost":{"code":"USD","system":"urn:iso:std:iso:4217","value":833.11},"type":{"coding":[{"code":"71","display":"Local carrier non-durable medical equipment, prosthetics, orthotics, and supplies (DMEPOS) claim","system":"https://bluebutton.cms.gov/resources/variables/nch_clm_type_cd"},{"code":"CARRIER","display":"EOB Type","system":"https://bluebutton.cms.gov/resources/codesystem/eob-type"},{"code":"professional","display":"Claim Type","system":"http://hl7.org/fhir/ex-claimtype"},{"code":"O","display":"Part B physician/supplier claim record (processed by local carriers; can include DMEPOS services)","system":"https://bluebutton.cms.gov/resources/variables/nch_near_line_rec_ident_cd"}]}}},{"resource":{"billablePeriod":{"end":"2012-10-15T10:47:11-04:00","extension":[{"url":"https://bluebutton.cms.gov/assets/ig/StructureDefinition-bluebutton-inpatient-claim-query-cd-extension","valueCoding":{"code":"3","display":"Final Bill","system":"https://bluebutton.cms.gov/assets/ig/ValueSet-claim-query-cd"}}],"start":"2011-10-15T10:47:11-04:00"},"careTeam":[{"provider":{"identifier":{"system":"http://hl7.org/fhir/sid/us-npi","value":"99999999"}},"role":{"coding":[{"code":"primary","display":"Primary Care Practitioner","system":"http://hl7.org/fhir/claimcareteamrole"}]},"sequence":1}],"contained":[{"id":"coverage","resourceType":"Coverage","type":{"text":"private"}}],"diagnosis":[{"diagnosisReference":{"reference":"Condition/406a98e3-55d2-468e-95f7-df19f865e750"},"extension":[{"url":"https://bluebutton.cms.gov/assets/ig/StructureDefinition-bluebutton-inpatient-clm-poa-ind-sw1-extension","valueCoding":{"code":"Y","display":"Diagnosis present at time of admission","system":"https://bluebutton.cms.gov/assets/ig/CodeSystem-clm-poa-ind-sw1"}}],"sequence":1,"type":[{"coding":[{"code":"principal","system":"https://bluebutton.cms.gov/resources/codesystem/diagnosis-type"}]}]}],"extension":[{"url":"https://bluebutton.cms.gov/assets/ig/StructureDefinition-bluebutton-inpatient-ime-op-clm-val-amt-extension","valueMoney":{"code":"USD","system":"urn:iso:std:iso:4217","value":400}},{"url":"https://bluebutton.cms.gov/assets/ig/StructureDefinition-bluebutton-inpatient-dsh-op-clm-val-amt-extension","valueMoney":{"code":"USD","system":"urn:iso:std:iso:4217","value":0}},{"url":"https://bluebutton.cms.gov/assets/ig/StructureDefinition-bluebutton-inpatient-clm-pass-thru-per-diem-amt-extension","valueMoney":{"code":"USD","system":"urn:iso:std:iso:4217","value":0}},{"url":"https://bluebutton.cms.gov/assets/ig/StructureDefinition-bluebutton-inpatient-nch-profnl-cmpnt-chrg-amt-extension","valueMoney":{"code":"USD","system":"urn:iso:std:iso:4217","value":0}},{"url":"https://bluebutton.cms.gov/assets/ig/StructureDefinition-bluebutton-inpatient-clm-tot-pps-cptl-amt-extension","valueMoney":{"code":"USD","system":"urn:iso:std:iso:4217","value":0}},{"url":"https://bluebutton.cms.gov/assets/ig/StructureDefinition-bluebutton-inpatient-nch-bene-ip-ddctbl-amt-extension","valueMoney":{"code":"USD","system":"urn:iso:std:iso:4217","value":0}},{"url":"https://bluebutton.cms.gov/assets/ig/StructureDefinition-bluebutton-inpatient-nch-bene-pta-coinsrnc-lblty-amt-extension","valueMoney":{"code":"USD","system":"urn:iso:std:iso:4217","value":0}},{"url":"https://bluebutton.cms.gov/assets/ig/StructureDefinition-bluebutton-inpatient-nch-ip-ncvrd-chrg-amt-extension","valueMoney":{"code":"USD","system":"urn:iso:std:iso:4217","value":0}},{"url":"https://bluebutton.cms.gov/assets/ig/StructureDefinition-bluebutton-inpatient-nch-ip-tot-ddctn-amt-extension","valueMoney":{"code":"USD","system":"urn:iso:std:iso:4217","value":0}},{"url":"https://bluebutton.cms.gov/assets/ig/StructureDefinition-bluebutton-inpatient-clm-pps-cptl-dsprprtnt-shr-amt-extension","valueMoney":{"code":"USD","system":"urn:iso:std:iso:4217","value":0}},{"url":"https://bluebutton.cms.gov/assets/ig/StructureDefinition-bluebutton-inpatient-clm-pps-cptl-excptn-amt-extension","valueMoney":{"code":"USD","system":"urn:iso:std:iso:4217","value":0}},{"url":"https://bluebutton.cms.gov/assets/ig/StructureDefinition-bluebutton-inpatient-clm-pps-cptl-fsp-amt-extension","valueMoney":{"code":"USD","system":"urn:iso:std:iso:4217","value":0}},{"url":"https://bluebutton.cms.gov/assets/ig/StructureDefinition-bluebutton-inpatient-clm-pps-cptl-ime-amt-extension","valueMoney":{"code":"USD","system":"urn:iso:std:iso:4217","value":400}},{"url":"https://bluebutton.cms.gov/assets/ig/StructureDefinition-bluebutton-inpatient-clm-pps-cptl-outlier-amt-extension","valueMoney":{"code":"USD","system":"urn:iso:std:iso:4217","value":0}},{"url":"https://bluebutton.cms.gov/assets/ig/StructureDefinition-bluebutton-inpatient-clm-pps-old-cptl-hld-hrmls-amt-extension","valueMoney":{"code":"USD","system":"urn:iso:std:iso:4217","value":0}},{"url":"https://bluebutton.cms.gov/assets/ig/StructureDefinition-bluebutton-inpatient-nch-drg-outlier-aprvd-pmt-amt-extension","valueMoney":{"code":"USD","system":"urn:iso:std:iso:4217","value":0}},{"url":"https://bluebutton.cms.gov/assets/ig/StructureDefinition-bluebutton-inpatient-nch-bene-blood-ddctbl-lblty-am-extension","valueMoney":{"code":"USD","system":"urn:iso:std:iso:4217","value":0}},{"url":"https://bluebutton.cms.gov/assets/ig/StructureDefinition-bluebutton-inpatient-clm-mdcr-non-pmt-rsn-cd-extension","valueCoding":{"code":"N","display":"All other reasons for non-payment","system":"https://bluebutton.cms.gov/assets/ig/CodeSystem-clm-mdcr-non-pmt-rsn-cd"}},{"url":"https://bluebutton.cms.gov/assets/ig/StructureDefinition-bluebutton-inpatient-prpayamt-extension","valueMoney":{"code":"USD","system":"urn:iso:std:iso:4217","value":0}},{"url":"https://bluebutton.cms.gov/assets/ig/StructureDefinition-bluebutton-inpatient-fi-num-extension","valueIdentifier":{"system":"https://bluebutton.cms.gov/assets/ig/CodeSystem-fi-num","value":"002000"}}],"id":"9cdb644d-6831-42fe-affa-e8670744866a","identifier":[{"system":"https://bluebutton.cms.gov/resources/variables/clm_id","value":"6f678209-7cb4-40f7-a3de-8d49cc2dddd6"},{"system":"https://bluebutton.cms.gov/resources/identifier/claim-group","value":"99999999999"}],"insurance":{"coverage":{"reference":"#coverage"}},"item":[{"extension":[{"url":"https://bluebutton.cms.gov/assets/ig/StructureDefinition-bluebutton-inpatient-rev-cntr-ndc-qty-extension","valueQuantity":{"value":0}}],"locationCodeableConcept":{"coding":[{"code":"21","display":"Inpatient Hospital","system":"https://bluebutton.cms.gov/resources/variables/line_place_of_srvc_cd"}]},"sequence":1},{"extension":[{"url":"https://bluebutton.cms.gov/assets/ig/StructureDefinition-bluebutton-inpatient-rev-cntr-ndc-qty-extension","valueQuantity":{"value":0}}],"locationCodeableConcept":{"coding":[{"code":"21","display":"Inpatient Hospital","system":"https://bluebutton.cms.gov/resources/variables/line_place_of_srvc_cd"}]},"sequence":2},{"adjudication":[{"amount":{"code":"USD","system":"urn:iso:std:iso:4217","value":592.54},"category":{"coding":[{"code":"https://bluebutton.cms.gov/resources/variables/line_coinsrnc_amt","display":"Line Beneficiary Coinsurance Amount","system":"https://bluebutton.cms.gov/resources/codesystem/adjudication"}]}},{"amount":{"code":"USD","system":"urn:iso:std:iso:4217","value":2370.16},"category":{"coding":[{"code":"https://bluebutton.cms.gov/resources/variables/line_prvdr_pmt_amt","display":"Line Provider Payment Amount","system":"https://bluebutton.cms.gov/resources/codesystem/adjudication"}]}},{"amount":{"code":"USD","system":"urn:iso:std:iso:4217","value":2962.7},"category":{"coding":[{"code":"https://bluebutton.cms.gov/resources/variables/line_sbmtd_chrg_amt","display":"Line Submitted Charge Amount","system":"https://bluebutton.cms.gov/resources/codesystem/adjudication"}]}},{"amount":{"code":"USD","system":"urn:iso:std:iso:4217","value":2962.7},"category":{"coding":[{"code":"https://bluebutton.cms.gov/resources/variables/line_alowd_chrg_amt","display":"Line Allowed Charge Amount","system":"https://bluebutton.cms.gov/resources/codesystem/adjudication"}]}},{"amount":{"code":"USD","system":"urn:iso:std:iso:4217","value":0},"category":{"coding":[{"code":"https://bluebutton.cms.gov/resources/variables/line_bene_ptb_ddctbl_amt","display":"Line Beneficiary Part B Deductible Amount","system":"https://bluebutton.cms.gov/resources/codesystem/adjudication"}]}},{"category":{"coding":[{"code":"https://bluebutton.cms.gov/resources/variables/line_prcsg_ind_cd","display":"Line Processing Indicator Code","system":"https://bluebutton.cms.gov/resources/codesystem/adjudication"}]}}],"extension":[{"url":"https://bluebutton.cms.gov/assets/ig/StructureDefinition-bluebutton-inpatient-rev-cntr-ndc-qty-extension","valueQuantity":{"value":0}}],"locationCodeableConcept":{"coding":[{"code":"21","display":"Inpatient Hospital","system":"https://bluebutton.cms.gov/resources/variables/line_place_of_srvc_cd"}]},"sequence":3,"service":{"coding":[{"code":"117015009","system":"http://snomed.info/sct","version":"v1"}]}}],"meta":{"lastUpdated":"2019-04-09T09:55:24.653688+00:00","profile":["https://bluebutton.cms.gov/assets/ig/StructureDefinition-bluebutton-inpatient-claim"],"versionId":"MTU1NDgwMzcyNDY1MzY4ODAwMA"},"organization":{"identifier":{"value":"15aeb131-dae7-4392-bb46-3b4aeddf31d7"}},"patient":{"reference":"Patient/000a04a1-7f9d-4325-8f99-0fd76e46bab3"},"payment":{"amount":{"code":"USD","system":"urn:iso:std:iso:4217","value":2370.16}},"provider":{"identifier":{"value":"417e9e98-335d-42f9-a957-ab1e79dca107"}},"resourceType":"ExplanationOfBenefit","status":"active","totalCost":{"code":"USD","system":"urn:iso:std:iso:4217","value":3087.7},"type":{"coding":[{"code":"71","display":"Local carrier non-durable medical equipment, prosthetics, orthotics, and supplies (DMEPOS) claim","system":"https://bluebutton.cms.gov/resources/variables/nch_clm_type_cd"},{"code":"CARRIER","display":"EOB Type","system":"https://bluebutton.cms.gov/resources/codesystem/eob-type"},{"code":"professional","display":"Claim Type","system":"http://hl7.org/fhir/ex-claimtype"},{"code":"O","display":"Part B physician/supplier claim record (processed by local carriers; can include DMEPOS services)","system":"https://bluebutton.cms.gov/resources/variables/nch_near_line_rec_ident_cd"}]}}},{"resource":{"billablePeriod":{"end":"2016-11-16T09:32:11-05:00","start":"2015-11-16T09:32:11-05:00"},"careTeam":[{"provider":{"identifier":{"system":"http://hl7.org/fhir/sid/us-npi","value":"99999999"}},"role":{"coding":[{"code":"primary","display":"Primary Care Practitioner","system":"http://hl7.org/fhir/claimcareteamrole"}]},"sequence":1}],"claim":{"reference":"Claim/a286ca69-d9c0-44e1-804e-77e3054aa0b9"},"contained":[{"id":"1","intent":"order","recipient":[{"identifier":{"system":"http://hl7.org/fhir/sid/us-npi","value":"99999999"}}],"requester":{"agent":{"identifier":{"system":"http://hl7.org/fhir/sid/us-npi","value":"99999999"}}},"resourceType":"ReferralRequest","status":"completed","subject":{"reference":"Patient/000a04a1-7f9d-4325-8f99-0fd76e46bab3"}},{"id":"coverage","resourceType":"Coverage","type":{"text":"private"}}],"created":"2015-11-16T09:32:11-05:00","id":"9f7d3c72-698c-442a-b919-7310f865e212","identifier":[{"system":"https://bluebutton.cms.gov/resources/variables/clm_id","value":"a286ca69-d9c0-44e1-804e-77e3054aa0b9"},{"system":"https://bluebutton.cms.gov/resources/identifier/claim-group","value":"99999999999"}],"insurance":{"coverage":{"reference":"#coverage"}},"item":[{"category":{"coding":[{"code":"1","display":"Medical care","system":"https://bluebutton.cms.gov/resources/variables/line_cms_type_srvc_cd"}]},"encounter":[{"reference":"Encounter/16a1b567-b75d-4c41-90c6-9618483fef90"}],"locationCodeableConcept":{"coding":[{"code":"21","display":"Inpatient Hospital","system":"https://bluebutton.cms.gov/resources/variables/line_place_of_srvc_cd"}]},"sequence":1,"servicedPeriod":{"end":"2015-11-16T09:32:11-05:00","start":"2015-11-16T09:17:11-05:00"}},{"adjudication":[{"amount":{"code":"USD","system":"urn:iso:std:iso:4217","value":28.104000000000003},"category":{"coding":[{"code":"https://bluebutton.cms.gov/resources/variables/line_coinsrnc_amt","display":"Line Beneficiary Coinsurance Amount","system":"https://bluebutton.cms.gov/resources/codesystem/adjudication"}]}},{"amount":{"code":"USD","system":"urn:iso:std:iso:4217","value":112.41600000000001},"category":{"coding":[{"code":"https://bluebutton.cms.gov/resources/variables/line_prvdr_pmt_amt","display":"Line Provider Payment Amount","system":"https://bluebutton.cms.gov/resources/codesystem/adjudication"}]}},{"amount":{"code":"USD","system":"urn:iso:std:iso:4217","value":140.52},"category":{"coding":[{"code":"https://bluebutton.cms.gov/resources/variables/line_sbmtd_chrg_amt","display":"Line Submitted Charge Amount","system":"https://bluebutton.cms.gov/resources/codesystem/adjudication"}]}},{"amount":{"code":"USD","system":"urn:iso:std:iso:4217","value":140.52},"category":{"coding":[{"code":"https://bluebutton.cms.gov/resources/variables/line_alowd_chrg_amt","display":"Line Allowed Charge Amount","system":"https://bluebutton.cms.gov/resources/codesystem/adjudication"}]}},{"amount":{"code":"USD","system":"urn:iso:std:iso:4217","value":0},"category":{"coding":[{"code":"https://bluebutton.cms.gov/resources/variables/line_bene_ptb_ddctbl_amt","display":"Line Beneficiary Part B Deductible Amount","system":"https://bluebutton.cms.gov/resources/codesystem/adjudication"}]}},{"category":{"coding":[{"code":"https://bluebutton.cms.gov/resources/variables/line_prcsg_ind_cd","display":"Line Processing Indicator Code","system":"https://bluebutton.cms.gov/resources/codesystem/adjudication"}]},"reason":{"coding":[{"code":"A","display":"Allowed","system":"https://bluebutton.cms.gov/resources/variables/line_prcsg_ind_cd"}]}}],"category":{"coding":[{"code":"1","display":"Medical care","system":"https://bluebutton.cms.gov/resources/variables/line_cms_type_srvc_cd"}]},"informationLinkId":[1],"locationCodeableConcept":{"coding":[{"code":"21","display":"Inpatient Hospital","system":"https://bluebutton.cms.gov/resources/variables/line_place_of_srvc_cd"}]},"net":{"code":"USD","system":"urn:iso:std:iso:4217","value":140.52},"sequence":2,"servicedPeriod":{"end":"2015-11-16T09:32:11-05:00","start":"2015-11-16T09:17:11-05:00"}},{"adjudication":[{"amount":{"code":"USD","system":"urn:iso:std:iso:4217","value":28.104000000000003},"category":{"coding":[{"code":"https://bluebutton.cms.gov/resources/variables/line_coinsrnc_amt","display":"Line Beneficiary Coinsurance Amount","system":"https://bluebutton.cms.gov/resources/codesystem/adjudication"}]}},{"amount":{"code":"USD","system":"urn:iso:std:iso:4217","value":112.41600000000001},"category":{"coding":[{"code":"https://bluebutton.cms.gov/resources/variables/line_prvdr_pmt_amt","display":"Line Provider Payment Amount","system":"https://bluebutton.cms.gov/resources/codesystem/adjudication"}]}},{"amount":{"code":"USD","system":"urn:iso:std:iso:4217","value":140.52},"category":{"coding":[{"code":"https://bluebutton.cms.gov/resources/variables/line_sbmtd_chrg_amt","display":"Line Submitted Charge Amount","system":"https://bluebutton.cms.gov/resources/codesystem/adjudication"}]}},{"amount":{"code":"USD","system":"urn:iso:std:iso:4217","value":140.52},"category":{"coding":[{"code":"https://bluebutton.cms.gov/resources/variables/line_alowd_chrg_amt","display":"Line Allowed Charge Amount","system":"https://bluebutton.cms.gov/resources/codesystem/adjudication"}]}},{"amount":{"code":"USD","system":"urn:iso:std:iso:4217","value":0},"category":{"coding":[{"code":"https://bluebutton.cms.gov/resources/variables/line_bene_ptb_ddctbl_amt","display":"Line Beneficiary Part B Deductible Amount","system":"https://bluebutton.cms.gov/resources/codesystem/adjudication"}]}},{"category":{"coding":[{"code":"https://bluebutton.cms.gov/resources/variables/line_prcsg_ind_cd","display":"Line Processing Indicator Code","system":"https://bluebutton.cms.gov/resources/codesystem/adjudication"}]},"reason":{"coding":[{"code":"A","display":"Allowed","system":"https://bluebutton.cms.gov/resources/variables/line_prcsg_ind_cd"}]}}],"category":{"coding":[{"code":"1","display":"Medical care","system":"https://bluebutton.cms.gov/resources/variables/line_cms_type_srvc_cd"}]},"informationLinkId":[2],"locationCodeableConcept":{"coding":[{"code":"21","display":"Inpatient Hospital","system":"https://bluebutton.cms.gov/resources/variables/line_place_of_srvc_cd"}]},"net":{"code":"USD","system":"urn:iso:std:iso:4217","value":140.52},"sequence":3,"servicedPeriod":{"end":"2015-11-16T09:32:11-05:00","start":"2015-11-16T09:17:11-05:00"}},{"adjudication":[{"amount":{"code":"USD","system":"urn:iso:std:iso:4217","value":28.104000000000003},"category":{"coding":[{"code":"https://bluebutton.cms.gov/resources/variables/line_coinsrnc_amt","display":"Line Beneficiary Coinsurance Amount","system":"https://bluebutton.cms.gov/resources/codesystem/adjudication"}]}},{"amount":{"code":"USD","system":"urn:iso:std:iso:4217","value":112.41600000000001},"category":{"coding":[{"code":"https://bluebutton.cms.gov/resources/variables/line_prvdr_pmt_amt","display":"Line Provider Payment Amount","system":"https://bluebutton.cms.gov/resources/codesystem/adjudication"}]}},{"amount":{"code":"USD","system":"urn:iso:std:iso:4217","value":140.52},"category":{"coding":[{"code":"https://bluebutton.cms.gov/resources/variables/line_sbmtd_chrg_amt","display":"Line Submitted Charge Amount","system":"https://bluebutton.cms.gov/resources/codesystem/adjudication"}]}},{"amount":{"code":"USD","system":"urn:iso:std:iso:4217","value":140.52},"category":{"coding":[{"code":"https://bluebutton.cms.gov/resources/variables/line_alowd_chrg_amt","display":"Line Allowed Charge Amount","system":"https://bluebutton.cms.gov/resources/codesystem/adjudication"}]}},{"amount":{"code":"USD","system":"urn:iso:std:iso:4217","value":0},"category":{"coding":[{"code":"https://bluebutton.cms.gov/resources/variables/line_bene_ptb_ddctbl_amt","display":"Line Beneficiary Part B Deductible Amount","system":"https://bluebutton.cms.gov/resources/codesystem/adjudication"}]}},{"category":{"coding":[{"code":"https://bluebutton.cms.gov/resources/variables/line_prcsg_ind_cd","display":"Line Processing Indicator Code","system":"https://bluebutton.cms.gov/resources/codesystem/adjudication"}]},"reason":{"coding":[{"code":"A","display":"Allowed","system":"https://bluebutton.cms.gov/resources/variables/line_prcsg_ind_cd"}]}}],"category":{"coding":[{"code":"1","display":"Medical care","system":"https://bluebutton.cms.gov/resources/variables/line_cms_type_srvc_cd"}]},"informationLinkId":[3],"locationCodeableConcept":{"coding":[{"code":"21","display":"Inpatient Hospital","system":"https://bluebutton.cms.gov/resources/variables/line_place_of_srvc_cd"}]},"net":{"code":"USD","system":"urn:iso:std:iso:4217","value":140.52},"sequence":4,"servicedPeriod":{"end":"2015-11-16T09:32:11-05:00","start":"2015-11-16T09:17:11-05:00"}},{"adjudication":[{"amount":{"code":"USD","system":"urn:iso:std:iso:4217","value":28.104000000000003},"category":{"coding":[{"code":"https://bluebutton.cms.gov/resources/variables/line_coinsrnc_amt","display":"Line Beneficiary Coinsurance Amount","system":"https://bluebutton.cms.gov/resources/codesystem/adjudication"}]}},{"amount":{"code":"USD","system":"urn:iso:std:iso:4217","value":112.41600000000001},"category":{"coding":[{"code":"https://bluebutton.cms.gov/resources/variables/line_prvdr_pmt_amt","display":"Line Provider Payment Amount","system":"https://bluebutton.cms.gov/resources/codesystem/adjudication"}]}},{"amount":{"code":"USD","system":"urn:iso:std:iso:4217","value":140.52},"category":{"coding":[{"code":"https://bluebutton.cms.gov/resources/variables/line_sbmtd_chrg_amt","display":"Line Submitted Charge Amount","system":"https://bluebutton.cms.gov/resources/codesystem/adjudication"}]}},{"amount":{"code":"USD","system":"urn:iso:std:iso:4217","value":140.52},"category":{"coding":[{"code":"https://bluebutton.cms.gov/resources/variables/line_alowd_chrg_amt","display":"Line Allowed Charge Amount","system":"https://bluebutton.cms.gov/resources/codesystem/adjudication"}]}},{"amount":{"code":"USD","system":"urn:iso:std:iso:4217","value":0},"category":{"coding":[{"code":"https://bluebutton.cms.gov/resources/variables/line_bene_ptb_ddctbl_amt","display":"Line Beneficiary Part B Deductible Amount","system":"https://bluebutton.cms.gov/resources/codesystem/adjudication"}]}},{"category":{"coding":[{"code":"https://bluebutton.cms.gov/resources/variables/line_prcsg_ind_cd","display":"Line Processing Indicator Code","system":"https://bluebutton.cms.gov/resources/codesystem/adjudication"}]},"reason":{"coding":[{"code":"A","display":"Allowed","system":"https://bluebutton.cms.gov/resources/variables/line_prcsg_ind_cd"}]}}],"category":{"coding":[{"code":"1","display":"Medical care","system":"https://bluebutton.cms.gov/resources/variables/line_cms_type_srvc_cd"}]},"informationLinkId":[4],"locationCodeableConcept":{"coding":[{"code":"21","display":"Inpatient Hospital","system":"https://bluebutton.cms.gov/resources/variables/line_place_of_srvc_cd"}]},"net":{"code":"USD","system":"urn:iso:std:iso:4217","value":140.52},"sequence":5,"servicedPeriod":{"end":"2015-11-16T09:32:11-05:00","start":"2015-11-16T09:17:11-05:00"}}],"meta":{"lastUpdated":"2019-04-09T09:55:27.752096+00:00","versionId":"MTU1NDgwMzcyNzc1MjA5NjAwMA"},"organization":{"identifier":{"value":"15aeb131-dae7-4392-bb46-3b4aeddf31d7"}},"patient":{"reference":"Patient/000a04a1-7f9d-4325-8f99-0fd76e46bab3"},"payment":{"amount":{"code":"USD","system":"urn:iso:std:iso:4217","value":449.66400000000004}},"provider":{"identifier":{"value":"417e9e98-335d-42f9-a957-ab1e79dca107"}},"referral":{"reference":"#1"},"resourceType":"ExplanationOfBenefit","status":"active","totalCost":{"code":"USD","system":"urn:iso:std:iso:4217","value":687.08},"type":{"coding":[{"code":"71","display":"Local carrier non-durable medical equipment, prosthetics, orthotics, and supplies (DMEPOS) claim","system":"https://bluebutton.cms.gov/resources/variables/nch_clm_type_cd"},{"code":"CARRIER","display":"EOB Type","system":"https://bluebutton.cms.gov/resources/codesystem/eob-type"},{"code":"professional","display":"Claim Type","system":"http://hl7.org/fhir/ex-claimtype"},{"code":"O","display":"Part B physician/supplier claim record (processed by local carriers; can include DMEPOS services)","system":"https://bluebutton.cms.gov/resources/variables/nch_near_line_rec_ident_cd"}]}}},{"resource":{"billablePeriod":{"end":"2015-08-10T11:17:11-04:00","start":"2014-08-10T11:17:11-04:00"},"careTeam":[{"provider":{"identifier":{"system":"http://hl7.org/fhir/sid/us-npi","value":"99999999"}},"role":{"coding":[{"code":"primary","display":"Primary Care Practitioner","system":"http://hl7.org/fhir/claimcareteamrole"}]},"sequence":1}],"claim":{"reference":"Claim/2933d5d8-6a9f-4ea4-9686-1b644cccdddb"},"contained":[{"id":"1","intent":"order","recipient":[{"identifier":{"system":"http://hl7.org/fhir/sid/us-npi","value":"99999999"}}],"requester":{"agent":{"identifier":{"system":"http://hl7.org/fhir/sid/us-npi","value":"99999999"}}},"resourceType":"ReferralRequest","status":"completed","subject":{"reference":"Patient/000a04a1-7f9d-4325-8f99-0fd76e46bab3"}},{"id":"coverage","resourceType":"Coverage","type":{"text":"private"}}],"created":"2014-08-10T11:17:11-04:00","diagnosis":[{"diagnosisReference":{"reference":"Condition/083cd588-9f93-4919-80d8-d5deab33579e"},"extension":[{"url":"https://bluebutton.cms.gov/assets/ig/StructureDefinition-bluebutton-inpatient-clm-poa-ind-sw1-extension","valueCoding":{"code":"Y","display":"Diagnosis present at time of admission","system":"https://bluebutton.cms.gov/assets/ig/CodeSystem-clm-poa-ind-sw1"}}],"sequence":1,"type":[{"coding":[{"code":"principal","system":"https://bluebutton.cms.gov/resources/codesystem/diagnosis-type"}]}]}],"id":"a783c9e4-24c4-4b56-8698-3f312329e36d","identifier":[{"system":"https://bluebutton.cms.gov/resources/variables/clm_id","value":"2933d5d8-6a9f-4ea4-9686-1b644cccdddb"},{"system":"https://bluebutton.cms.gov/resources/identifier/claim-group","value":"99999999999"}],"insurance":{"coverage":{"reference":"#coverage"}},"item":[{"category":{"coding":[{"code":"1","display":"Medical care","system":"https://bluebutton.cms.gov/resources/variables/line_cms_type_srvc_cd"}]},"encounter":[{"reference":"Encounter/8adadb54-fe85-4935-a9c5-b9ad1f2f4641"}],"locationCodeableConcept":{"coding":[{"code":"23","display":"Emergency Room","system":"https://bluebutton.cms.gov/resources/variables/line_place_of_srvc_cd"}]},"sequence":1,"servicedPeriod":{"end":"2014-08-10T11:17:11-04:00","start":"2014-08-10T10:17:11-04:00"}},{"category":{"coding":[{"code":"1","display":"Medical care","system":"https://bluebutton.cms.gov/resources/variables/line_cms_type_srvc_cd"}]},"diagnosisLinkId":[1],"locationCodeableConcept":{"coding":[{"code":"23","display":"Emergency Room","system":"https://bluebutton.cms.gov/resources/variables/line_place_of_srvc_cd"}]},"sequence":2,"servicedPeriod":{"end":"2014-08-10T11:17:11-04:00","start":"2014-08-10T10:17:11-04:00"}}],"meta":{"lastUpdated":"2019-04-09T09:55:26.695148+00:00","versionId":"MTU1NDgwMzcyNjY5NTE0ODAwMA"},"organization":{"identifier":{"value":"15aeb131-dae7-4392-bb46-3b4aeddf31d7"}},"patient":{"reference":"Patient/000a04a1-7f9d-4325-8f99-0fd76e46bab3"},"payment":{"amount":{"code":"USD","system":"urn:iso:std:iso:4217","value":0}},"provider":{"identifier":{"value":"417e9e98-335d-42f9-a957-ab1e79dca107"}},"referral":{"reference":"#1"},"resourceType":"ExplanationOfBenefit","status":"active","totalCost":{"code":"USD","system":"urn:iso:std:iso:4217","value":125},"type":{"coding":[{"code":"71","display":"Local carrier non-durable medical equipment, prosthetics, orthotics, and supplies (DMEPOS) claim","system":"https://bluebutton.cms.gov/resources/variables/nch_clm_type_cd"},{"code":"CARRIER","display":"EOB Type","system":"https://bluebutton.cms.gov/resources/codesystem/eob-type"},{"code":"professional","display":"Claim Type","system":"http://hl7.org/fhir/ex-claimtype"},{"code":"O","display":"Part B physician/supplier claim record (processed by local carriers; can include DMEPOS services)","system":"https://bluebutton.cms.gov/resources/variables/nch_near_line_rec_ident_cd"}]}}},{"resource":{"billablePeriod":{"end":"2013-12-30T09:32:11-05:00","extension":[{"url":"https://bluebutton.cms.gov/assets/ig/StructureDefinition-bluebutton-inpatient-claim-query-cd-extension","valueCoding":{"code":"3","display":"Final Bill","system":"https://bluebutton.cms.gov/assets/ig/ValueSet-claim-query-cd"}}],"start":"2012-12-30T09:32:11-05:00"},"careTeam":[{"provider":{"identifier":{"system":"http://hl7.org/fhir/sid/us-npi","value":"99999999"}},"role":{"coding":[{"code":"primary","display":"Primary Care Practitioner","system":"http://hl7.org/fhir/claimcareteamrole"}]},"sequence":1}],"contained":[{"id":"coverage","resourceType":"Coverage","type":{"text":"private"}}],"diagnosis":[{"diagnosisReference":{"reference":"Condition/89756569-7bc9-4e2b-bfd9-8e5f71884cfd"},"extension":[{"url":"https://bluebutton.cms.gov/assets/ig/StructureDefinition-bluebutton-inpatient-clm-poa-ind-sw1-extension","valueCoding":{"code":"Y","display":"Diagnosis present at time of admission","system":"https://bluebutton.cms.gov/assets/ig/CodeSystem-clm-poa-ind-sw1"}}],"sequence":1,"type":[{"coding":[{"code":"principal","system":"https://bluebutton.cms.gov/resources/codesystem/diagnosis-type"}]}]}],"extension":[{"url":"https://bluebutton.cms.gov/assets/ig/StructureDefinition-bluebutton-inpatient-ime-op-clm-val-amt-extension","valueMoney":{"code":"USD","system":"urn:iso:std:iso:4217","value":400}},{"url":"https://bluebutton.cms.gov/assets/ig/StructureDefinition-bluebutton-inpatient-dsh-op-clm-val-amt-extension","valueMoney":{"code":"USD","system":"urn:iso:std:iso:4217","value":0}},{"url":"https://bluebutton.cms.gov/assets/ig/StructureDefinition-bluebutton-inpatient-clm-pass-thru-per-diem-amt-extension","valueMoney":{"code":"USD","system":"urn:iso:std:iso:4217","value":0}},{"url":"https://bluebutton.cms.gov/assets/ig/StructureDefinition-bluebutton-inpatient-nch-profnl-cmpnt-chrg-amt-extension","valueMoney":{"code":"USD","system":"urn:iso:std:iso:4217","value":0}},{"url":"https://bluebutton.cms.gov/assets/ig/StructureDefinition-bluebutton-inpatient-clm-tot-pps-cptl-amt-extension","valueMoney":{"code":"USD","system":"urn:iso:std:iso:4217","value":0}},{"url":"https://bluebutton.cms.gov/assets/ig/StructureDefinition-bluebutton-inpatient-nch-bene-ip-ddctbl-amt-extension","valueMoney":{"code":"USD","system":"urn:iso:std:iso:4217","value":0}},{"url":"https://bluebutton.cms.gov/assets/ig/StructureDefinition-bluebutton-inpatient-nch-bene-pta-coinsrnc-lblty-amt-extension","valueMoney":{"code":"USD","system":"urn:iso:std:iso:4217","value":0}},{"url":"https://bluebutton.cms.gov/assets/ig/StructureDefinition-bluebutton-inpatient-nch-ip-ncvrd-chrg-amt-extension","valueMoney":{"code":"USD","system":"urn:iso:std:iso:4217","value":0}},{"url":"https://bluebutton.cms.gov/assets/ig/StructureDefinition-bluebutton-inpatient-nch-ip-tot-ddctn-amt-extension","valueMoney":{"code":"USD","system":"urn:iso:std:iso:4217","value":0}},{"url":"https://bluebutton.cms.gov/assets/ig/StructureDefinition-bluebutton-inpatient-clm-pps-cptl-dsprprtnt-shr-amt-extension","valueMoney":{"code":"USD","system":"urn:iso:std:iso:4217","value":0}},{"url":"https://bluebutton.cms.gov/assets/ig/StructureDefinition-bluebutton-inpatient-clm-pps-cptl-excptn-amt-extension","valueMoney":{"code":"USD","system":"urn:iso:std:iso:4217","value":0}},{"url":"https://bluebutton.cms.gov/assets/ig/StructureDefinition-bluebutton-inpatient-clm-pps-cptl-fsp-amt-extension","valueMoney":{"code":"USD","system":"urn:iso:std:iso:4217","value":0}},{"url":"https://bluebutton.cms.gov/assets/ig/StructureDefinition-bluebutton-inpatient-clm-pps-cptl-ime-amt-extension","valueMoney":{"code":"USD","system":"urn:iso:std:iso:4217","value":400}},{"url":"https://bluebutton.cms.gov/assets/ig/StructureDefinition-bluebutton-inpatient-clm-pps-cptl-outlier-amt-extension","valueMoney":{"code":"USD","system":"urn:iso:std:iso:4217","value":0}},{"url":"https://bluebutton.cms.gov/assets/ig/StructureDefinition-bluebutton-inpatient-clm-pps-old-cptl-hld-hrmls-amt-extension","valueMoney":{"code":"USD","system":"urn:iso:std:iso:4217","value":0}},{"url":"https://bluebutton.cms.gov/assets/ig/StructureDefinition-bluebutton-inpatient-nch-drg-outlier-aprvd-pmt-amt-extension","valueMoney":{"code":"USD","system":"urn:iso:std:iso:4217","value":0}},{"url":"https://bluebutton.cms.gov/assets/ig/StructureDefinition-bluebutton-inpatient-nch-bene-blood-ddctbl-lblty-am-extension","valueMoney":{"code":"USD","system":"urn:iso:std:iso:4217","value":0}},{"url":"https://bluebutton.cms.gov/assets/ig/StructureDefinition-bluebutton-inpatient-clm-mdcr-non-pmt-rsn-cd-extension","valueCoding":{"code":"N","display":"All other reasons for non-payment","system":"https://bluebutton.cms.gov/assets/ig/CodeSystem-clm-mdcr-non-pmt-rsn-cd"}},{"url":"https://bluebutton.cms.gov/assets/ig/StructureDefinition-bluebutton-inpatient-prpayamt-extension","valueMoney":{"code":"USD","system":"urn:iso:std:iso:4217","value":0}},{"url":"https://bluebutton.cms.gov/assets/ig/StructureDefinition-bluebutton-inpatient-fi-num-extension","valueIdentifier":{"system":"https://bluebutton.cms.gov/assets/ig/CodeSystem-fi-num","value":"002000"}}],"id":"ab741bf3-5206-438d-a6fa-23665c76f192","identifier":[{"system":"https://bluebutton.cms.gov/resources/variables/clm_id","value":"e471c9cb-372f-47fe-86ae-507e57241bbb"},{"system":"https://bluebutton.cms.gov/resources/identifier/claim-group","value":"99999999999"}],"insurance":{"coverage":{"reference":"#coverage"}},"item":[{"extension":[{"url":"https://bluebutton.cms.gov/assets/ig/StructureDefinition-bluebutton-inpatient-rev-cntr-ndc-qty-extension","valueQuantity":{"value":0}}],"locationCodeableConcept":{"coding":[{"code":"21","display":"Inpatient Hospital","system":"https://bluebutton.cms.gov/resources/variables/line_place_of_srvc_cd"}]},"sequence":1},{"extension":[{"url":"https://bluebutton.cms.gov/assets/ig/StructureDefinition-bluebutton-inpatient-rev-cntr-ndc-qty-extension","valueQuantity":{"value":0}}],"locationCodeableConcept":{"coding":[{"code":"21","display":"Inpatient Hospital","system":"https://bluebutton.cms.gov/resources/variables/line_place_of_srvc_cd"}]},"sequence":2}],"meta":{"lastUpdated":"2019-04-09T09:55:25.665745+00:00","profile":["https://bluebutton.cms.gov/assets/ig/StructureDefinition-bluebutton-inpatient-claim"],"versionId":"MTU1NDgwMzcyNTY2NTc0NTAwMA"},"organization":{"identifier":{"value":"15aeb131-dae7-4392-bb46-3b4aeddf31d7"}},"patient":{"reference":"Patient/000a04a1-7f9d-4325-8f99-0fd76e46bab3"},"payment":{"amount":{"code":"USD","system":"urn:iso:std:iso:4217","value":0}},"provider":{"identifier":{"value":"417e9e98-335d-42f9-a957-ab1e79dca107"}},"resourceType":"ExplanationOfBenefit","status":"active","totalCost":{"code":"USD","system":"urn:iso:std:iso:4217","value":125},"type":{"coding":[{"code":"71","display":"Local carrier non-durable medical equipment, prosthetics, orthotics, and supplies (DMEPOS) claim","system":"https://bluebutton.cms.gov/resources/variables/nch_clm_type_cd"},{"code":"CARRIER","display":"EOB Type","system":"https://bluebutton.cms.gov/resources/codesystem/eob-type"},{"code":"professional","display":"Claim Type","system":"http://hl7.org/fhir/ex-claimtype"},{"code":"O","display":"Part B physician/supplier claim record (processed by local carriers; can include DMEPOS services)","system":"https://bluebutton.cms.gov/resources/variables/nch_near_line_rec_ident_cd"}]}}},{"resource":{"billablePeriod":{"end":"2016-11-05T09:32:11-04:00","extension":[{"url":"https://bluebutton.cms.gov/assets/ig/StructureDefinition-bluebutton-inpatient-claim-query-cd-extension","valueCoding":{"code":"3","display":"Final Bill","system":"https://bluebutton.cms.gov/assets/ig/ValueSet-claim-query-cd"}}],"start":"2015-11-05T09:32:11-05:00"},"careTeam":[{"provider":{"identifier":{"system":"http://hl7.org/fhir/sid/us-npi","value":"99999999"}},"role":{"coding":[{"code":"primary","display":"Primary Care Practitioner","system":"http://hl7.org/fhir/claimcareteamrole"}]},"sequence":1}],"contained":[{"id":"coverage","resourceType":"Coverage","type":{"text":"private"}}],"diagnosis":[{"diagnosisReference":{"reference":"Condition/8b2fcc0b-88a0-46a1-981b-47cff954e9c9"},"extension":[{"url":"https://bluebutton.cms.gov/assets/ig/StructureDefinition-bluebutton-inpatient-clm-poa-ind-sw1-extension","valueCoding":{"code":"Y","display":"Diagnosis present at time of admission","system":"https://bluebutton.cms.gov/assets/ig/CodeSystem-clm-poa-ind-sw1"}}],"sequence":1,"type":[{"coding":[{"code":"principal","system":"https://bluebutton.cms.gov/resources/codesystem/diagnosis-type"}]}]}],"extension":[{"url":"https://bluebutton.cms.gov/assets/ig/StructureDefinition-bluebutton-inpatient-ime-op-clm-val-amt-extension","valueMoney":{"code":"USD","system":"urn:iso:std:iso:4217","value":400}},{"url":"https://bluebutton.cms.gov/assets/ig/StructureDefinition-bluebutton-inpatient-dsh-op-clm-val-amt-extension","valueMoney":{"code":"USD","system":"urn:iso:std:iso:4217","value":0}},{"url":"https://bluebutton.cms.gov/assets/ig/StructureDefinition-bluebutton-inpatient-clm-pass-thru-per-diem-amt-extension","valueMoney":{"code":"USD","system":"urn:iso:std:iso:4217","value":0}},{"url":"https://bluebutton.cms.gov/assets/ig/StructureDefinition-bluebutton-inpatient-nch-profnl-cmpnt-chrg-amt-extension","valueMoney":{"code":"USD","system":"urn:iso:std:iso:4217","value":0}},{"url":"https://bluebutton.cms.gov/assets/ig/StructureDefinition-bluebutton-inpatient-clm-tot-pps-cptl-amt-extension","valueMoney":{"code":"USD","system":"urn:iso:std:iso:4217","value":0}},{"url":"https://bluebutton.cms.gov/assets/ig/StructureDefinition-bluebutton-inpatient-nch-bene-ip-ddctbl-amt-extension","valueMoney":{"code":"USD","system":"urn:iso:std:iso:4217","value":0}},{"url":"https://bluebutton.cms.gov/assets/ig/StructureDefinition-bluebutton-inpatient-nch-bene-pta-coinsrnc-lblty-amt-extension","valueMoney":{"code":"USD","system":"urn:iso:std:iso:4217","value":0}},{"url":"https://bluebutton.cms.gov/assets/ig/StructureDefinition-bluebutton-inpatient-nch-ip-ncvrd-chrg-amt-extension","valueMoney":{"code":"USD","system":"urn:iso:std:iso:4217","value":0}},{"url":"https://bluebutton.cms.gov/assets/ig/StructureDefinition-bluebutton-inpatient-nch-ip-tot-ddctn-amt-extension","valueMoney":{"code":"USD","system":"urn:iso:std:iso:4217","value":0}},{"url":"https://bluebutton.cms.gov/assets/ig/StructureDefinition-bluebutton-inpatient-clm-pps-cptl-dsprprtnt-shr-amt-extension","valueMoney":{"code":"USD","system":"urn:iso:std:iso:4217","value":0}},{"url":"https://bluebutton.cms.gov/assets/ig/StructureDefinition-bluebutton-inpatient-clm-pps-cptl-excptn-amt-extension","valueMoney":{"code":"USD","system":"urn:iso:std:iso:4217","value":0}},{"url":"https://bluebutton.cms.gov/assets/ig/StructureDefinition-bluebutton-inpatient-clm-pps-cptl-fsp-amt-extension","valueMoney":{"code":"USD","system":"urn:iso:std:iso:4217","value":0}},{"url":"https://bluebutton.cms.gov/assets/ig/StructureDefinition-bluebutton-inpatient-clm-pps-cptl-ime-amt-extension","valueMoney":{"code":"USD","system":"urn:iso:std:iso:4217","value":400}},{"url":"https://bluebutton.cms.gov/assets/ig/StructureDefinition-bluebutton-inpatient-clm-pps-cptl-outlier-amt-extension","valueMoney":{"code":"USD","system":"urn:iso:std:iso:4217","value":0}},{"url":"https://bluebutton.cms.gov/assets/ig/StructureDefinition-bluebutton-inpatient-clm-pps-old-cptl-hld-hrmls-amt-extension","valueMoney":{"code":"USD","system":"urn:iso:std:iso:4217","value":0}},{"url":"https://bluebutton.cms.gov/assets/ig/StructureDefinition-bluebutton-inpatient-nch-drg-outlier-aprvd-pmt-amt-extension","valueMoney":{"code":"USD","system":"urn:iso:std:iso:4217","value":0}},{"url":"https://bluebutton.cms.gov/assets/ig/StructureDefinition-bluebutton-inpatient-nch-bene-blood-ddctbl-lblty-am-extension","valueMoney":{"code":"USD","system":"urn:iso:std:iso:4217","value":0}},{"url":"https://bluebutton.cms.gov/assets/ig/StructureDefinition-bluebutton-inpatient-clm-mdcr-non-pmt-rsn-cd-extension","valueCoding":{"code":"N","display":"All other reasons for non-payment","system":"https://bluebutton.cms.gov/assets/ig/CodeSystem-clm-mdcr-non-pmt-rsn-cd"}},{"url":"https://bluebutton.cms.gov/assets/ig/StructureDefinition-bluebutton-inpatient-prpayamt-extension","valueMoney":{"code":"USD","system":"urn:iso:std:iso:4217","value":0}},{"url":"https://bluebutton.cms.gov/assets/ig/StructureDefinition-bluebutton-inpatient-fi-num-extension","valueIdentifier":{"system":"https://bluebutton.cms.gov/assets/ig/CodeSystem-fi-num","value":"002000"}}],"id":"ca74031e-9c14-4325-9da6-66045c1f4a57","identifier":[{"system":"https://bluebutton.cms.gov/resources/variables/clm_id","value":"a1a54855-6d5b-4d64-a671-376a1ca9b42f"},{"system":"https://bluebutton.cms.gov/resources/identifier/claim-group","value":"99999999999"}],"insurance":{"coverage":{"reference":"#coverage"}},"item":[{"extension":[{"url":"https://bluebutton.cms.gov/assets/ig/StructureDefinition-bluebutton-inpatient-rev-cntr-ndc-qty-extension","valueQuantity":{"value":0}}],"locationCodeableConcept":{"coding":[{"code":"21","display":"Inpatient Hospital","system":"https://bluebutton.cms.gov/resources/variables/line_place_of_srvc_cd"}]},"sequence":1},{"extension":[{"url":"https://bluebutton.cms.gov/assets/ig/StructureDefinition-bluebutton-inpatient-rev-cntr-ndc-qty-extension","valueQuantity":{"value":0}}],"locationCodeableConcept":{"coding":[{"code":"21","display":"Inpatient Hospital","system":"https://bluebutton.cms.gov/resources/variables/line_place_of_srvc_cd"}]},"sequence":2}],"meta":{"lastUpdated":"2019-04-09T09:55:26.687434+00:00","profile":["https://bluebutton.cms.gov/assets/ig/StructureDefinition-bluebutton-inpatient-claim"],"versionId":"MTU1NDgwMzcyNjY4NzQzNDAwMA"},"organization":{"identifier":{"value":"15aeb131-dae7-4392-bb46-3b4aeddf31d7"}},"patient":{"reference":"Patient/000a04a1-7f9d-4325-8f99-0fd76e46bab3"},"payment":{"amount":{"code":"USD","system":"urn:iso:std:iso:4217","value":0}},"provider":{"identifier":{"value":"417e9e98-335d-42f9-a957-ab1e79dca107"}},"resourceType":"ExplanationOfBenefit","status":"active","totalCost":{"code":"USD","system":"urn:iso:std:iso:4217","value":125},"type":{"coding":[{"code":"71","display":"Local carrier non-durable medical equipment, prosthetics, orthotics, and supplies (DMEPOS) claim","system":"https://bluebutton.cms.gov/resources/variables/nch_clm_type_cd"},{"code":"CARRIER","display":"EOB Type","system":"https://bluebutton.cms.gov/resources/codesystem/eob-type"},{"code":"professional","display":"Claim Type","system":"http://hl7.org/fhir/ex-claimtype"},{"code":"O","display":"Part B physician/supplier claim record (processed by local carriers; can include DMEPOS services)","system":"https://bluebutton.cms.gov/resources/variables/nch_near_line_rec_ident_cd"}]}}},{"resource":{"billablePeriod":{"end":"2017-07-02T10:47:11-04:00","extension":[{"url":"https://bluebutton.cms.gov/assets/ig/StructureDefinition-bluebutton-inpatient-claim-query-cd-extension","valueCoding":{"code":"3","display":"Final Bill","system":"https://bluebutton.cms.gov/assets/ig/ValueSet-claim-query-cd"}}],"start":"2016-07-02T10:47:11-04:00"},"careTeam":[{"provider":{"identifier":{"system":"http://hl7.org/fhir/sid/us-npi","value":"99999999"}},"role":{"coding":[{"code":"primary","display":"Primary Care Practitioner","system":"http://hl7.org/fhir/claimcareteamrole"}]},"sequence":1}],"contained":[{"id":"coverage","resourceType":"Coverage","type":{"text":"private"}}],"diagnosis":[{"diagnosisReference":{"reference":"Condition/149d6958-fe2c-45e7-8cf6-74cd432236a2"},"extension":[{"url":"https://bluebutton.cms.gov/assets/ig/StructureDefinition-bluebutton-inpatient-clm-poa-ind-sw1-extension","valueCoding":{"code":"Y","display":"Diagnosis present at time of admission","system":"https://bluebutton.cms.gov/assets/ig/CodeSystem-clm-poa-ind-sw1"}}],"sequence":1,"type":[{"coding":[{"code":"principal","system":"https://bluebutton.cms.gov/resources/codesystem/diagnosis-type"}]}]}],"extension":[{"url":"https://bluebutton.cms.gov/assets/ig/StructureDefinition-bluebutton-inpatient-ime-op-clm-val-amt-extension","valueMoney":{"code":"USD","system":"urn:iso:std:iso:4217","value":400}},{"url":"https://bluebutton.cms.gov/assets/ig/StructureDefinition-bluebutton-inpatient-dsh-op-clm-val-amt-extension","valueMoney":{"code":"USD","system":"urn:iso:std:iso:4217","value":0}},{"url":"https://bluebutton.cms.gov/assets/ig/StructureDefinition-bluebutton-inpatient-clm-pass-thru-per-diem-amt-extension","valueMoney":{"code":"USD","system":"urn:iso:std:iso:4217","value":0}},{"url":"https://bluebutton.cms.gov/assets/ig/StructureDefinition-bluebutton-inpatient-nch-profnl-cmpnt-chrg-amt-extension","valueMoney":{"code":"USD","system":"urn:iso:std:iso:4217","value":0}},{"url":"https://bluebutton.cms.gov/assets/ig/StructureDefinition-bluebutton-inpatient-clm-tot-pps-cptl-amt-extension","valueMoney":{"code":"USD","system":"urn:iso:std:iso:4217","value":0}},{"url":"https://bluebutton.cms.gov/assets/ig/StructureDefinition-bluebutton-inpatient-nch-bene-ip-ddctbl-amt-extension","valueMoney":{"code":"USD","system":"urn:iso:std:iso:4217","value":0}},{"url":"https://bluebutton.cms.gov/assets/ig/StructureDefinition-bluebutton-inpatient-nch-bene-pta-coinsrnc-lblty-amt-extension","valueMoney":{"code":"USD","system":"urn:iso:std:iso:4217","value":0}},{"url":"https://bluebutton.cms.gov/assets/ig/StructureDefinition-bluebutton-inpatient-nch-ip-ncvrd-chrg-amt-extension","valueMoney":{"code":"USD","system":"urn:iso:std:iso:4217","value":0}},{"url":"https://bluebutton.cms.gov/assets/ig/StructureDefinition-bluebutton-inpatient-nch-ip-tot-ddctn-amt-extension","valueMoney":{"code":"USD","system":"urn:iso:std:iso:4217","value":0}},{"url":"https://bluebutton.cms.gov/assets/ig/StructureDefinition-bluebutton-inpatient-clm-pps-cptl-dsprprtnt-shr-amt-extension","valueMoney":{"code":"USD","system":"urn:iso:std:iso:4217","value":0}},{"url":"https://bluebutton.cms.gov/assets/ig/StructureDefinition-bluebutton-inpatient-clm-pps-cptl-excptn-amt-extension","valueMoney":{"code":"USD","system":"urn:iso:std:iso:4217","value":0}},{"url":"https://bluebutton.cms.gov/assets/ig/StructureDefinition-bluebutton-inpatient-clm-pps-cptl-fsp-amt-extension","valueMoney":{"code":"USD","system":"urn:iso:std:iso:4217","value":0}},{"url":"https://bluebutton.cms.gov/assets/ig/StructureDefinition-bluebutton-inpatient-clm-pps-cptl-ime-amt-extension","valueMoney":{"code":"USD","system":"urn:iso:std:iso:4217","value":400}},{"url":"https://bluebutton.cms.gov/assets/ig/StructureDefinition-bluebutton-inpatient-clm-pps-cptl-outlier-amt-extension","valueMoney":{"code":"USD","system":"urn:iso:std:iso:4217","value":0}},{"url":"https://bluebutton.cms.gov/assets/ig/StructureDefinition-bluebutton-inpatient-clm-pps-old-cptl-hld-hrmls-amt-extension","valueMoney":{"code":"USD","system":"urn:iso:std:iso:4217","value":0}},{"url":"https://bluebutton.cms.gov/assets/ig/StructureDefinition-bluebutton-inpatient-nch-drg-outlier-aprvd-pmt-amt-extension","valueMoney":{"code":"USD","system":"urn:iso:std:iso:4217","value":0}},{"url":"https://bluebutton.cms.gov/assets/ig/StructureDefinition-bluebutton-inpatient-nch-bene-blood-ddctbl-lblty-am-extension","valueMoney":{"code":"USD","system":"urn:iso:std:iso:4217","value":0}},{"url":"https://bluebutton.cms.gov/assets/ig/StructureDefinition-bluebutton-inpatient-clm-mdcr-non-pmt-rsn-cd-extension","valueCoding":{"code":"N","display":"All other reasons for non-payment","system":"https://bluebutton.cms.gov/assets/ig/CodeSystem-clm-mdcr-non-pmt-rsn-cd"}},{"url":"https://bluebutton.cms.gov/assets/ig/StructureDefinition-bluebutton-inpatient-prpayamt-extension","valueMoney":{"code":"USD","system":"urn:iso:std:iso:4217","value":0}},{"url":"https://bluebutton.cms.gov/assets/ig/StructureDefinition-bluebutton-inpatient-fi-num-extension","valueIdentifier":{"system":"https://bluebutton.cms.gov/assets/ig/CodeSystem-fi-num","value":"002000"}}],"id":"cd6354ef-086d-4d69-a096-b42bc25d51ea","identifier":[{"system":"https://bluebutton.cms.gov/resources/variables/clm_id","value":"2ddeaf2c-46e9-4042-836f-3fbbccdff8a3"},{"system":"https://bluebutton.cms.gov/resources/identifier/claim-group","value":"99999999999"}],"insurance":{"coverage":{"reference":"#coverage"}},"item":[{"extension":[{"url":"https://bluebutton.cms.gov/assets/ig/StructureDefinition-bluebutton-inpatient-rev-cntr-ndc-qty-extension","valueQuantity":{"value":0}}],"locationCodeableConcept":{"coding":[{"code":"21","display":"Inpatient Hospital","system":"https://bluebutton.cms.gov/resources/variables/line_place_of_srvc_cd"}]},"sequence":1},{"extension":[{"url":"https://bluebutton.cms.gov/assets/ig/StructureDefinition-bluebutton-inpatient-rev-cntr-ndc-qty-extension","valueQuantity":{"value":0}}],"locationCodeableConcept":{"coding":[{"code":"21","display":"Inpatient Hospital","system":"https://bluebutton.cms.gov/resources/variables/line_place_of_srvc_cd"}]},"sequence":2},{"adjudication":[{"amount":{"code":"USD","system":"urn:iso:std:iso:4217","value":461.92600000000004},"category":{"coding":[{"code":"https://bluebutton.cms.gov/resources/variables/line_coinsrnc_amt","display":"Line Beneficiary Coinsurance Amount","system":"https://bluebutton.cms.gov/resources/codesystem/adjudication"}]}},{"amount":{"code":"USD","system":"urn:iso:std:iso:4217","value":1847.7040000000002},"category":{"coding":[{"code":"https://bluebutton.cms.gov/resources/variables/line_prvdr_pmt_amt","display":"Line Provider Payment Amount","system":"https://bluebutton.cms.gov/resources/codesystem/adjudication"}]}},{"amount":{"code":"USD","system":"urn:iso:std:iso:4217","value":2309.63},"category":{"coding":[{"code":"https://bluebutton.cms.gov/resources/variables/line_sbmtd_chrg_amt","display":"Line Submitted Charge Amount","system":"https://bluebutton.cms.gov/resources/codesystem/adjudication"}]}},{"amount":{"code":"USD","system":"urn:iso:std:iso:4217","value":2309.63},"category":{"coding":[{"code":"https://bluebutton.cms.gov/resources/variables/line_alowd_chrg_amt","display":"Line Allowed Charge Amount","system":"https://bluebutton.cms.gov/resources/codesystem/adjudication"}]}},{"amount":{"code":"USD","system":"urn:iso:std:iso:4217","value":0},"category":{"coding":[{"code":"https://bluebutton.cms.gov/resources/variables/line_bene_ptb_ddctbl_amt","display":"Line Beneficiary Part B Deductible Amount","system":"https://bluebutton.cms.gov/resources/codesystem/adjudication"}]}},{"category":{"coding":[{"code":"https://bluebutton.cms.gov/resources/variables/line_prcsg_ind_cd","display":"Line Processing Indicator Code","system":"https://bluebutton.cms.gov/resources/codesystem/adjudication"}]}}],"extension":[{"url":"https://bluebutton.cms.gov/assets/ig/StructureDefinition-bluebutton-inpatient-rev-cntr-ndc-qty-extension","valueQuantity":{"value":0}}],"locationCodeableConcept":{"coding":[{"code":"21","display":"Inpatient Hospital","system":"https://bluebutton.cms.gov/resources/variables/line_place_of_srvc_cd"}]},"sequence":3,"service":{"coding":[{"code":"117015009","system":"http://snomed.info/sct","version":"v1"}]}}],"meta":{"lastUpdated":"2019-04-09T09:55:27.736651+00:00","profile":["https://bluebutton.cms.gov/assets/ig/StructureDefinition-bluebutton-inpatient-claim"],"versionId":"MTU1NDgwMzcyNzczNjY1MTAwMA"},"organization":{"identifier":{"value":"15aeb131-dae7-4392-bb46-3b4aeddf31d7"}},"patient":{"reference":"Patient/000a04a1-7f9d-4325-8f99-0fd76e46bab3"},"payment":{"amount":{"code":"USD","system":"urn:iso:std:iso:4217","value":1847.7040000000002}},"provider":{"identifier":{"value":"417e9e98-335d-42f9-a957-ab1e79dca107"}},"resourceType":"ExplanationOfBenefit","status":"active","totalCost":{"code":"USD","system":"urn:iso:std:iso:4217","value":2434.63},"type":{"coding":[{"code":"71","display":"Local carrier non-durable medical equipment, prosthetics, orthotics, and supplies (DMEPOS) claim","system":"https://bluebutton.cms.gov/resources/variables/nch_clm_type_cd"},{"code":"CARRIER","display":"EOB Type","system":"https://bluebutton.cms.gov/resources/codesystem/eob-type"},{"code":"professional","display":"Claim Type","system":"http://hl7.org/fhir/ex-claimtype"},{"code":"O","display":"Part B physician/supplier claim record (processed by local carriers; can include DMEPOS services)","system":"https://bluebutton.cms.gov/resources/variables/nch_near_line_rec_ident_cd"}]}}},{"resource":{"billablePeriod":{"end":"2011-04-12T10:32:11-04:00","start":"2010-04-12T10:32:11-04:00"},"careTeam":[{"provider":{"identifier":{"system":"http://hl7.org/fhir/sid/us-npi","value":"99999999"}},"role":{"coding":[{"code":"primary","display":"Primary Care Practitioner","system":"http://hl7.org/fhir/claimcareteamrole"}]},"sequence":1}],"claim":{"reference":"Claim/7efb7541-d0b4-4b04-9917-b0176dbacebd"},"contained":[{"id":"1","intent":"order","recipient":[{"identifier":{"system":"http://hl7.org/fhir/sid/us-npi","value":"99999999"}}],"requester":{"agent":{"identifier":{"system":"http://hl7.org/fhir/sid/us-npi","value":"99999999"}}},"resourceType":"ReferralRequest","status":"completed","subject":{"reference":"Patient/000a04a1-7f9d-4325-8f99-0fd76e46bab3"}},{"id":"coverage","resourceType":"Coverage","type":{"text":"private"}}],"created":"2010-04-12T10:32:11-04:00","id":"dbee2484-c840-4510-a78b-d9b10b7dce64","identifier":[{"system":"https://bluebutton.cms.gov/resources/variables/clm_id","value":"7efb7541-d0b4-4b04-9917-b0176dbacebd"},{"system":"https://bluebutton.cms.gov/resources/identifier/claim-group","value":"99999999999"}],"insurance":{"coverage":{"reference":"#coverage"}},"item":[{"category":{"coding":[{"code":"1","display":"Medical care","system":"https://bluebutton.cms.gov/resources/variables/line_cms_type_srvc_cd"}]},"encounter":[{"reference":"Encounter/3b2f10a2-bdf3-43bf-bf69-1de47244aaf1"}],"locationCodeableConcept":{"coding":[{"code":"21","display":"Inpatient Hospital","system":"https://bluebutton.cms.gov/resources/variables/line_place_of_srvc_cd"}]},"sequence":1,"servicedPeriod":{"end":"2010-04-12T10:32:11-04:00","start":"2010-04-12T10:17:11-04:00"}},{"adjudication":[{"amount":{"code":"USD","system":"urn:iso:std:iso:4217","value":28.104000000000003},"category":{"coding":[{"code":"https://bluebutton.cms.gov/resources/variables/line_coinsrnc_amt","display":"Line Beneficiary Coinsurance Amount","system":"https://bluebutton.cms.gov/resources/codesystem/adjudication"}]}},{"amount":{"code":"USD","system":"urn:iso:std:iso:4217","value":112.41600000000001},"category":{"coding":[{"code":"https://bluebutton.cms.gov/resources/variables/line_prvdr_pmt_amt","display":"Line Provider Payment Amount","system":"https://bluebutton.cms.gov/resources/codesystem/adjudication"}]}},{"amount":{"code":"USD","system":"urn:iso:std:iso:4217","value":140.52},"category":{"coding":[{"code":"https://bluebutton.cms.gov/resources/variables/line_sbmtd_chrg_amt","display":"Line Submitted Charge Amount","system":"https://bluebutton.cms.gov/resources/codesystem/adjudication"}]}},{"amount":{"code":"USD","system":"urn:iso:std:iso:4217","value":140.52},"category":{"coding":[{"code":"https://bluebutton.cms.gov/resources/variables/line_alowd_chrg_amt","display":"Line Allowed Charge Amount","system":"https://bluebutton.cms.gov/resources/codesystem/adjudication"}]}},{"amount":{"code":"USD","system":"urn:iso:std:iso:4217","value":0},"category":{"coding":[{"code":"https://bluebutton.cms.gov/resources/variables/line_bene_ptb_ddctbl_amt","display":"Line Beneficiary Part B Deductible Amount","system":"https://bluebutton.cms.gov/resources/codesystem/adjudication"}]}},{"category":{"coding":[{"code":"https://bluebutton.cms.gov/resources/variables/line_prcsg_ind_cd","display":"Line Processing Indicator Code","system":"https://bluebutton.cms.gov/resources/codesystem/adjudication"}]},"reason":{"coding":[{"code":"A","display":"Allowed","system":"https://bluebutton.cms.gov/resources/variables/line_prcsg_ind_cd"}]}}],"category":{"coding":[{"code":"1","display":"Medical care","system":"https://bluebutton.cms.gov/resources/variables/line_cms_type_srvc_cd"}]},"informationLinkId":[1],"locationCodeableConcept":{"coding":[{"code":"21","display":"Inpatient Hospital","system":"https://bluebutton.cms.gov/resources/variables/line_place_of_srvc_cd"}]},"net":{"code":"USD","system":"urn:iso:std:iso:4217","value":140.52},"sequence":2,"servicedPeriod":{"end":"2010-04-12T10:32:11-04:00","start":"2010-04-12T10:17:11-04:00"}},{"adjudication":[{"amount":{"code":"USD","system":"urn:iso:std:iso:4217","value":28.104000000000003},"category":{"coding":[{"code":"https://bluebutton.cms.gov/resources/variables/line_coinsrnc_amt","display":"Line Beneficiary Coinsurance Amount","system":"https://bluebutton.cms.gov/resources/codesystem/adjudication"}]}},{"amount":{"code":"USD","system":"urn:iso:std:iso:4217","value":112.41600000000001},"category":{"coding":[{"code":"https://bluebutton.cms.gov/resources/variables/line_prvdr_pmt_amt","display":"Line Provider Payment Amount","system":"https://bluebutton.cms.gov/resources/codesystem/adjudication"}]}},{"amount":{"code":"USD","system":"urn:iso:std:iso:4217","value":140.52},"category":{"coding":[{"code":"https://bluebutton.cms.gov/resources/variables/line_sbmtd_chrg_amt","display":"Line Submitted Charge Amount","system":"https://bluebutton.cms.gov/resources/codesystem/adjudication"}]}},{"amount":{"code":"USD","system":"urn:iso:std:iso:4217","value":140.52},"category":{"coding":[{"code":"https://bluebutton.cms.gov/resources/variables/line_alowd_chrg_amt","display":"Line Allowed Charge Amount","system":"https://bluebutton.cms.gov/resources/codesystem/adjudication"}]}},{"amount":{"code":"USD","system":"urn:iso:std:iso:4217","value":0},"category":{"coding":[{"code":"https://bluebutton.cms.gov/resources/variables/line_bene_ptb_ddctbl_amt","display":"Line Beneficiary Part B Deductible Amount","system":"https://bluebutton.cms.gov/resources/codesystem/adjudication"}]}},{"category":{"coding":[{"code":"https://bluebutton.cms.gov/resources/variables/line_prcsg_ind_cd","display":"Line Processing Indicator Code","system":"https://bluebutton.cms.gov/resources/codesystem/adjudication"}]},"reason":{"coding":[{"code":"A","display":"Allowed","system":"https://bluebutton.cms.gov/resources/variables/line_prcsg_ind_cd"}]}}],"category":{"coding":[{"code":"1","display":"Medical care","system":"https://bluebutton.cms.gov/resources/variables/line_cms_type_srvc_cd"}]},"informationLinkId":[2],"locationCodeableConcept":{"coding":[{"code":"21","display":"Inpatient Hospital","system":"https://bluebutton.cms.gov/resources/variables/line_place_of_srvc_cd"}]},"net":{"code":"USD","system":"urn:iso:std:iso:4217","value":140.52},"sequence":3,"servicedPeriod":{"end":"2010-04-12T10:32:11-04:00","start":"2010-04-12T10:17:11-04:00"}}],"meta":{"lastUpdated":"2019-04-09T09:55:24.655481+00:00","versionId":"MTU1NDgwMzcyNDY1NTQ4MTAwMA"},"organization":{"identifier":{"value":"15aeb131-dae7-4392-bb46-3b4aeddf31d7"}},"patient":{"reference":"Patient/000a04a1-7f9d-4325-8f99-0fd76e46bab3"},"payment":{"amount":{"code":"USD","system":"urn:iso:std:iso:4217","value":224.83200000000002}},"provider":{"identifier":{"value":"417e9e98-335d-42f9-a957-ab1e79dca107"}},"referral":{"reference":"#1"},"resourceType":"ExplanationOfBenefit","status":"active","totalCost":{"code":"USD","system":"urn:iso:std:iso:4217","value":406.04},"type":{"coding":[{"code":"71","display":"Local carrier non-durable medical equipment, prosthetics, orthotics, and supplies (DMEPOS) claim","system":"https://bluebutton.cms.gov/resources/variables/nch_clm_type_cd"},{"code":"CARRIER","display":"EOB Type","system":"https://bluebutton.cms.gov/resources/codesystem/eob-type"},{"code":"professional","display":"Claim Type","system":"http://hl7.org/fhir/ex-claimtype"},{"code":"O","display":"Part B physician/supplier claim record (processed by local carriers; can include DMEPOS services)","system":"https://bluebutton.cms.gov/resources/variables/nch_near_line_rec_ident_cd"}]}}},{"resource":{"billablePeriod":{"end":"2014-11-12T09:32:11-05:00","extension":[{"url":"https://bluebutton.cms.gov/assets/ig/StructureDefinition-bluebutton-inpatient-claim-query-cd-extension","valueCoding":{"code":"3","display":"Final Bill","system":"https://bluebutton.cms.gov/assets/ig/ValueSet-claim-query-cd"}}],"start":"2013-11-12T09:32:11-05:00"},"careTeam":[{"provider":{"identifier":{"system":"http://hl7.org/fhir/sid/us-npi","value":"99999999"}},"role":{"coding":[{"code":"primary","display":"Primary Care Practitioner","system":"http://hl7.org/fhir/claimcareteamrole"}]},"sequence":1}],"contained":[{"id":"coverage","resourceType":"Coverage","type":{"text":"private"}}],"diagnosis":[{"diagnosisReference":{"reference":"Condition/21b08a8a-649c-4a66-bf6f-c43625b90772"},"extension":[{"url":"https://bluebutton.cms.gov/assets/ig/StructureDefinition-bluebutton-inpatient-clm-poa-ind-sw1-extension","valueCoding":{"code":"Y","display":"Diagnosis present at time of admission","system":"https://bluebutton.cms.gov/assets/ig/CodeSystem-clm-poa-ind-sw1"}}],"sequence":1,"type":[{"coding":[{"code":"principal","system":"https://bluebutton.cms.gov/resources/codesystem/diagnosis-type"}]}]}],"extension":[{"url":"https://bluebutton.cms.gov/assets/ig/StructureDefinition-bluebutton-inpatient-ime-op-clm-val-amt-extension","valueMoney":{"code":"USD","system":"urn:iso:std:iso:4217","value":400}},{"url":"https://bluebutton.cms.gov/assets/ig/StructureDefinition-bluebutton-inpatient-dsh-op-clm-val-amt-extension","valueMoney":{"code":"USD","system":"urn:iso:std:iso:4217","value":0}},{"url":"https://bluebutton.cms.gov/assets/ig/StructureDefinition-bluebutton-inpatient-clm-pass-thru-per-diem-amt-extension","valueMoney":{"code":"USD","system":"urn:iso:std:iso:4217","value":0}},{"url":"https://bluebutton.cms.gov/assets/ig/StructureDefinition-bluebutton-inpatient-nch-profnl-cmpnt-chrg-amt-extension","valueMoney":{"code":"USD","system":"urn:iso:std:iso:4217","value":0}},{"url":"https://bluebutton.cms.gov/assets/ig/StructureDefinition-bluebutton-inpatient-clm-tot-pps-cptl-amt-extension","valueMoney":{"code":"USD","system":"urn:iso:std:iso:4217","value":0}},{"url":"https://bluebutton.cms.gov/assets/ig/StructureDefinition-bluebutton-inpatient-nch-bene-ip-ddctbl-amt-extension","valueMoney":{"code":"USD","system":"urn:iso:std:iso:4217","value":0}},{"url":"https://bluebutton.cms.gov/assets/ig/StructureDefinition-bluebutton-inpatient-nch-bene-pta-coinsrnc-lblty-amt-extension","valueMoney":{"code":"USD","system":"urn:iso:std:iso:4217","value":0}},{"url":"https://bluebutton.cms.gov/assets/ig/StructureDefinition-bluebutton-inpatient-nch-ip-ncvrd-chrg-amt-extension","valueMoney":{"code":"USD","system":"urn:iso:std:iso:4217","value":0}},{"url":"https://bluebutton.cms.gov/assets/ig/StructureDefinition-bluebutton-inpatient-nch-ip-tot-ddctn-amt-extension","valueMoney":{"code":"USD","system":"urn:iso:std:iso:4217","value":0}},{"url":"https://bluebutton.cms.gov/assets/ig/StructureDefinition-bluebutton-inpatient-clm-pps-cptl-dsprprtnt-shr-amt-extension","valueMoney":{"code":"USD","system":"urn:iso:std:iso:4217","value":0}},{"url":"https://bluebutton.cms.gov/assets/ig/StructureDefinition-bluebutton-inpatient-clm-pps-cptl-excptn-amt-extension","valueMoney":{"code":"USD","system":"urn:iso:std:iso:4217","value":0}},{"url":"https://bluebutton.cms.gov/assets/ig/StructureDefinition-bluebutton-inpatient-clm-pps-cptl-fsp-amt-extension","valueMoney":{"code":"USD","system":"urn:iso:std:iso:4217","value":0}},{"url":"https://bluebutton.cms.gov/assets/ig/StructureDefinition-bluebutton-inpatient-clm-pps-cptl-ime-amt-extension","valueMoney":{"code":"USD","system":"urn:iso:std:iso:4217","value":400}},{"url":"https://bluebutton.cms.gov/assets/ig/StructureDefinition-bluebutton-inpatient-clm-pps-cptl-outlier-amt-extension","valueMoney":{"code":"USD","system":"urn:iso:std:iso:4217","value":0}},{"url":"https://bluebutton.cms.gov/assets/ig/StructureDefinition-bluebutton-inpatient-clm-pps-old-cptl-hld-hrmls-amt-extension","valueMoney":{"code":"USD","system":"urn:iso:std:iso:4217","value":0}},{"url":"https://bluebutton.cms.gov/assets/ig/StructureDefinition-bluebutton-inpatient-nch-drg-outlier-aprvd-pmt-amt-extension","valueMoney":{"code":"USD","system":"urn:iso:std:iso:4217","value":0}},{"url":"https://bluebutton.cms.gov/assets/ig/StructureDefinition-bluebutton-inpatient-nch-bene-blood-ddctbl-lblty-am-extension","valueMoney":{"code":"USD","system":"urn:iso:std:iso:4217","value":0}},{"url":"https://bluebutton.cms.gov/assets/ig/StructureDefinition-bluebutton-inpatient-clm-mdcr-non-pmt-rsn-cd-extension","valueCoding":{"code":"N","display":"All other reasons for non-payment","system":"https://bluebutton.cms.gov/assets/ig/CodeSystem-clm-mdcr-non-pmt-rsn-cd"}},{"url":"https://bluebutton.cms.gov/assets/ig/StructureDefinition-bluebutton-inpatient-prpayamt-extension","valueMoney":{"code":"USD","system":"urn:iso:std:iso:4217","value":0}},{"url":"https://bluebutton.cms.gov/assets/ig/StructureDefinition-bluebutton-inpatient-fi-num-extension","valueIdentifier":{"system":"https://bluebutton.cms.gov/assets/ig/CodeSystem-fi-num","value":"002000"}}],"id":"e621945b-f484-419b-962f-6d928d26ef3a","identifier":[{"system":"https://bluebutton.cms.gov/resources/variables/clm_id","value":"5cdf755e-fd57-4bd3-a743-d34a795b1a22"},{"system":"https://bluebutton.cms.gov/resources/identifier/claim-group","value":"99999999999"}],"insurance":{"coverage":{"reference":"#coverage"}},"item":[{"extension":[{"url":"https://bluebutton.cms.gov/assets/ig/StructureDefinition-bluebutton-inpatient-rev-cntr-ndc-qty-extension","valueQuantity":{"value":0}}],"locationCodeableConcept":{"coding":[{"code":"21","display":"Inpatient Hospital","system":"https://bluebutton.cms.gov/resources/variables/line_place_of_srvc_cd"}]},"sequence":1},{"extension":[{"url":"https://bluebutton.cms.gov/assets/ig/StructureDefinition-bluebutton-inpatient-rev-cntr-ndc-qty-extension","valueQuantity":{"value":0}}],"locationCodeableConcept":{"coding":[{"code":"21","display":"Inpatient Hospital","system":"https://bluebutton.cms.gov/resources/variables/line_place_of_srvc_cd"}]},"sequence":2}],"meta":{"lastUpdated":"2019-04-09T09:55:25.661682+00:00","profile":["https://bluebutton.cms.gov/assets/ig/StructureDefinition-bluebutton-inpatient-claim"],"versionId":"MTU1NDgwMzcyNTY2MTY4MjAwMA"},"organization":{"identifier":{"value":"15aeb131-dae7-4392-bb46-3b4aeddf31d7"}},"patient":{"reference":"Patient/000a04a1-7f9d-4325-8f99-0fd76e46bab3"},"payment":{"amount":{"code":"USD","system":"urn:iso:std:iso:4217","value":0}},"provider":{"identifier":{"value":"417e9e98-335d-42f9-a957-ab1e79dca107"}},"resourceType":"ExplanationOfBenefit","status":"active","totalCost":{"code":"USD","system":"urn:iso:std:iso:4217","value":125},"type":{"coding":[{"code":"71","display":"Local carrier non-durable medical equipment, prosthetics, orthotics, and supplies (DMEPOS) claim","system":"https://bluebutton.cms.gov/resources/variables/nch_clm_type_cd"},{"code":"CARRIER","display":"EOB Type","system":"https://bluebutton.cms.gov/resources/codesystem/eob-type"},{"code":"professional","display":"Claim Type","system":"http://hl7.org/fhir/ex-claimtype"},{"code":"O","display":"Part B physician/supplier claim record (processed by local carriers; can include DMEPOS services)","system":"https://bluebutton.cms.gov/resources/variables/nch_near_line_rec_ident_cd"}]}}},{"resource":{"billablePeriod":{"end":"2019-11-19T09:32:11-05:00","start":"2018-11-19T09:32:11-05:00"},"careTeam":[{"provider":{"identifier":{"system":"http://hl7.org/fhir/sid/us-npi","value":"99999999"}},"role":{"coding":[{"code":"primary","display":"Primary Care Practitioner","system":"http://hl7.org/fhir/claimcareteamrole"}]},"sequence":1}],"claim":{"reference":"Claim/adf69626-8d4e-4c7a-afeb-18e4dfc5acac"},"contained":[{"id":"1","intent":"order","recipient":[{"identifier":{"system":"http://hl7.org/fhir/sid/us-npi","value":"99999999"}}],"requester":{"agent":{"identifier":{"system":"http://hl7.org/fhir/sid/us-npi","value":"99999999"}}},"resourceType":"ReferralRequest","status":"completed","subject":{"reference":"Patient/000a04a1-7f9d-4325-8f99-0fd76e46bab3"}},{"id":"coverage","resourceType":"Coverage","type":{"text":"private"}}],"created":"2018-11-19T09:32:11-05:00","id":"e919a63b-17d8-40f1-ba83-d205524e8ad9","identifier":[{"system":"https://bluebutton.cms.gov/resources/variables/clm_id","value":"adf69626-8d4e-4c7a-afeb-18e4dfc5acac"},{"system":"https://bluebutton.cms.gov/resources/identifier/claim-group","value":"99999999999"}],"insurance":{"coverage":{"reference":"#coverage"}},"item":[{"category":{"coding":[{"code":"1","display":"Medical care","system":"https://bluebutton.cms.gov/resources/variables/line_cms_type_srvc_cd"}]},"encounter":[{"reference":"Encounter/a0ffd1f1-6ed2-4210-b578-4e4a10f8d679"}],"locationCodeableConcept":{"coding":[{"code":"21","display":"Inpatient Hospital","system":"https://bluebutton.cms.gov/resources/variables/line_place_of_srvc_cd"}]},"sequence":1,"servicedPeriod":{"end":"2018-11-19T09:32:11-05:00","start":"2018-11-19T09:17:11-05:00"}},{"adjudication":[{"amount":{"code":"USD","system":"urn:iso:std:iso:4217","value":28.104000000000003},"category":{"coding":[{"code":"https://bluebutton.cms.gov/resources/variables/line_coinsrnc_amt","display":"Line Beneficiary Coinsurance Amount","system":"https://bluebutton.cms.gov/resources/codesystem/adjudication"}]}},{"amount":{"code":"USD","system":"urn:iso:std:iso:4217","value":112.41600000000001},"category":{"coding":[{"code":"https://bluebutton.cms.gov/resources/variables/line_prvdr_pmt_amt","display":"Line Provider Payment Amount","system":"https://bluebutton.cms.gov/resources/codesystem/adjudication"}]}},{"amount":{"code":"USD","system":"urn:iso:std:iso:4217","value":140.52},"category":{"coding":[{"code":"https://bluebutton.cms.gov/resources/variables/line_sbmtd_chrg_amt","display":"Line Submitted Charge Amount","system":"https://bluebutton.cms.gov/resources/codesystem/adjudication"}]}},{"amount":{"code":"USD","system":"urn:iso:std:iso:4217","value":140.52},"category":{"coding":[{"code":"https://bluebutton.cms.gov/resources/variables/line_alowd_chrg_amt","display":"Line Allowed Charge Amount","system":"https://bluebutton.cms.gov/resources/codesystem/adjudication"}]}},{"amount":{"code":"USD","system":"urn:iso:std:iso:4217","value":0},"category":{"coding":[{"code":"https://bluebutton.cms.gov/resources/variables/line_bene_ptb_ddctbl_amt","display":"Line Beneficiary Part B Deductible Amount","system":"https://bluebutton.cms.gov/resources/codesystem/adjudication"}]}},{"category":{"coding":[{"code":"https://bluebutton.cms.gov/resources/variables/line_prcsg_ind_cd","display":"Line Processing Indicator Code","system":"https://bluebutton.cms.gov/resources/codesystem/adjudication"}]},"reason":{"coding":[{"code":"A","display":"Allowed","system":"https://bluebutton.cms.gov/resources/variables/line_prcsg_ind_cd"}]}}],"category":{"coding":[{"code":"1","display":"Medical care","system":"https://bluebutton.cms.gov/resources/variables/line_cms_type_srvc_cd"}]},"informationLinkId":[1],"locationCodeableConcept":{"coding":[{"code":"21","display":"Inpatient Hospital","system":"https://bluebutton.cms.gov/resources/variables/line_place_of_srvc_cd"}]},"net":{"code":"USD","system":"urn:iso:std:iso:4217","value":140.52},"sequence":2,"servicedPeriod":{"end":"2018-11-19T09:32:11-05:00","start":"2018-11-19T09:17:11-05:00"}}],"meta":{"lastUpdated":"2019-04-09T09:55:27.752095+00:00","versionId":"MTU1NDgwMzcyNzc1MjA5NTAwMA"},"organization":{"identifier":{"value":"15aeb131-dae7-4392-bb46-3b4aeddf31d7"}},"patient":{"reference":"Patient/000a04a1-7f9d-4325-8f99-0fd76e46bab3"},"payment":{"amount":{"code":"USD","system":"urn:iso:std:iso:4217","value":112.41600000000001}},"provider":{"identifier":{"value":"417e9e98-335d-42f9-a957-ab1e79dca107"}},"referral":{"reference":"#1"},"resourceType":"ExplanationOfBenefit","status":"active","totalCost":{"code":"USD","system":"urn:iso:std:iso:4217","value":265.52},"type":{"coding":[{"code":"71","display":"Local carrier non-durable medical equipment, prosthetics, orthotics, and supplies (DMEPOS) claim","system":"https://bluebutton.cms.gov/resources/variables/nch_clm_type_cd"},{"code":"CARRIER","display":"EOB Type","system":"https://bluebutton.cms.gov/resources/codesystem/eob-type"},{"code":"professional","display":"Claim Type","system":"http://hl7.org/fhir/ex-claimtype"},{"code":"O","display":"Part B physician/supplier claim record (processed by local carriers; can include DMEPOS services)","system":"https://bluebutton.cms.gov/resources/variables/nch_near_line_rec_ident_cd"}]}}},{"resource":{"context":{"reference":"Encounter/c78fd2e6-6622-45bd-a76c-f64426644c24"},"id":"9f590837-b841-4de6-8e25-4b849fdf4b2e","meta":{"lastUpdated":"2019-04-09T09:55:23.583807+00:00","versionId":"MTU1NDgwMzcyMzU4MzgwNzAwMA"},"numberOfInstances":1,"numberOfSeries":1,"patient":{"reference":"Patient/000a04a1-7f9d-4325-8f99-0fd76e46bab3"},"resourceType":"ImagingStudy","series":[{"availability":"UNAVAILABLE","bodySite":{"code":"8205005","display":"Wrist","system":"http://snomed.info/sct"},"instance":[{"number":1,"sopClass":"urn:oid:1.2.840.10008.5.1.4.1.1.1.1","title":"Image of wrist","uid":"urn:oid:1.2.840.99999999.1.1.81320584.1547217791893"}],"modality":{"code":"DX","display":"Digital Radiography","system":"http://dicom.nema.org/resources/ontology/DCM"},"number":1,"numberOfInstances":1,"started":"2008-11-25T09:17:11-05:00","uid":"urn:oid:1.2.840.99999999.1.80055201.1547217791893"}],"started":"2008-11-25T09:17:11-05:00","uid":"urn:oid:1.2.840.99999999.34160352.1547217791893"}},{"resource":{"date":"2014-03-17T10:17:11-04:00","encounter":{"reference":"Encounter/8a3dee06-c791-4a66-a4ff-4b17522e75e8"},"id":"10cc52f0-ad3d-4f45-8156-d266ae8756d0","meta":{"lastUpdated":"2019-04-09T09:55:26.679520+00:00","versionId":"MTU1NDgwMzcyNjY3OTUyMDAwMA"},"notGiven":false,"patient":{"reference":"Patient/000a04a1-7f9d-4325-8f99-0fd76e46bab3"},"primarySource":true,"resourceType":"Immunization","status":"completed","vaccineCode":{"coding":[{"code":"43","display":"Hep B, adult","system":"http://hl7.org/fhir/sid/cvx"}],"text":"Hep B, adult"}}},{"resource":{"date":"2010-04-12T10:17:11-04:00","encounter":{"reference":"Encounter/3b2f10a2-bdf3-43bf-bf69-1de47244aaf1"},"id":"188debca-5e33-42bd-b92a-0012c8b30b63","meta":{"lastUpdated":"2019-04-09T09:55:24.648173+00:00","versionId":"MTU1NDgwMzcyNDY0ODE3MzAwMA"},"notGiven":false,"patient":{"reference":"Patient/000a04a1-7f9d-4325-8f99-0fd76e46bab3"},"primarySource":true,"resourceType":"Immunization","status":"completed","vaccineCode":{"coding":[{"code":"140","display":"Influenza, seasonal, injectable, preservative free","system":"http://hl7.org/fhir/sid/cvx"}],"text":"Influenza, seasonal, injectable, preservative free"}}},{"resource":{"date":"2014-03-17T10:17:11-04:00","encounter":{"reference":"Encounter/8a3dee06-c791-4a66-a4ff-4b17522e75e8"},"id":"51a65b50-8fbc-483c-b362-ea0ed683c07a","meta":{"lastUpdated":"2019-04-09T09:55:26.684241+00:00","versionId":"MTU1NDgwMzcyNjY4NDI0MTAwMA"},"notGiven":false,"patient":{"reference":"Patient/000a04a1-7f9d-4325-8f99-0fd76e46bab3"},"primarySource":true,"resourceType":"Immunization","status":"completed","vaccineCode":{"coding":[{"code":"140","display":"Influenza, seasonal, injectable, preservative free","system":"http://hl7.org/fhir/sid/cvx"}],"text":"Influenza, seasonal, injectable, preservative free"}}},{"resource":{"date":"2010-04-12T10:17:11-04:00","encounter":{"reference":"Encounter/3b2f10a2-bdf3-43bf-bf69-1de47244aaf1"},"id":"5a159d14-efbe-4259-b162-e5a3550bf219","meta":{"lastUpdated":"2019-04-09T09:55:24.645644+00:00","versionId":"MTU1NDgwMzcyNDY0NTY0NDAwMA"},"notGiven":false,"patient":{"reference":"Patient/000a04a1-7f9d-4325-8f99-0fd76e46bab3"},"primarySource":true,"resourceType":"Immunization","status":"completed","vaccineCode":{"coding":[{"code":"114","display":"meningococcal MCV4P","system":"http://hl7.org/fhir/sid/cvx"}],"text":"meningococcal MCV4P"}}},{"resource":{"date":"2013-04-29T10:17:11-04:00","encounter":{"reference":"Encounter/ffe08eab-30e2-43f6-880d-926d9ae3e906"},"id":"6206770c-b900-4237-8088-1c3445213936","meta":{"lastUpdated":"2019-04-09T09:55:25.655030+00:00","versionId":"MTU1NDgwMzcyNTY1NTAzMDAwMA"},"notGiven":false,"patient":{"reference":"Patient/000a04a1-7f9d-4325-8f99-0fd76e46bab3"},"primarySource":true,"resourceType":"Immunization","status":"completed","vaccineCode":{"coding":[{"code":"140","display":"Influenza, seasonal, injectable, preservative free","system":"http://hl7.org/fhir/sid/cvx"}],"text":"Influenza, seasonal, injectable, preservative free"}}},{"resource":{"date":"2011-04-18T10:17:11-04:00","encounter":{"reference":"Encounter/995aa808-fde7-4d91-85e7-cb57fb86470d"},"id":"839259d3-514d-47d1-93f8-2125145c27a8","meta":{"lastUpdated":"2019-04-09T09:55:24.653174+00:00","versionId":"MTU1NDgwMzcyNDY1MzE3NDAwMA"},"notGiven":false,"patient":{"reference":"Patient/000a04a1-7f9d-4325-8f99-0fd76e46bab3"},"primarySource":true,"resourceType":"Immunization","status":"completed","vaccineCode":{"coding":[{"code":"140","display":"Influenza, seasonal, injectable, preservative free","system":"http://hl7.org/fhir/sid/cvx"}],"text":"Influenza, seasonal, injectable, preservative free"}}},{"resource":{"date":"2009-04-06T10:17:11-04:00","encounter":{"reference":"Encounter/a3d04bc9-aef3-4c30-a0e2-8d765cbe1626"},"id":"8ee176a8-7873-4528-8db4-114b17d50135","meta":{"lastUpdated":"2019-04-09T09:55:23.580760+00:00","versionId":"MTU1NDgwMzcyMzU4MDc2MDAwMA"},"notGiven":false,"patient":{"reference":"Patient/000a04a1-7f9d-4325-8f99-0fd76e46bab3"},"primarySource":true,"resourceType":"Immunization","status":"completed","vaccineCode":{"coding":[{"code":"140","display":"Influenza, seasonal, injectable, preservative free","system":"http://hl7.org/fhir/sid/cvx"}],"text":"Influenza, seasonal, injectable, preservative free"}}},{"resource":{"date":"2015-11-16T09:17:11-05:00","encounter":{"reference":"Encounter/16a1b567-b75d-4c41-90c6-9618483fef90"},"id":"a01d206e-f840-4a97-927b-88e7784db8a5","meta":{"lastUpdated":"2019-04-09T09:55:27.737137+00:00","versionId":"MTU1NDgwMzcyNzczNzEzNzAwMA"},"notGiven":false,"patient":{"reference":"Patient/000a04a1-7f9d-4325-8f99-0fd76e46bab3"},"primarySource":true,"resourceType":"Immunization","status":"completed","vaccineCode":{"coding":[{"code":"113","display":"Td (adult) preservative free","system":"http://hl7.org/fhir/sid/cvx"}],"text":"Td (adult) preservative free"}}},{"resource":{"date":"2015-11-16T09:17:11-05:00","encounter":{"reference":"Encounter/16a1b567-b75d-4c41-90c6-9618483fef90"},"id":"a2013c28-fddd-4bbe-a06a-365c8273cb9b","meta":{"lastUpdated":"2019-04-09T09:55:27.741221+00:00","versionId":"MTU1NDgwMzcyNzc0MTIyMTAwMA"},"notGiven":false,"patient":{"reference":"Patient/000a04a1-7f9d-4325-8f99-0fd76e46bab3"},"primarySource":true,"resourceType":"Immunization","status":"completed","vaccineCode":{"coding":[{"code":"43","display":"Hep B, adult","system":"http://hl7.org/fhir/sid/cvx"}],"text":"Hep B, adult"}}},{"resource":{"date":"2015-11-16T09:17:11-05:00","encounter":{"reference":"Encounter/16a1b567-b75d-4c41-90c6-9618483fef90"},"id":"a5ed1eb9-5330-4d87-97dd-29530852cea0","meta":{"lastUpdated":"2019-04-09T09:55:27.737138+00:00","versionId":"MTU1NDgwMzcyNzczNzEzODAwMA"},"notGiven":false,"patient":{"reference":"Patient/000a04a1-7f9d-4325-8f99-0fd76e46bab3"},"primarySource":true,"resourceType":"Immunization","status":"completed","vaccineCode":{"coding":[{"code":"140","display":"Influenza, seasonal, injectable, preservative free","system":"http://hl7.org/fhir/sid/cvx"}],"text":"Influenza, seasonal, injectable, preservative free"}}},{"resource":{"date":"2015-11-16T09:17:11-05:00","encounter":{"reference":"Encounter/16a1b567-b75d-4c41-90c6-9618483fef90"},"id":"b7c47d32-5692-4930-a026-16ffbb1def96","meta":{"lastUpdated":"2019-04-09T09:55:27.741219+00:00","versionId":"MTU1NDgwMzcyNzc0MTIxOTAwMA"},"notGiven":false,"patient":{"reference":"Patient/000a04a1-7f9d-4325-8f99-0fd76e46bab3"},"primarySource":true,"resourceType":"Immunization","status":"completed","vaccineCode":{"coding":[{"code":"114","display":"meningococcal MCV4P","system":"http://hl7.org/fhir/sid/cvx"}],"text":"meningococcal MCV4P"}}},{"resource":{"date":"2012-04-23T10:17:11-04:00","encounter":{"reference":"Encounter/a23fed55-17a4-4113-ac18-f463681a8596"},"id":"d0547acb-579f-4ab4-b836-e2cc8735fbea","meta":{"lastUpdated":"2019-04-09T09:55:24.651797+00:00","versionId":"MTU1NDgwMzcyNDY1MTc5NzAwMA"},"notGiven":false,"patient":{"reference":"Patient/000a04a1-7f9d-4325-8f99-0fd76e46bab3"},"primarySource":true,"resourceType":"Immunization","status":"completed","vaccineCode":{"coding":[{"code":"140","display":"Influenza, seasonal, injectable, preservative free","system":"http://hl7.org/fhir/sid/cvx"}],"text":"Influenza, seasonal, injectable, preservative free"}}},{"resource":{"date":"2018-11-19T09:17:11-05:00","encounter":{"reference":"Encounter/a0ffd1f1-6ed2-4210-b578-4e4a10f8d679"},"id":"dd186837-fd77-428c-bc33-9fc53dc378f7","meta":{"lastUpdated":"2019-04-09T09:55:27.740845+00:00","versionId":"MTU1NDgwMzcyNzc0MDg0NTAwMA"},"notGiven":false,"patient":{"reference":"Patient/000a04a1-7f9d-4325-8f99-0fd76e46bab3"},"primarySource":true,"resourceType":"Immunization","status":"completed","vaccineCode":{"coding":[{"code":"140","display":"Influenza, seasonal, injectable, preservative free","system":"http://hl7.org/fhir/sid/cvx"}],"text":"Influenza, seasonal, injectable, preservative free"}}},{"resource":{"authoredOn":"2011-10-15T10:17:11-04:00","context":{"reference":"Encounter/7271ed38-a0b2-4a22-b65e-cd38fa825576"},"id":"0ca3b6ed-3d91-445b-81b0-e577838a57dc","intent":"order","medicationCodeableConcept":{"coding":[{"code":"834061","display":"Penicillin V Potassium 250 MG Oral Tablet","system":"http://www.nlm.nih.gov/research/umls/rxnorm"}],"text":"Penicillin V Potassium 250 MG Oral Tablet"},"meta":{"lastUpdated":"2019-04-09T09:55:24.660279+00:00","versionId":"MTU1NDgwMzcyNDY2MDI3OTAwMA"},"reasonReference":[{"reference":"Condition/406a98e3-55d2-468e-95f7-df19f865e750"}],"requester":{"agent":{"reference":"Practitioner/417e9e98-335d-42f9-a957-ab1e79dca107"},"onBehalfOf":{"reference":"Organization/15aeb131-dae7-4392-bb46-3b4aeddf31d7"}},"resourceType":"MedicationRequest","status":"stopped","subject":{"reference":"Patient/000a04a1-7f9d-4325-8f99-0fd76e46bab3"}}},{"resource":{"authoredOn":"2008-11-25T09:17:11-05:00","context":{"reference":"Encounter/c78fd2e6-6622-45bd-a76c-f64426644c24"},"dosageInstruction":[{"asNeededBoolean":true,"sequence":1}],"id":"4ee0972c-12d9-44fc-b1b0-1de5dfa7b5ad","intent":"order","medicationCodeableConcept":{"coding":[{"code":"313782","display":"Acetaminophen 325 MG Oral Tablet","system":"http://www.nlm.nih.gov/research/umls/rxnorm"}],"text":"Acetaminophen 325 MG Oral Tablet"},"meta":{"lastUpdated":"2019-04-09T09:55:23.590750+00:00","versionId":"MTU1NDgwMzcyMzU5MDc1MDAwMA"},"requester":{"agent":{"reference":"Practitioner/417e9e98-335d-42f9-a957-ab1e79dca107"},"onBehalfOf":{"reference":"Organization/15aeb131-dae7-4392-bb46-3b4aeddf31d7"}},"resourceType":"MedicationRequest","status":"stopped","subject":{"reference":"Patient/000a04a1-7f9d-4325-8f99-0fd76e46bab3"}}},{"resource":{"authoredOn":"2012-04-23T10:17:11-04:00","context":{"reference":"Encounter/a23fed55-17a4-4113-ac18-f463681a8596"},"id":"56d73691-81b3-4813-ab40-72a8383b053a","intent":"order","medicationCodeableConcept":{"coding":[{"code":"316052","display":"Hydrochlorothiazide 6.25 MG","system":"http://www.nlm.nih.gov/research/umls/rxnorm"}],"text":"Hydrochlorothiazide 6.25 MG"},"meta":{"lastUpdated":"2019-04-09T09:55:24.653172+00:00","versionId":"MTU1NDgwMzcyNDY1MzE3MjAwMA"},"reasonReference":[{"reference":"Condition/bd0fc71f-2c4c-433d-a498-326477ea2ced"}],"requester":{"agent":{"reference":"Practitioner/417e9e98-335d-42f9-a957-ab1e79dca107"},"onBehalfOf":{"reference":"Organization/15aeb131-dae7-4392-bb46-3b4aeddf31d7"}},"resourceType":"MedicationRequest","status":"stopped","subject":{"reference":"Patient/000a04a1-7f9d-4325-8f99-0fd76e46bab3"}}},{"resource":{"authoredOn":"2016-07-02T10:17:11-04:00","context":{"reference":"Encounter/1b822c75-dc44-4f9d-9f71-0e2baa56aa42"},"id":"5f88c260-48b9-4053-a74e-ad0b60bf1aed","intent":"order","medicationCodeableConcept":{"coding":[{"code":"834102","display":"Penicillin V Potassium 500 MG Oral Tablet","system":"http://www.nlm.nih.gov/research/umls/rxnorm"}],"text":"Penicillin V Potassium 500 MG Oral Tablet"},"meta":{"lastUpdated":"2019-04-09T09:55:27.738401+00:00","versionId":"MTU1NDgwMzcyNzczODQwMTAwMA"},"reasonReference":[{"reference":"Condition/406a98e3-55d2-468e-95f7-df19f865e750"},{"reference":"Condition/149d6958-fe2c-45e7-8cf6-74cd432236a2"}],"requester":{"agent":{"reference":"Practitioner/417e9e98-335d-42f9-a957-ab1e79dca107"},"onBehalfOf":{"reference":"Organization/15aeb131-dae7-4392-bb46-3b4aeddf31d7"}},"resourceType":"MedicationRequest","status":"stopped","subject":{"reference":"Patient/000a04a1-7f9d-4325-8f99-0fd76e46bab3"}}},{"resource":{"authoredOn":"2013-04-29T10:17:11-04:00","context":{"reference":"Encounter/ffe08eab-30e2-43f6-880d-926d9ae3e906"},"id":"694cfefc-3428-4a7f-805e-7c19e1a49ebc","intent":"order","medicationCodeableConcept":{"coding":[{"code":"316049","display":"Hydrochlorothiazide 25 MG","system":"http://www.nlm.nih.gov/research/umls/rxnorm"}],"text":"Hydrochlorothiazide 25 MG"},"meta":{"lastUpdated":"2019-04-09T09:55:25.661580+00:00","versionId":"MTU1NDgwMzcyNTY2MTU4MDAwMA"},"reasonReference":[{"reference":"Condition/bd0fc71f-2c4c-433d-a498-326477ea2ced"}],"requester":{"agent":{"reference":"Practitioner/417e9e98-335d-42f9-a957-ab1e79dca107"},"onBehalfOf":{"reference":"Organization/15aeb131-dae7-4392-bb46-3b4aeddf31d7"}},"resourceType":"MedicationRequest","status":"active","subject":{"reference":"Patient/000a04a1-7f9d-4325-8f99-0fd76e46bab3"}}},{"resource":{"authoredOn":"2012-11-11T09:17:11-05:00","context":{"reference":"Encounter/ba032cff-e8ac-4055-9f1d-5c24c88c6d68"},"id":"795f3e28-5daa-4580-81c7-023feaa73415","intent":"order","medicationCodeableConcept":{"coding":[{"code":"562251","display":"Amoxicillin 250 MG / Clavulanate 125 MG Oral Tablet","system":"http://www.nlm.nih.gov/research/umls/rxnorm"}],"text":"Amoxicillin 250 MG / Clavulanate 125 MG Oral Tablet"},"meta":{"lastUpdated":"2019-04-09T09:55:24.658528+00:00","versionId":"MTU1NDgwMzcyNDY1ODUyODAwMA"},"reasonReference":[{"reference":"Condition/9e134b76-18da-4298-8229-c5fe6eb6c6b9"}],"requester":{"agent":{"reference":"Practitioner/417e9e98-335d-42f9-a957-ab1e79dca107"},"onBehalfOf":{"reference":"Organization/15aeb131-dae7-4392-bb46-3b4aeddf31d7"}},"resourceType":"MedicationRequest","status":"stopped","subject":{"reference":"Patient/000a04a1-7f9d-4325-8f99-0fd76e46bab3"}}},{"resource":{"authoredOn":"2012-10-05T10:17:11-04:00","context":{"reference":"Encounter/871ad267-f304-4ee3-9dd5-7773af7517ea"},"dosageInstruction":[{"asNeededBoolean":true,"sequence":1}],"id":"7b3f5dba-df91-47a6-8eb4-6bbaa7ac3ddb","intent":"order","medicationCodeableConcept":{"coding":[{"code":"849574","display":"Naproxen sodium 220 MG Oral Tablet","system":"http://www.nlm.nih.gov/research/umls/rxnorm"}],"text":"Naproxen sodium 220 MG Oral Tablet"},"meta":{"lastUpdated":"2019-04-09T09:55:24.654654+00:00","versionId":"MTU1NDgwMzcyNDY1NDY1NDAwMA"},"requester":{"agent":{"reference":"Practitioner/417e9e98-335d-42f9-a957-ab1e79dca107"},"onBehalfOf":{"reference":"Organization/15aeb131-dae7-4392-bb46-3b4aeddf31d7"}},"resourceType":"MedicationRequest","status":"stopped","subject":{"reference":"Patient/000a04a1-7f9d-4325-8f99-0fd76e46bab3"}}},{"resource":{"authoredOn":"2011-07-01T10:17:11-04:00","context":{"reference":"Encounter/d1455839-1bb1-43e4-a021-ece103553257"},"id":"a6fff82c-fd02-454d-8f3d-dc3bc7b7f98b","intent":"order","medicationCodeableConcept":{"coding":[{"code":"313782","display":"Acetaminophen 325 MG Oral Tablet","system":"http://www.nlm.nih.gov/research/umls/rxnorm"}],"text":"Acetaminophen 325 MG Oral Tablet"},"meta":{"lastUpdated":"2019-04-09T09:55:24.654511+00:00","versionId":"MTU1NDgwMzcyNDY1NDUxMTAwMA"},"reasonReference":[{"reference":"Condition/ffecd8ba-a369-4303-884d-a62d978c99d3"}],"requester":{"agent":{"reference":"Practitioner/417e9e98-335d-42f9-a957-ab1e79dca107"},"onBehalfOf":{"reference":"Organization/15aeb131-dae7-4392-bb46-3b4aeddf31d7"}},"resourceType":"MedicationRequest","status":"stopped","subject":{"reference":"Patient/000a04a1-7f9d-4325-8f99-0fd76e46bab3"}}},{"resource":{"authoredOn":"2014-08-10T10:17:11-04:00","context":{"reference":"Encounter/8adadb54-fe85-4935-a9c5-b9ad1f2f4641"},"dosageInstruction":[{"asNeededBoolean":true,"sequence":1}],"id":"a9103ad3-4604-4aef-83b9-03813f267756","intent":"order","medicationCodeableConcept":{"coding":[{"code":"313782","display":"Acetaminophen 325 MG Oral Tablet","system":"http://www.nlm.nih.gov/research/umls/rxnorm"}],"text":"Acetaminophen 325 MG Oral Tablet"},"meta":{"lastUpdated":"2019-04-09T09:55:26.679620+00:00","versionId":"MTU1NDgwMzcyNjY3OTYyMDAwMA"},"requester":{"agent":{"reference":"Practitioner/417e9e98-335d-42f9-a957-ab1e79dca107"},"onBehalfOf":{"reference":"Organization/15aeb131-dae7-4392-bb46-3b4aeddf31d7"}},"resourceType":"MedicationRequest","status":"stopped","subject":{"reference":"Patient/000a04a1-7f9d-4325-8f99-0fd76e46bab3"}}},{"resource":{"authoredOn":"2015-11-05T09:17:11-05:00","context":{"reference":"Encounter/462b3d65-869d-4ecd-9894-2fc5aea491b9"},"id":"bd197bfb-caf5-4a3a-81fb-9126e68beed3","intent":"order","medicationCodeableConcept":{"coding":[{"code":"313782","display":"Acetaminophen 325 MG Oral Tablet","system":"http://www.nlm.nih.gov/research/umls/rxnorm"}],"text":"Acetaminophen 325 MG Oral Tablet"},"meta":{"lastUpdated":"2019-04-09T09:55:26.686582+00:00","versionId":"MTU1NDgwMzcyNjY4NjU4MjAwMA"},"reasonReference":[{"reference":"Condition/ffecd8ba-a369-4303-884d-a62d978c99d3"},{"reference":"Condition/8b2fcc0b-88a0-46a1-981b-47cff954e9c9"}],"requester":{"agent":{"reference":"Practitioner/417e9e98-335d-42f9-a957-ab1e79dca107"},"onBehalfOf":{"reference":"Organization/15aeb131-dae7-4392-bb46-3b4aeddf31d7"}},"resourceType":"MedicationRequest","status":"stopped","subject":{"reference":"Patient/000a04a1-7f9d-4325-8f99-0fd76e46bab3"}}},{"resource":{"authoredOn":"2018-06-18T10:17:11-04:00","context":{"reference":"Encounter/62e31be8-7e38-4bae-8511-f315173e973c"},"dosageInstruction":[{"asNeededBoolean":true,"sequence":1}],"id":"c3cf26e2-684a-4f80-983e-a9719c57ea62","intent":"order","medicationCodeableConcept":{"coding":[{"code":"313782","display":"Acetaminophen 325 MG Oral Tablet","system":"http://www.nlm.nih.gov/research/umls/rxnorm"}],"text":"Acetaminophen 325 MG Oral Tablet"},"meta":{"lastUpdated":"2019-04-09T09:55:27.739061+00:00","versionId":"MTU1NDgwMzcyNzczOTA2MTAwMA"},"requester":{"agent":{"reference":"Practitioner/417e9e98-335d-42f9-a957-ab1e79dca107"},"onBehalfOf":{"reference":"Organization/15aeb131-dae7-4392-bb46-3b4aeddf31d7"}},"resourceType":"MedicationRequest","status":"stopped","subject":{"reference":"Patient/000a04a1-7f9d-4325-8f99-0fd76e46bab3"}}},{"resource":{"category":[{"coding":[{"code":"vital-signs","display":"vital-signs","system":"http://hl7.org/fhir/observation-category"}]}],"code":{"coding":[{"code":"29463-7","display":"Body Weight","system":"http://loinc.org"}],"text":"Body Weight"},"context":{"reference":"Encounter/a23fed55-17a4-4113-ac18-f463681a8596"},"effectiveDateTime":"2012-04-23T10:17:11-04:00","id":"005d7564-9421-4688-a35d-4aaaeef0e369","issued":"2012-04-23T10:17:11.068-04:00","meta":{"lastUpdated":"2019-04-09T09:55:24.653693+00:00","versionId":"MTU1NDgwMzcyNDY1MzY5MzAwMA"},"resourceType":"Observation","status":"final","subject":{"reference":"Patient/000a04a1-7f9d-4325-8f99-0fd76e46bab3"},"valueQuantity":{"code":"kg","system":"http://unitsofmeasure.org","unit":"kg","value":70.0892109127999}}},{"resource":{"category":[{"coding":[{"code":"vital-signs","display":"vital-signs","system":"http://hl7.org/fhir/observation-category"}]}],"code":{"coding":[{"code":"39156-5","display":"Body Mass Index","system":"http://loinc.org"}],"text":"Body Mass Index"},"context":{"reference":"Encounter/3b2f10a2-bdf3-43bf-bf69-1de47244aaf1"},"effectiveDateTime":"2010-04-12T10:17:11-04:00","id":"069e082b-14e1-44c5-bc61-c9603965d2af","issued":"2010-04-12T10:17:11.068-04:00","meta":{"lastUpdated":"2019-04-09T09:55:23.592294+00:00","versionId":"MTU1NDgwMzcyMzU5MjI5NDAwMA"},"resourceType":"Observation","status":"final","subject":{"reference":"Patient/000a04a1-7f9d-4325-8f99-0fd76e46bab3"},"valueQuantity":{"code":"kg/m2","system":"http://unitsofmeasure.org","unit":"kg/m2","value":21.77944833341607}}},{"resource":{"category":[{"coding":[{"code":"laboratory","display":"laboratory","system":"http://hl7.org/fhir/observation-category"}]}],"code":{"coding":[{"code":"32207-3","display":"Platelet distribution width [Entitic volume] in Blood by Automated count","system":"http://loinc.org"}],"text":"Platelet distribution width [Entitic volume] in Blood by Automated count"},"context":{"reference":"Encounter/3b2f10a2-bdf3-43bf-bf69-1de47244aaf1"},"effectiveDateTime":"2010-04-12T10:17:11-04:00","id":"10fee612-d0df-4f74-9d07-2150b4a5e71f","issued":"2010-04-12T10:17:11.068-04:00","meta":{"lastUpdated":"2019-04-09T09:55:24.645283+00:00","versionId":"MTU1NDgwMzcyNDY0NTI4MzAwMA"},"resourceType":"Observation","status":"final","subject":{"reference":"Patient/000a04a1-7f9d-4325-8f99-0fd76e46bab3"},"valueQuantity":{"code":"fL","system":"http://unitsofmeasure.org","unit":"fL","value":472.75272785043796}}},{"resource":{"category":[{"coding":[{"code":"vital-signs","display":"vital-signs","system":"http://hl7.org/fhir/observation-category"}]}],"code":{"coding":[{"code":"55284-4","display":"Blood Pressure","system":"http://loinc.org"}],"text":"Blood Pressure"},"component":[{"code":{"coding":[{"code":"8462-4","display":"Diastolic Blood Pressure","system":"http://loinc.org"}],"text":"Diastolic Blood Pressure"},"valueQuantity":{"code":"mmHg","system":"http://unitsofmeasure.org","unit":"mmHg","value":84.91117302933259}},{"code":{"coding":[{"code":"8480-6","display":"Systolic Blood Pressure","system":"http://loinc.org"}],"text":"Systolic Blood Pressure"},"valueQuantity":{"code":"mmHg","system":"http://unitsofmeasure.org","unit":"mmHg","value":101.48951080716989}}],"context":{"reference":"Encounter/995aa808-fde7-4d91-85e7-cb57fb86470d"},"effectiveDateTime":"2011-04-18T10:17:11-04:00","id":"1200bf67-0c1b-44ad-bbe3-235f5e8b71a0","issued":"2011-04-18T10:17:11.068-04:00","meta":{"lastUpdated":"2019-04-09T09:55:24.653694+00:00","versionId":"MTU1NDgwMzcyNDY1MzY5NDAwMA"},"resourceType":"Observation","status":"final","subject":{"reference":"Patient/000a04a1-7f9d-4325-8f99-0fd76e46bab3"}}},{"resource":{"category":[{"coding":[{"code":"laboratory","display":"laboratory","system":"http://hl7.org/fhir/observation-category"}]}],"code":{"coding":[{"code":"4544-3","display":"Hematocrit [Volume Fraction] of Blood by Automated count","system":"http://loinc.org"}],"text":"Hematocrit [Volume Fraction] of Blood by Automated count"},"context":{"reference":"Encounter/16a1b567-b75d-4c41-90c6-9618483fef90"},"effectiveDateTime":"2015-11-16T09:17:11-05:00","id":"149599fd-b410-4e54-a8cc-7a7b3da2c207","issued":"2015-11-16T09:17:11.068-05:00","meta":{"lastUpdated":"2019-04-09T09:55:26.712695+00:00","versionId":"MTU1NDgwMzcyNjcxMjY5NTAwMA"},"resourceType":"Observation","status":"final","subject":{"reference":"Patient/000a04a1-7f9d-4325-8f99-0fd76e46bab3"},"valueQuantity":{"code":"%","system":"http://unitsofmeasure.org","unit":"%","value":40.927578285812984}}},{"resource":{"category":[{"coding":[{"code":"vital-signs","display":"vital-signs","system":"http://hl7.org/fhir/observation-category"}]}],"code":{"coding":[{"code":"72514-3","display":"Pain severity - 0-10 verbal numeric rating [Score] - Reported","system":"http://loinc.org"}],"text":"Pain severity - 0-10 verbal numeric rating [Score] - Reported"},"context":{"reference":"Encounter/a3d04bc9-aef3-4c30-a0e2-8d765cbe1626"},"effectiveDateTime":"2009-04-06T10:17:11-04:00","id":"14a7f533-54e4-44c6-ba69-ce04ba8acaed","issued":"2009-04-06T10:17:11.068-04:00","meta":{"lastUpdated":"2019-04-09T09:55:23.580753+00:00","versionId":"MTU1NDgwMzcyMzU4MDc1MzAwMA"},"resourceType":"Observation","status":"final","subject":{"reference":"Patient/000a04a1-7f9d-4325-8f99-0fd76e46bab3"},"valueQuantity":{"code":"{score}","system":"http://unitsofmeasure.org","unit":"{score}","value":2.209206683996486}}},{"resource":{"category":[{"coding":[{"code":"vital-signs","display":"vital-signs","system":"http://hl7.org/fhir/observation-category"}]}],"code":{"coding":[{"code":"29463-7","display":"Body Weight","system":"http://loinc.org"}],"text":"Body Weight"},"context":{"reference":"Encounter/16a1b567-b75d-4c41-90c6-9618483fef90"},"effectiveDateTime":"2015-11-16T09:17:11-05:00","id":"1f299227-2ce8-4fe5-b6ef-2b6dc37c4eeb","issued":"2015-11-16T09:17:11.068-05:00","meta":{"lastUpdated":"2019-04-09T09:55:26.679624+00:00","versionId":"MTU1NDgwMzcyNjY3OTYyNDAwMA"},"resourceType":"Observation","status":"final","subject":{"reference":"Patient/000a04a1-7f9d-4325-8f99-0fd76e46bab3"},"valueQuantity":{"code":"kg","system":"http://unitsofmeasure.org","unit":"kg","value":76.12548882572814}}},{"resource":{"category":[{"coding":[{"code":"survey","display":"survey","system":"http://hl7.org/fhir/observation-category"}]}],"code":{"coding":[{"code":"72166-2","display":"Tobacco smoking status NHIS","system":"http://loinc.org"}],"text":"Tobacco smoking status NHIS"},"context":{"reference":"Encounter/16a1b567-b75d-4c41-90c6-9618483fef90"},"effectiveDateTime":"2015-11-16T09:17:11-05:00","id":"1f7ac2da-eafa-4cdf-b4cb-15bf40cc5d7b","issued":"2015-11-16T09:17:11.068-05:00","meta":{"lastUpdated":"2019-04-09T09:55:27.730794+00:00","versionId":"MTU1NDgwMzcyNzczMDc5NDAwMA"},"resourceType":"Observation","status":"final","subject":{"reference":"Patient/000a04a1-7f9d-4325-8f99-0fd76e46bab3"},"valueCodeableConcept":{"coding":[{"code":"266919005","display":"Never smoker","system":"http://snomed.info/sct"}],"text":"Never smoker"}}},{"resource":{"category":[{"coding":[{"code":"vital-signs","display":"vital-signs","system":"http://hl7.org/fhir/observation-category"}]}],"code":{"coding":[{"code":"8302-2","display":"Body Height","system":"http://loinc.org"}],"text":"Body Height"},"context":{"reference":"Encounter/16a1b567-b75d-4c41-90c6-9618483fef90"},"effectiveDateTime":"2015-11-16T09:17:11-05:00","id":"21f89393-10cb-46bb-91c9-febba563fef4","issued":"2015-11-16T09:17:11.068-05:00","meta":{"lastUpdated":"2019-04-09T09:55:26.678267+00:00","versionId":"MTU1NDgwMzcyNjY3ODI2NzAwMA"},"resourceType":"Observation","status":"final","subject":{"reference":"Patient/000a04a1-7f9d-4325-8f99-0fd76e46bab3"},"valueQuantity":{"code":"cm","system":"http://unitsofmeasure.org","unit":"cm","value":174.5277448779013}}},{"resource":{"category":[{"coding":[{"code":"laboratory","display":"laboratory","system":"http://hl7.org/fhir/observation-category"}]}],"code":{"coding":[{"code":"718-7","display":"Hemoglobin [Mass/volume] in Blood","system":"http://loinc.org"}],"text":"Hemoglobin [Mass/volume] in Blood"},"context":{"reference":"Encounter/16a1b567-b75d-4c41-90c6-9618483fef90"},"effectiveDateTime":"2015-11-16T09:17:11-05:00","id":"225a1e71-f8b4-43ec-b1c1-7930fe054335","issued":"2015-11-16T09:17:11.068-05:00","meta":{"lastUpdated":"2019-04-09T09:55:26.678266+00:00","versionId":"MTU1NDgwMzcyNjY3ODI2NjAwMA"},"resourceType":"Observation","status":"final","subject":{"reference":"Patient/000a04a1-7f9d-4325-8f99-0fd76e46bab3"},"valueQuantity":{"code":"g/dL","system":"http://unitsofmeasure.org","unit":"g/dL","value":13.23287488536382}}},{"resource":{"category":[{"coding":[{"code":"laboratory","display":"laboratory","system":"http://hl7.org/fhir/observation-category"}]}],"code":{"coding":[{"code":"789-8","display":"Erythrocytes [#/volume] in Blood by Automated count","system":"http://loinc.org"}],"text":"Erythrocytes [#/volume] in Blood by Automated count"},"context":{"reference":"Encounter/16a1b567-b75d-4c41-90c6-9618483fef90"},"effectiveDateTime":"2015-11-16T09:17:11-05:00","id":"2365a214-6155-4f99-96cb-ee5fef3f393f","issued":"2015-11-16T09:17:11.068-05:00","meta":{"lastUpdated":"2019-04-09T09:55:26.679498+00:00","versionId":"MTU1NDgwMzcyNjY3OTQ5ODAwMA"},"resourceType":"Observation","status":"final","subject":{"reference":"Patient/000a04a1-7f9d-4325-8f99-0fd76e46bab3"},"valueQuantity":{"code":"10*6/uL","system":"http://unitsofmeasure.org","unit":"10*6/uL","value":4.593905386833233}}},{"resource":{"category":[{"coding":[{"code":"vital-signs","display":"vital-signs","system":"http://hl7.org/fhir/observation-category"}]}],"code":{"coding":[{"code":"55284-4","display":"Blood Pressure","system":"http://loinc.org"}],"text":"Blood Pressure"},"component":[{"code":{"coding":[{"code":"8462-4","display":"Diastolic Blood Pressure","system":"http://loinc.org"}],"text":"Diastolic Blood Pressure"},"valueQuantity":{"code":"mmHg","system":"http://unitsofmeasure.org","unit":"mmHg","value":119.90209316736895}},{"code":{"coding":[{"code":"8480-6","display":"Systolic Blood Pressure","system":"http://loinc.org"}],"text":"Systolic Blood Pressure"},"valueQuantity":{"code":"mmHg","system":"http://unitsofmeasure.org","unit":"mmHg","value":153.5414061206342}}],"context":{"reference":"Encounter/a0ffd1f1-6ed2-4210-b578-4e4a10f8d679"},"effectiveDateTime":"2018-11-19T09:17:11-05:00","id":"274a2759-b4f0-46af-9289-0ff151ce7c63","issued":"2018-11-19T09:17:11.068-05:00","meta":{"lastUpdated":"2019-04-09T09:55:27.736967+00:00","versionId":"MTU1NDgwMzcyNzczNjk2NzAwMA"},"resourceType":"Observation","status":"final","subject":{"reference":"Patient/000a04a1-7f9d-4325-8f99-0fd76e46bab3"}}},{"resource":{"category":[{"coding":[{"code":"survey","display":"survey","system":"http://hl7.org/fhir/observation-category"}]}],"code":{"coding":[{"code":"72166-2","display":"Tobacco smoking status NHIS","system":"http://loinc.org"}],"text":"Tobacco smoking status NHIS"},"context":{"reference":"Encounter/3b2f10a2-bdf3-43bf-bf69-1de47244aaf1"},"effectiveDateTime":"2010-04-12T10:17:11-04:00","id":"29b0555a-969b-4d31-8cd5-14c6be1f9d29","issued":"2010-04-12T10:17:11.068-04:00","meta":{"lastUpdated":"2019-04-09T09:55:24.641111+00:00","versionId":"MTU1NDgwMzcyNDY0MTExMTAwMA"},"resourceType":"Observation","status":"final","subject":{"reference":"Patient/000a04a1-7f9d-4325-8f99-0fd76e46bab3"},"valueCodeableConcept":{"coding":[{"code":"266919005","display":"Never smoker","system":"http://snomed.info/sct"}],"text":"Never smoker"}}},{"resource":{"category":[{"coding":[{"code":"vital-signs","display":"vital-signs","system":"http://hl7.org/fhir/observation-category"}]}],"code":{"coding":[{"code":"72514-3","display":"Pain severity - 0-10 verbal numeric rating [Score] - Reported","system":"http://loinc.org"}],"text":"Pain severity - 0-10 verbal numeric rating [Score] - Reported"},"context":{"reference":"Encounter/ffe08eab-30e2-43f6-880d-926d9ae3e906"},"effectiveDateTime":"2013-04-29T10:17:11-04:00","id":"2e1045e9-10a4-446c-9622-88bc2f102bbe","issued":"2013-04-29T10:17:11.068-04:00","meta":{"lastUpdated":"2019-04-09T09:55:25.652744+00:00","versionId":"MTU1NDgwMzcyNTY1Mjc0NDAwMA"},"resourceType":"Observation","status":"final","subject":{"reference":"Patient/000a04a1-7f9d-4325-8f99-0fd76e46bab3"},"valueQuantity":{"code":"{score}","system":"http://unitsofmeasure.org","unit":"{score}","value":1.5293141291589443}}},{"resource":{"category":[{"coding":[{"code":"survey","display":"survey","system":"http://hl7.org/fhir/observation-category"}]}],"code":{"coding":[{"code":"72166-2","display":"Tobacco smoking status NHIS","system":"http://loinc.org"}],"text":"Tobacco smoking status NHIS"},"context":{"reference":"Encounter/a3d04bc9-aef3-4c30-a0e2-8d765cbe1626"},"effectiveDateTime":"2009-04-06T10:17:11-04:00","id":"2eb46575-b895-40a8-ae6c-ecc3692a2cfe","issued":"2009-04-06T10:17:11.068-04:00","meta":{"lastUpdated":"2019-04-09T09:55:23.601679+00:00","versionId":"MTU1NDgwMzcyMzYwMTY3OTAwMA"},"resourceType":"Observation","status":"final","subject":{"reference":"Patient/000a04a1-7f9d-4325-8f99-0fd76e46bab3"},"valueCodeableConcept":{"coding":[{"code":"266919005","display":"Never smoker","system":"http://snomed.info/sct"}],"text":"Never smoker"}}},{"resource":{"category":[{"coding":[{"code":"vital-signs","display":"vital-signs","system":"http://hl7.org/fhir/observation-category"}]}],"code":{"coding":[{"code":"8331-1","display":"Oral temperature","system":"http://loinc.org"}],"text":"Oral temperature"},"context":{"reference":"Encounter/7271ed38-a0b2-4a22-b65e-cd38fa825576"},"effectiveDateTime":"2011-10-15T10:17:11-04:00","id":"347a4b4b-df85-4bf8-804b-9174de353edd","issued":"2011-10-15T10:17:11.068-04:00","meta":{"lastUpdated":"2019-04-09T09:55:24.653687+00:00","versionId":"MTU1NDgwMzcyNDY1MzY4NzAwMA"},"resourceType":"Observation","status":"final","subject":{"reference":"Patient/000a04a1-7f9d-4325-8f99-0fd76e46bab3"},"valueQuantity":{"code":"Cel","system":"http://unitsofmeasure.org","unit":"Cel","value":37.49273244674492}}},{"resource":{"category":[{"coding":[{"code":"laboratory","display":"laboratory","system":"http://hl7.org/fhir/observation-category"}]}],"code":{"coding":[{"code":"33914-3","display":"Estimated Glomerular Filtration Rate","system":"http://loinc.org"}],"text":"Estimated Glomerular Filtration Rate"},"context":{"reference":"Encounter/16a1b567-b75d-4c41-90c6-9618483fef90"},"effectiveDateTime":"2015-11-16T09:17:11-05:00","id":"34a19665-2818-4e8c-8cf4-ba0de8664adf","issued":"2015-11-16T09:17:11.068-05:00","meta":{"lastUpdated":"2019-04-09T09:55:27.747630+00:00","versionId":"MTU1NDgwMzcyNzc0NzYzMDAwMA"},"resourceType":"Observation","status":"final","subject":{"reference":"Patient/000a04a1-7f9d-4325-8f99-0fd76e46bab3"},"valueQuantity":{"code":"mL/min/{1.73_m2}","system":"http://unitsofmeasure.org","unit":"mL/min/{1.73_m2}","value":125.1409019544841}}},{"resource":{"category":[{"coding":[{"code":"laboratory","display":"laboratory","system":"http://hl7.org/fhir/observation-category"}]}],"code":{"coding":[{"code":"777-3","display":"Platelets [#/volume] in Blood by Automated count","system":"http://loinc.org"}],"text":"Platelets [#/volume] in Blood by Automated count"},"context":{"reference":"Encounter/3b2f10a2-bdf3-43bf-bf69-1de47244aaf1"},"effectiveDateTime":"2010-04-12T10:17:11-04:00","id":"373fef54-960c-43d4-8b4d-1d6a87361b6c","issued":"2010-04-12T10:17:11.068-04:00","meta":{"lastUpdated":"2019-04-09T09:55:24.648798+00:00","versionId":"MTU1NDgwMzcyNDY0ODc5ODAwMA"},"resourceType":"Observation","status":"final","subject":{"reference":"Patient/000a04a1-7f9d-4325-8f99-0fd76e46bab3"},"valueQuantity":{"code":"10*3/uL","system":"http://unitsofmeasure.org","unit":"10*3/uL","value":412.10817952703326}}},{"resource":{"category":[{"coding":[{"code":"laboratory","display":"laboratory","system":"http://hl7.org/fhir/observation-category"}]}],"code":{"coding":[{"code":"21000-5","display":"Erythrocyte distribution width [Entitic volume] by Automated count","system":"http://loinc.org"}],"text":"Erythrocyte distribution width [Entitic volume] by Automated count"},"context":{"reference":"Encounter/3b2f10a2-bdf3-43bf-bf69-1de47244aaf1"},"effectiveDateTime":"2010-04-12T10:17:11-04:00","id":"376836f6-41bb-4975-9bb2-746180b41fe0","issued":"2010-04-12T10:17:11.068-04:00","meta":{"lastUpdated":"2019-04-09T09:55:24.655480+00:00","versionId":"MTU1NDgwMzcyNDY1NTQ4MDAwMA"},"resourceType":"Observation","status":"final","subject":{"reference":"Patient/000a04a1-7f9d-4325-8f99-0fd76e46bab3"},"valueQuantity":{"code":"fL","system":"http://unitsofmeasure.org","unit":"fL","value":44.26909179046018}}},{"resource":{"category":[{"coding":[{"code":"vital-signs","display":"vital-signs","system":"http://hl7.org/fhir/observation-category"}]}],"code":{"coding":[{"code":"8302-2","display":"Body Height","system":"http://loinc.org"}],"text":"Body Height"},"context":{"reference":"Encounter/ffe08eab-30e2-43f6-880d-926d9ae3e906"},"effectiveDateTime":"2013-04-29T10:17:11-04:00","id":"3a88158b-00f4-4e7f-9b62-9180305def13","issued":"2013-04-29T10:17:11.068-04:00","meta":{"lastUpdated":"2019-04-09T09:55:25.657914+00:00","versionId":"MTU1NDgwMzcyNTY1NzkxNDAwMA"},"resourceType":"Observation","status":"final","subject":{"reference":"Patient/000a04a1-7f9d-4325-8f99-0fd76e46bab3"},"valueQuantity":{"code":"cm","system":"http://unitsofmeasure.org","unit":"cm","value":174.33050803644664}}},{"resource":{"category":[{"coding":[{"code":"vital-signs","display":"vital-signs","system":"http://hl7.org/fhir/observation-category"}]}],"code":{"coding":[{"code":"72514-3","display":"Pain severity - 0-10 verbal numeric rating [Score] - Reported","system":"http://loinc.org"}],"text":"Pain severity - 0-10 verbal numeric rating [Score] - Reported"},"context":{"reference":"Encounter/8a3dee06-c791-4a66-a4ff-4b17522e75e8"},"effectiveDateTime":"2014-03-17T10:17:11-04:00","id":"3fe6ca2c-6233-4ff7-81c4-a85e3cda098c","issued":"2014-03-17T10:17:11.068-04:00","meta":{"lastUpdated":"2019-04-09T09:55:25.669748+00:00","versionId":"MTU1NDgwMzcyNTY2OTc0ODAwMA"},"resourceType":"Observation","status":"final","subject":{"reference":"Patient/000a04a1-7f9d-4325-8f99-0fd76e46bab3"},"valueQuantity":{"code":"{score}","system":"http://unitsofmeasure.org","unit":"{score}","value":3.3874482921932345}}},{"resource":{"category":[{"coding":[{"code":"laboratory","display":"laboratory","system":"http://hl7.org/fhir/observation-category"}]}],"code":{"coding":[{"code":"785-6","display":"MCH [Entitic mass] by Automated count","system":"http://loinc.org"}],"text":"MCH [Entitic mass] by Automated count"},"context":{"reference":"Encounter/3b2f10a2-bdf3-43bf-bf69-1de47244aaf1"},"effectiveDateTime":"2010-04-12T10:17:11-04:00","id":"403ed920-b64c-4603-9549-ce2dbc4d3907","issued":"2010-04-12T10:17:11.068-04:00","meta":{"lastUpdated":"2019-04-09T09:55:23.591149+00:00","versionId":"MTU1NDgwMzcyMzU5MTE0OTAwMA"},"resourceType":"Observation","status":"final","subject":{"reference":"Patient/000a04a1-7f9d-4325-8f99-0fd76e46bab3"},"valueQuantity":{"code":"pg","system":"http://unitsofmeasure.org","unit":"pg","value":28.707984614687888}}},{"resource":{"category":[{"coding":[{"code":"laboratory","display":"laboratory","system":"http://hl7.org/fhir/observation-category"}]}],"code":{"coding":[{"code":"4544-3","display":"Hematocrit [Volume Fraction] of Blood by Automated count","system":"http://loinc.org"}],"text":"Hematocrit [Volume Fraction] of Blood by Automated count"},"context":{"reference":"Encounter/3b2f10a2-bdf3-43bf-bf69-1de47244aaf1"},"effectiveDateTime":"2010-04-12T10:17:11-04:00","id":"4968346e-704b-407e-beea-be41624e894c","issued":"2010-04-12T10:17:11.068-04:00","meta":{"lastUpdated":"2019-04-09T09:55:23.579221+00:00","versionId":"MTU1NDgwMzcyMzU3OTIyMTAwMA"},"resourceType":"Observation","status":"final","subject":{"reference":"Patient/000a04a1-7f9d-4325-8f99-0fd76e46bab3"},"valueQuantity":{"code":"%","system":"http://unitsofmeasure.org","unit":"%","value":35.75285835434143}}},{"resource":{"category":[{"coding":[{"code":"laboratory","display":"laboratory","system":"http://hl7.org/fhir/observation-category"}]}],"code":{"coding":[{"code":"32623-1","display":"Platelet mean volume [Entitic volume] in Blood by Automated count","system":"http://loinc.org"}],"text":"Platelet mean volume [Entitic volume] in Blood by Automated count"},"context":{"reference":"Encounter/3b2f10a2-bdf3-43bf-bf69-1de47244aaf1"},"effectiveDateTime":"2010-04-12T10:17:11-04:00","id":"4bb66c37-68a4-4c47-9f55-b81908051b50","issued":"2010-04-12T10:17:11.068-04:00","meta":{"lastUpdated":"2019-04-09T09:55:24.655479+00:00","versionId":"MTU1NDgwMzcyNDY1NTQ3OTAwMA"},"resourceType":"Observation","status":"final","subject":{"reference":"Patient/000a04a1-7f9d-4325-8f99-0fd76e46bab3"},"valueQuantity":{"code":"fL","system":"http://unitsofmeasure.org","unit":"fL","value":11.458371647375722}}},{"resource":{"category":[{"coding":[{"code":"vital-signs","display":"vital-signs","system":"http://hl7.org/fhir/observation-category"}]}],"code":{"coding":[{"code":"29463-7","display":"Body Weight","system":"http://loinc.org"}],"text":"Body Weight"},"context":{"reference":"Encounter/8a3dee06-c791-4a66-a4ff-4b17522e75e8"},"effectiveDateTime":"2014-03-17T10:17:11-04:00","id":"4d13ac4f-e79f-4b9d-80d4-a08dad5607d5","issued":"2014-03-17T10:17:11.068-04:00","meta":{"lastUpdated":"2019-04-09T09:55:25.654305+00:00","versionId":"MTU1NDgwMzcyNTY1NDMwNTAwMA"},"resourceType":"Observation","status":"final","subject":{"reference":"Patient/000a04a1-7f9d-4325-8f99-0fd76e46bab3"},"valueQuantity":{"code":"kg","system":"http://unitsofmeasure.org","unit":"kg","value":74.86742603133163}}},{"resource":{"category":[{"coding":[{"code":"vital-signs","display":"vital-signs","system":"http://hl7.org/fhir/observation-category"}]}],"code":{"coding":[{"code":"8302-2","display":"Body Height","system":"http://loinc.org"}],"text":"Body Height"},"context":{"reference":"Encounter/a0ffd1f1-6ed2-4210-b578-4e4a10f8d679"},"effectiveDateTime":"2018-11-19T09:17:11-05:00","id":"4da04b8b-9264-4a96-b6dd-deb3e888bb46","issued":"2018-11-19T09:17:11.068-05:00","meta":{"lastUpdated":"2019-04-09T09:55:27.740846+00:00","versionId":"MTU1NDgwMzcyNzc0MDg0NjAwMA"},"resourceType":"Observation","status":"final","subject":{"reference":"Patient/000a04a1-7f9d-4325-8f99-0fd76e46bab3"},"valueQuantity":{"code":"cm","system":"http://unitsofmeasure.org","unit":"cm","value":174.5277448779013}}},{"resource":{"category":[{"coding":[{"code":"vital-signs","display":"vital-signs","system":"http://hl7.org/fhir/observation-category"}]}],"code":{"coding":[{"code":"55284-4","display":"Blood Pressure","system":"http://loinc.org"}],"text":"Blood Pressure"},"component":[{"code":{"coding":[{"code":"8462-4","display":"Diastolic Blood Pressure","system":"http://loinc.org"}],"text":"Diastolic Blood Pressure"},"valueQuantity":{"code":"mmHg","system":"http://unitsofmeasure.org","unit":"mmHg","value":117.93460375233158}},{"code":{"coding":[{"code":"8480-6","display":"Systolic Blood Pressure","system":"http://loinc.org"}],"text":"Systolic Blood Pressure"},"valueQuantity":{"code":"mmHg","system":"http://unitsofmeasure.org","unit":"mmHg","value":167.84156302913405}}],"context":{"reference":"Encounter/ffe08eab-30e2-43f6-880d-926d9ae3e906"},"effectiveDateTime":"2013-04-29T10:17:11-04:00","id":"4ed410de-5f78-4c07-8cb3-673f524a08df","issued":"2013-04-29T10:17:11.068-04:00","meta":{"lastUpdated":"2019-04-09T09:55:25.668227+00:00","versionId":"MTU1NDgwMzcyNTY2ODIyNzAwMA"},"resourceType":"Observation","status":"final","subject":{"reference":"Patient/000a04a1-7f9d-4325-8f99-0fd76e46bab3"}}},{"resource":{"category":[{"coding":[{"code":"laboratory","display":"laboratory","system":"http://hl7.org/fhir/observation-category"}]}],"code":{"coding":[{"code":"785-6","display":"MCH [Entitic mass] by Automated count","system":"http://loinc.org"}],"text":"MCH [Entitic mass] by Automated count"},"context":{"reference":"Encounter/16a1b567-b75d-4c41-90c6-9618483fef90"},"effectiveDateTime":"2015-11-16T09:17:11-05:00","id":"50a09f86-4c82-4d87-9b3e-e551a762c76b","issued":"2015-11-16T09:17:11.068-05:00","meta":{"lastUpdated":"2019-04-09T09:55:26.684245+00:00","versionId":"MTU1NDgwMzcyNjY4NDI0NTAwMA"},"resourceType":"Observation","status":"final","subject":{"reference":"Patient/000a04a1-7f9d-4325-8f99-0fd76e46bab3"},"valueQuantity":{"code":"pg","system":"http://unitsofmeasure.org","unit":"pg","value":27.945980480621127}}},{"resource":{"category":[{"coding":[{"code":"laboratory","display":"laboratory","system":"http://hl7.org/fhir/observation-category"}]}],"code":{"coding":[{"code":"32623-1","display":"Platelet mean volume [Entitic volume] in Blood by Automated count","system":"http://loinc.org"}],"text":"Platelet mean volume [Entitic volume] in Blood by Automated count"},"context":{"reference":"Encounter/16a1b567-b75d-4c41-90c6-9618483fef90"},"effectiveDateTime":"2015-11-16T09:17:11-05:00","id":"50d28cbf-96c2-4092-9370-3e61d3cdea49","issued":"2015-11-16T09:17:11.068-05:00","meta":{"lastUpdated":"2019-04-09T09:55:27.736200+00:00","versionId":"MTU1NDgwMzcyNzczNjIwMDAwMA"},"resourceType":"Observation","status":"final","subject":{"reference":"Patient/000a04a1-7f9d-4325-8f99-0fd76e46bab3"},"valueQuantity":{"code":"fL","system":"http://unitsofmeasure.org","unit":"fL","value":9.738263995154526}}},{"resource":{"category":[{"coding":[{"code":"laboratory","display":"laboratory","system":"http://hl7.org/fhir/observation-category"}]}],"code":{"coding":[{"code":"21000-5","display":"Erythrocyte distribution width [Entitic volume] by Automated count","system":"http://loinc.org"}],"text":"Erythrocyte distribution width [Entitic volume] by Automated count"},"context":{"reference":"Encounter/16a1b567-b75d-4c41-90c6-9618483fef90"},"effectiveDateTime":"2015-11-16T09:17:11-05:00","id":"51e70a63-de3c-4b22-8028-eb0929951633","issued":"2015-11-16T09:17:11.068-05:00","meta":{"lastUpdated":"2019-04-09T09:55:26.679638+00:00","versionId":"MTU1NDgwMzcyNjY3OTYzODAwMA"},"resourceType":"Observation","status":"final","subject":{"reference":"Patient/000a04a1-7f9d-4325-8f99-0fd76e46bab3"},"valueQuantity":{"code":"fL","system":"http://unitsofmeasure.org","unit":"fL","value":43.82630485397528}}},{"resource":{"category":[{"coding":[{"code":"vital-signs","display":"vital-signs","system":"http://hl7.org/fhir/observation-category"}]}],"code":{"coding":[{"code":"55284-4","display":"Blood Pressure","system":"http://loinc.org"}],"text":"Blood Pressure"},"component":[{"code":{"coding":[{"code":"8462-4","display":"Diastolic Blood Pressure","system":"http://loinc.org"}],"text":"Diastolic Blood Pressure"},"valueQuantity":{"code":"mmHg","system":"http://unitsofmeasure.org","unit":"mmHg","value":87.73024613899327}},{"code":{"coding":[{"code":"8480-6","display":"Systolic Blood Pressure","system":"http://loinc.org"}],"text":"Systolic Blood Pressure"},"valueQuantity":{"code":"mmHg","system":"http://unitsofmeasure.org","unit":"mmHg","value":116.04448062341753}}],"context":{"reference":"Encounter/a3d04bc9-aef3-4c30-a0e2-8d765cbe1626"},"effectiveDateTime":"2009-04-06T10:17:11-04:00","id":"561e12b5-2366-49e9-8db3-b170ec8684fa","issued":"2009-04-06T10:17:11.068-04:00","meta":{"lastUpdated":"2019-04-09T09:55:23.580551+00:00","versionId":"MTU1NDgwMzcyMzU4MDU1MTAwMA"},"resourceType":"Observation","status":"final","subject":{"reference":"Patient/000a04a1-7f9d-4325-8f99-0fd76e46bab3"}}},{"resource":{"category":[{"coding":[{"code":"survey","display":"survey","system":"http://hl7.org/fhir/observation-category"}]}],"code":{"coding":[{"code":"72166-2","display":"Tobacco smoking status NHIS","system":"http://loinc.org"}],"text":"Tobacco smoking status NHIS"},"context":{"reference":"Encounter/a23fed55-17a4-4113-ac18-f463681a8596"},"effectiveDateTime":"2012-04-23T10:17:11-04:00","id":"58e94236-2c2e-4b98-bd17-7356c47d3146","issued":"2012-04-23T10:17:11.068-04:00","meta":{"lastUpdated":"2019-04-09T09:55:24.653170+00:00","versionId":"MTU1NDgwMzcyNDY1MzE3MDAwMA"},"resourceType":"Observation","status":"final","subject":{"reference":"Patient/000a04a1-7f9d-4325-8f99-0fd76e46bab3"},"valueCodeableConcept":{"coding":[{"code":"266919005","display":"Never smoker","system":"http://snomed.info/sct"}],"text":"Never smoker"}}},{"resource":{"category":[{"coding":[{"code":"vital-signs","display":"vital-signs","system":"http://hl7.org/fhir/observation-category"}]}],"code":{"coding":[{"code":"55284-4","display":"Blood Pressure","system":"http://loinc.org"}],"text":"Blood Pressure"},"component":[{"code":{"coding":[{"code":"8462-4","display":"Diastolic Blood Pressure","system":"http://loinc.org"}],"text":"Diastolic Blood Pressure"},"valueQuantity":{"code":"mmHg","system":"http://unitsofmeasure.org","unit":"mmHg","value":101.35084872810509}},{"code":{"coding":[{"code":"8480-6","display":"Systolic Blood Pressure","system":"http://loinc.org"}],"text":"Systolic Blood Pressure"},"valueQuantity":{"code":"mmHg","system":"http://unitsofmeasure.org","unit":"mmHg","value":146.37512458345535}}],"context":{"reference":"Encounter/16a1b567-b75d-4c41-90c6-9618483fef90"},"effectiveDateTime":"2015-11-16T09:17:11-05:00","id":"5c4e6157-f7eb-4498-abe9-1093554c467e","issued":"2015-11-16T09:17:11.068-05:00","meta":{"lastUpdated":"2019-04-09T09:55:26.678263+00:00","versionId":"MTU1NDgwMzcyNjY3ODI2MzAwMA"},"resourceType":"Observation","status":"final","subject":{"reference":"Patient/000a04a1-7f9d-4325-8f99-0fd76e46bab3"}}},{"resource":{"category":[{"coding":[{"code":"vital-signs","display":"vital-signs","system":"http://hl7.org/fhir/observation-category"}]}],"code":{"coding":[{"code":"29463-7","display":"Body Weight","system":"http://loinc.org"}],"text":"Body Weight"},"context":{"reference":"Encounter/995aa808-fde7-4d91-85e7-cb57fb86470d"},"effectiveDateTime":"2011-04-18T10:17:11-04:00","id":"5e56cb37-858f-46e4-92ce-693e610756b8","issued":"2011-04-18T10:17:11.068-04:00","meta":{"lastUpdated":"2019-04-09T09:55:24.653695+00:00","versionId":"MTU1NDgwMzcyNDY1MzY5NTAwMA"},"resourceType":"Observation","status":"final","subject":{"reference":"Patient/000a04a1-7f9d-4325-8f99-0fd76e46bab3"},"valueQuantity":{"code":"kg","system":"http://unitsofmeasure.org","unit":"kg","value":67.52697890748858}}},{"resource":{"category":[{"coding":[{"code":"vital-signs","display":"vital-signs","system":"http://hl7.org/fhir/observation-category"}]}],"code":{"coding":[{"code":"72514-3","display":"Pain severity - 0-10 verbal numeric rating [Score] - Reported","system":"http://loinc.org"}],"text":"Pain severity - 0-10 verbal numeric rating [Score] - Reported"},"context":{"reference":"Encounter/a0ffd1f1-6ed2-4210-b578-4e4a10f8d679"},"effectiveDateTime":"2018-11-19T09:17:11-05:00","id":"631aface-bbf0-4df4-a4b8-9d10f50b9c91","issued":"2018-11-19T09:17:11.068-05:00","meta":{"lastUpdated":"2019-04-09T09:55:27.736545+00:00","versionId":"MTU1NDgwMzcyNzczNjU0NTAwMA"},"resourceType":"Observation","status":"final","subject":{"reference":"Patient/000a04a1-7f9d-4325-8f99-0fd76e46bab3"},"valueQuantity":{"code":"{score}","system":"http://unitsofmeasure.org","unit":"{score}","value":3.0164047626339174}}},{"resource":{"category":[{"coding":[{"code":"laboratory","display":"laboratory","system":"http://hl7.org/fhir/observation-category"}]}],"code":{"coding":[{"code":"786-4","display":"MCHC [Mass/volume] by Automated count","system":"http://loinc.org"}],"text":"MCHC [Mass/volume] by Automated count"},"context":{"reference":"Encounter/3b2f10a2-bdf3-43bf-bf69-1de47244aaf1"},"effectiveDateTime":"2010-04-12T10:17:11-04:00","id":"65441be0-dc51-4c4d-9df9-9d4e269566be","issued":"2010-04-12T10:17:11.068-04:00","meta":{"lastUpdated":"2019-04-09T09:55:24.641110+00:00","versionId":"MTU1NDgwMzcyNDY0MTExMDAwMA"},"resourceType":"Observation","status":"final","subject":{"reference":"Patient/000a04a1-7f9d-4325-8f99-0fd76e46bab3"},"valueQuantity":{"code":"g/dL","system":"http://unitsofmeasure.org","unit":"g/dL","value":35.790998475290486}}},{"resource":{"category":[{"coding":[{"code":"vital-signs","display":"vital-signs","system":"http://hl7.org/fhir/observation-category"}]}],"code":{"coding":[{"code":"29463-7","display":"Body Weight","system":"http://loinc.org"}],"text":"Body Weight"},"context":{"reference":"Encounter/a0ffd1f1-6ed2-4210-b578-4e4a10f8d679"},"effectiveDateTime":"2018-11-19T09:17:11-05:00","id":"6ad03675-7900-4235-9128-4cbcd7c727cb","issued":"2018-11-19T09:17:11.068-05:00","meta":{"lastUpdated":"2019-04-09T09:55:27.741217+00:00","versionId":"MTU1NDgwMzcyNzc0MTIxNzAwMA"},"resourceType":"Observation","status":"final","subject":{"reference":"Patient/000a04a1-7f9d-4325-8f99-0fd76e46bab3"},"valueQuantity":{"code":"kg","system":"http://unitsofmeasure.org","unit":"kg","value":81.3088358560253}}},{"resource":{"category":[{"coding":[{"code":"vital-signs","display":"vital-signs","system":"http://hl7.org/fhir/observation-category"}]}],"code":{"coding":[{"code":"8302-2","display":"Body Height","system":"http://loinc.org"}],"text":"Body Height"},"context":{"reference":"Encounter/a3d04bc9-aef3-4c30-a0e2-8d765cbe1626"},"effectiveDateTime":"2009-04-06T10:17:11-04:00","id":"6d4b7723-a2ac-4dd9-bff4-005e6b3c0f93","issued":"2009-04-06T10:17:11.068-04:00","meta":{"lastUpdated":"2019-04-09T09:55:23.575562+00:00","versionId":"MTU1NDgwMzcyMzU3NTU2MjAwMA"},"resourceType":"Observation","status":"final","subject":{"reference":"Patient/000a04a1-7f9d-4325-8f99-0fd76e46bab3"},"valueQuantity":{"code":"cm","system":"http://unitsofmeasure.org","unit":"cm","value":167.97772138394478}}},{"resource":{"category":[{"coding":[{"code":"survey","display":"survey","system":"http://hl7.org/fhir/observation-category"}]}],"code":{"coding":[{"code":"72166-2","display":"Tobacco smoking status NHIS","system":"http://loinc.org"}],"text":"Tobacco smoking status NHIS"},"context":{"reference":"Encounter/8a3dee06-c791-4a66-a4ff-4b17522e75e8"},"effectiveDateTime":"2014-03-17T10:17:11-04:00","id":"6eb90f00-2a4c-4b40-a86a-b6ffbcd4c799","issued":"2014-03-17T10:17:11.068-04:00","meta":{"lastUpdated":"2019-04-09T09:55:26.684244+00:00","versionId":"MTU1NDgwMzcyNjY4NDI0NDAwMA"},"resourceType":"Observation","status":"final","subject":{"reference":"Patient/000a04a1-7f9d-4325-8f99-0fd76e46bab3"},"valueCodeableConcept":{"coding":[{"code":"266919005","display":"Never smoker","system":"http://snomed.info/sct"}],"text":"Never smoker"}}},{"resource":{"category":[{"coding":[{"code":"laboratory","display":"laboratory","system":"http://hl7.org/fhir/observation-category"}]}],"code":{"coding":[{"code":"33914-3","display":"Estimated Glomerular Filtration Rate","system":"http://loinc.org"}],"text":"Estimated Glomerular Filtration Rate"},"context":{"reference":"Encounter/ffe08eab-30e2-43f6-880d-926d9ae3e906"},"effectiveDateTime":"2013-04-29T10:17:11-04:00","id":"6f23430c-e515-43a3-b94d-e00d32e05e22","issued":"2013-04-29T10:17:11.068-04:00","meta":{"lastUpdated":"2019-04-09T09:55:25.652665+00:00","versionId":"MTU1NDgwMzcyNTY1MjY2NTAwMA"},"resourceType":"Observation","status":"final","subject":{"reference":"Patient/000a04a1-7f9d-4325-8f99-0fd76e46bab3"},"valueQuantity":{"code":"mL/min/{1.73_m2}","system":"http://unitsofmeasure.org","unit":"mL/min/{1.73_m2}","value":132.728999337169}}},{"resource":{"category":[{"coding":[{"code":"vital-signs","display":"vital-signs","system":"http://hl7.org/fhir/observation-category"}]}],"code":{"coding":[{"code":"8302-2","display":"Body Height","system":"http://loinc.org"}],"text":"Body Height"},"context":{"reference":"Encounter/995aa808-fde7-4d91-85e7-cb57fb86470d"},"effectiveDateTime":"2011-04-18T10:17:11-04:00","id":"6f84b932-ee76-41c1-8332-e09acfd44712","issued":"2011-04-18T10:17:11.068-04:00","meta":{"lastUpdated":"2019-04-09T09:55:24.653691+00:00","versionId":"MTU1NDgwMzcyNDY1MzY5MTAwMA"},"resourceType":"Observation","status":"final","subject":{"reference":"Patient/000a04a1-7f9d-4325-8f99-0fd76e46bab3"},"valueQuantity":{"code":"cm","system":"http://unitsofmeasure.org","unit":"cm","value":173.07860613780772}}},{"resource":{"category":[{"coding":[{"code":"vital-signs","display":"vital-signs","system":"http://hl7.org/fhir/observation-category"}]}],"code":{"coding":[{"code":"39156-5","display":"Body Mass Index","system":"http://loinc.org"}],"text":"Body Mass Index"},"context":{"reference":"Encounter/8a3dee06-c791-4a66-a4ff-4b17522e75e8"},"effectiveDateTime":"2014-03-17T10:17:11-04:00","id":"6fe48bf7-5510-49f7-96e3-9faed5b42855","issued":"2014-03-17T10:17:11.068-04:00","meta":{"lastUpdated":"2019-04-09T09:55:25.654157+00:00","versionId":"MTU1NDgwMzcyNTY1NDE1NzAwMA"},"resourceType":"Observation","status":"final","subject":{"reference":"Patient/000a04a1-7f9d-4325-8f99-0fd76e46bab3"},"valueQuantity":{"code":"kg/m2","system":"http://unitsofmeasure.org","unit":"kg/m2","value":24.5789851972893}}},{"resource":{"category":[{"coding":[{"code":"laboratory","display":"laboratory","system":"http://hl7.org/fhir/observation-category"}]}],"code":{"coding":[{"code":"777-3","display":"Platelets [#/volume] in Blood by Automated count","system":"http://loinc.org"}],"text":"Platelets [#/volume] in Blood by Automated count"},"context":{"reference":"Encounter/16a1b567-b75d-4c41-90c6-9618483fef90"},"effectiveDateTime":"2015-11-16T09:17:11-05:00","id":"73c34a47-4120-47fe-8d66-7f2f211b1fb6","issued":"2015-11-16T09:17:11.068-05:00","meta":{"lastUpdated":"2019-04-09T09:55:26.684243+00:00","versionId":"MTU1NDgwMzcyNjY4NDI0MzAwMA"},"resourceType":"Observation","status":"final","subject":{"reference":"Patient/000a04a1-7f9d-4325-8f99-0fd76e46bab3"},"valueQuantity":{"code":"10*3/uL","system":"http://unitsofmeasure.org","unit":"10*3/uL","value":420.04220535505533}}},{"resource":{"category":[{"coding":[{"code":"laboratory","display":"laboratory","system":"http://hl7.org/fhir/observation-category"}]}],"code":{"coding":[{"code":"6690-2","display":"Leukocytes [#/volume] in Blood by Automated count","system":"http://loinc.org"}],"text":"Leukocytes [#/volume] in Blood by Automated count"},"context":{"reference":"Encounter/3b2f10a2-bdf3-43bf-bf69-1de47244aaf1"},"effectiveDateTime":"2010-04-12T10:17:11-04:00","id":"77da2b23-293e-411a-b26c-196e672da5e5","issued":"2010-04-12T10:17:11.068-04:00","meta":{"lastUpdated":"2019-04-09T09:55:23.579220+00:00","versionId":"MTU1NDgwMzcyMzU3OTIyMDAwMA"},"resourceType":"Observation","status":"final","subject":{"reference":"Patient/000a04a1-7f9d-4325-8f99-0fd76e46bab3"},"valueQuantity":{"code":"10*3/uL","system":"http://unitsofmeasure.org","unit":"10*3/uL","value":8.061713636824997}}},{"resource":{"category":[{"coding":[{"code":"vital-signs","display":"vital-signs","system":"http://hl7.org/fhir/observation-category"}]}],"code":{"coding":[{"code":"55284-4","display":"Blood Pressure","system":"http://loinc.org"}],"text":"Blood Pressure"},"component":[{"code":{"coding":[{"code":"8462-4","display":"Diastolic Blood Pressure","system":"http://loinc.org"}],"text":"Diastolic Blood Pressure"},"valueQuantity":{"code":"mmHg","system":"http://unitsofmeasure.org","unit":"mmHg","value":110.30013133789504}},{"code":{"coding":[{"code":"8480-6","display":"Systolic Blood Pressure","system":"http://loinc.org"}],"text":"Systolic Blood Pressure"},"valueQuantity":{"code":"mmHg","system":"http://unitsofmeasure.org","unit":"mmHg","value":164.59418165246646}}],"context":{"reference":"Encounter/8a3dee06-c791-4a66-a4ff-4b17522e75e8"},"effectiveDateTime":"2014-03-17T10:17:11-04:00","id":"787e6fa0-0ef5-4b09-9dbe-0abcc59c3da9","issued":"2014-03-17T10:17:11.068-04:00","meta":{"lastUpdated":"2019-04-09T09:55:26.680081+00:00","versionId":"MTU1NDgwMzcyNjY4MDA4MTAwMA"},"resourceType":"Observation","status":"final","subject":{"reference":"Patient/000a04a1-7f9d-4325-8f99-0fd76e46bab3"}}},{"resource":{"category":[{"coding":[{"code":"laboratory","display":"laboratory","system":"http://hl7.org/fhir/observation-category"}]}],"code":{"coding":[{"code":"33914-3","display":"Estimated Glomerular Filtration Rate","system":"http://loinc.org"}],"text":"Estimated Glomerular Filtration Rate"},"context":{"reference":"Encounter/8a3dee06-c791-4a66-a4ff-4b17522e75e8"},"effectiveDateTime":"2014-03-17T10:17:11-04:00","id":"7c0528ec-a4ae-4b27-a007-c43ac85e1adf","issued":"2014-03-17T10:17:11.068-04:00","meta":{"lastUpdated":"2019-04-09T09:55:26.684248+00:00","versionId":"MTU1NDgwMzcyNjY4NDI0ODAwMA"},"resourceType":"Observation","status":"final","subject":{"reference":"Patient/000a04a1-7f9d-4325-8f99-0fd76e46bab3"},"valueQuantity":{"code":"mL/min/{1.73_m2}","system":"http://unitsofmeasure.org","unit":"mL/min/{1.73_m2}","value":101.44222090804419}}},{"resource":{"category":[{"coding":[{"code":"laboratory","display":"laboratory","system":"http://hl7.org/fhir/observation-category"}]}],"code":{"coding":[{"code":"718-7","display":"Hemoglobin [Mass/volume] in Blood","system":"http://loinc.org"}],"text":"Hemoglobin [Mass/volume] in Blood"},"context":{"reference":"Encounter/3b2f10a2-bdf3-43bf-bf69-1de47244aaf1"},"effectiveDateTime":"2010-04-12T10:17:11-04:00","id":"7ccf7931-7e37-4c07-866d-86aaf7b4e8eb","issued":"2010-04-12T10:17:11.068-04:00","meta":{"lastUpdated":"2019-04-09T09:55:23.575752+00:00","versionId":"MTU1NDgwMzcyMzU3NTc1MjAwMA"},"resourceType":"Observation","status":"final","subject":{"reference":"Patient/000a04a1-7f9d-4325-8f99-0fd76e46bab3"},"valueQuantity":{"code":"g/dL","system":"http://unitsofmeasure.org","unit":"g/dL","value":16.486720748007343}}},{"resource":{"category":[{"coding":[{"code":"vital-signs","display":"vital-signs","system":"http://hl7.org/fhir/observation-category"}]}],"code":{"coding":[{"code":"29463-7","display":"Body Weight","system":"http://loinc.org"}],"text":"Body Weight"},"context":{"reference":"Encounter/ffe08eab-30e2-43f6-880d-926d9ae3e906"},"effectiveDateTime":"2013-04-29T10:17:11-04:00","id":"87d6e653-4d8f-40e4-8ddf-06493eb8d053","issued":"2013-04-29T10:17:11.068-04:00","meta":{"lastUpdated":"2019-04-09T09:55:25.661318+00:00","versionId":"MTU1NDgwMzcyNTY2MTMxODAwMA"},"resourceType":"Observation","status":"final","subject":{"reference":"Patient/000a04a1-7f9d-4325-8f99-0fd76e46bab3"},"valueQuantity":{"code":"kg","system":"http://unitsofmeasure.org","unit":"kg","value":71.99675320294233}}},{"resource":{"category":[{"coding":[{"code":"vital-signs","display":"vital-signs","system":"http://hl7.org/fhir/observation-category"}]}],"code":{"coding":[{"code":"55284-4","display":"Blood Pressure","system":"http://loinc.org"}],"text":"Blood Pressure"},"component":[{"code":{"coding":[{"code":"8462-4","display":"Diastolic Blood Pressure","system":"http://loinc.org"}],"text":"Diastolic Blood Pressure"},"valueQuantity":{"code":"mmHg","system":"http://unitsofmeasure.org","unit":"mmHg","value":81.6559240583269}},{"code":{"coding":[{"code":"8480-6","display":"Systolic Blood Pressure","system":"http://loinc.org"}],"text":"Systolic Blood Pressure"},"valueQuantity":{"code":"mmHg","system":"http://unitsofmeasure.org","unit":"mmHg","value":113.99031570888131}}],"context":{"reference":"Encounter/3b2f10a2-bdf3-43bf-bf69-1de47244aaf1"},"effectiveDateTime":"2010-04-12T10:17:11-04:00","id":"93f06e05-9857-4c86-9f31-960669881ded","issued":"2010-04-12T10:17:11.068-04:00","meta":{"lastUpdated":"2019-04-09T09:55:23.580751+00:00","versionId":"MTU1NDgwMzcyMzU4MDc1MTAwMA"},"resourceType":"Observation","status":"final","subject":{"reference":"Patient/000a04a1-7f9d-4325-8f99-0fd76e46bab3"}}},{"resource":{"category":[{"coding":[{"code":"vital-signs","display":"vital-signs","system":"http://hl7.org/fhir/observation-category"}]}],"code":{"coding":[{"code":"39156-5","display":"Body Mass Index","system":"http://loinc.org"}],"text":"Body Mass Index"},"context":{"reference":"Encounter/a0ffd1f1-6ed2-4210-b578-4e4a10f8d679"},"effectiveDateTime":"2018-11-19T09:17:11-05:00","id":"94ac2bf9-1ed5-48a9-a570-c0d52fa09b32","issued":"2018-11-19T09:17:11.068-05:00","meta":{"lastUpdated":"2019-04-09T09:55:27.741218+00:00","versionId":"MTU1NDgwMzcyNzc0MTIxODAwMA"},"resourceType":"Observation","status":"final","subject":{"reference":"Patient/000a04a1-7f9d-4325-8f99-0fd76e46bab3"},"valueQuantity":{"code":"kg/m2","system":"http://unitsofmeasure.org","unit":"kg/m2","value":26.69370083696632}}},{"resource":{"category":[{"coding":[{"code":"vital-signs","display":"vital-signs","system":"http://hl7.org/fhir/observation-category"}]}],"code":{"coding":[{"code":"72514-3","display":"Pain severity - 0-10 verbal numeric rating [Score] - Reported","system":"http://loinc.org"}],"text":"Pain severity - 0-10 verbal numeric rating [Score] - Reported"},"context":{"reference":"Encounter/a23fed55-17a4-4113-ac18-f463681a8596"},"effectiveDateTime":"2012-04-23T10:17:11-04:00","id":"988633d3-56d1-4c12-b734-338f4f9ce5b8","issued":"2012-04-23T10:17:11.068-04:00","meta":{"lastUpdated":"2019-04-09T09:55:24.641109+00:00","versionId":"MTU1NDgwMzcyNDY0MTEwOTAwMA"},"resourceType":"Observation","status":"final","subject":{"reference":"Patient/000a04a1-7f9d-4325-8f99-0fd76e46bab3"},"valueQuantity":{"code":"{score}","system":"http://unitsofmeasure.org","unit":"{score}","value":0.06887192684058929}}},{"resource":{"category":[{"coding":[{"code":"laboratory","display":"laboratory","system":"http://hl7.org/fhir/observation-category"}]}],"code":{"coding":[{"code":"789-8","display":"Erythrocytes [#/volume] in Blood by Automated count","system":"http://loinc.org"}],"text":"Erythrocytes [#/volume] in Blood by Automated count"},"context":{"reference":"Encounter/3b2f10a2-bdf3-43bf-bf69-1de47244aaf1"},"effectiveDateTime":"2010-04-12T10:17:11-04:00","id":"988e697e-f515-47f0-98f5-3c9cd7367426","issued":"2010-04-12T10:17:11.068-04:00","meta":{"lastUpdated":"2019-04-09T09:55:23.579222+00:00","versionId":"MTU1NDgwMzcyMzU3OTIyMjAwMA"},"resourceType":"Observation","status":"final","subject":{"reference":"Patient/000a04a1-7f9d-4325-8f99-0fd76e46bab3"},"valueQuantity":{"code":"10*6/uL","system":"http://unitsofmeasure.org","unit":"10*6/uL","value":4.275203227276846}}},{"resource":{"category":[{"coding":[{"code":"vital-signs","display":"vital-signs","system":"http://hl7.org/fhir/observation-category"}]}],"code":{"coding":[{"code":"8331-1","display":"Oral temperature","system":"http://loinc.org"}],"text":"Oral temperature"},"context":{"reference":"Encounter/1b822c75-dc44-4f9d-9f71-0e2baa56aa42"},"effectiveDateTime":"2016-07-02T10:17:11-04:00","id":"9bd542f0-5ead-497d-9076-c34da5319ece","issued":"2016-07-02T10:17:11.068-04:00","meta":{"lastUpdated":"2019-04-09T09:55:27.741223+00:00","versionId":"MTU1NDgwMzcyNzc0MTIyMzAwMA"},"resourceType":"Observation","status":"final","subject":{"reference":"Patient/000a04a1-7f9d-4325-8f99-0fd76e46bab3"},"valueQuantity":{"code":"Cel","system":"http://unitsofmeasure.org","unit":"Cel","value":37.61105421872221}}},{"resource":{"category":[{"coding":[{"code":"laboratory","display":"laboratory","system":"http://hl7.org/fhir/observation-category"}]}],"code":{"coding":[{"code":"786-4","display":"MCHC [Mass/volume] by Automated count","system":"http://loinc.org"}],"text":"MCHC [Mass/volume] by Automated count"},"context":{"reference":"Encounter/16a1b567-b75d-4c41-90c6-9618483fef90"},"effectiveDateTime":"2015-11-16T09:17:11-05:00","id":"9cefc1e2-8f64-44fb-a78f-da23863c63f6","issued":"2015-11-16T09:17:11.068-05:00","meta":{"lastUpdated":"2019-04-09T09:55:26.684242+00:00","versionId":"MTU1NDgwMzcyNjY4NDI0MjAwMA"},"resourceType":"Observation","status":"final","subject":{"reference":"Patient/000a04a1-7f9d-4325-8f99-0fd76e46bab3"},"valueQuantity":{"code":"g/dL","system":"http://unitsofmeasure.org","unit":"g/dL","value":34.39945168023584}}},{"resource":{"category":[{"coding":[{"code":"survey","display":"survey","system":"http://hl7.org/fhir/observation-category"}]}],"code":{"coding":[{"code":"72166-2","display":"Tobacco smoking status NHIS","system":"http://loinc.org"}],"text":"Tobacco smoking status NHIS"},"context":{"reference":"Encounter/ffe08eab-30e2-43f6-880d-926d9ae3e906"},"effectiveDateTime":"2013-04-29T10:17:11-04:00","id":"a2ed29d0-6989-4242-90b6-1e524ab995de","issued":"2013-04-29T10:17:11.068-04:00","meta":{"lastUpdated":"2019-04-09T09:55:25.668226+00:00","versionId":"MTU1NDgwMzcyNTY2ODIyNjAwMA"},"resourceType":"Observation","status":"final","subject":{"reference":"Patient/000a04a1-7f9d-4325-8f99-0fd76e46bab3"},"valueCodeableConcept":{"coding":[{"code":"266919005","display":"Never smoker","system":"http://snomed.info/sct"}],"text":"Never smoker"}}},{"resource":{"category":[{"coding":[{"code":"vital-signs","display":"vital-signs","system":"http://hl7.org/fhir/observation-category"}]}],"code":{"coding":[{"code":"72514-3","display":"Pain severity - 0-10 verbal numeric rating [Score] - Reported","system":"http://loinc.org"}],"text":"Pain severity - 0-10 verbal numeric rating [Score] - Reported"},"context":{"reference":"Encounter/3b2f10a2-bdf3-43bf-bf69-1de47244aaf1"},"effectiveDateTime":"2010-04-12T10:17:11-04:00","id":"a638e5af-fcc7-4777-8488-fd4eafdb1605","issued":"2010-04-12T10:17:11.068-04:00","meta":{"lastUpdated":"2019-04-09T09:55:23.580754+00:00","versionId":"MTU1NDgwMzcyMzU4MDc1NDAwMA"},"resourceType":"Observation","status":"final","subject":{"reference":"Patient/000a04a1-7f9d-4325-8f99-0fd76e46bab3"},"valueQuantity":{"code":"{score}","system":"http://unitsofmeasure.org","unit":"{score}","value":2.4066488564019313}}},{"resource":{"category":[{"coding":[{"code":"laboratory","display":"laboratory","system":"http://hl7.org/fhir/observation-category"}]}],"code":{"coding":[{"code":"787-2","display":"MCV [Entitic volume] by Automated count","system":"http://loinc.org"}],"text":"MCV [Entitic volume] by Automated count"},"context":{"reference":"Encounter/3b2f10a2-bdf3-43bf-bf69-1de47244aaf1"},"effectiveDateTime":"2010-04-12T10:17:11-04:00","id":"a8fb4eb5-b779-446f-96cd-4dac97facdb9","issued":"2010-04-12T10:17:11.068-04:00","meta":{"lastUpdated":"2019-04-09T09:55:23.580755+00:00","versionId":"MTU1NDgwMzcyMzU4MDc1NTAwMA"},"resourceType":"Observation","status":"final","subject":{"reference":"Patient/000a04a1-7f9d-4325-8f99-0fd76e46bab3"},"valueQuantity":{"code":"fL","system":"http://unitsofmeasure.org","unit":"fL","value":80.80805441841869}}},{"resource":{"category":[{"coding":[{"code":"laboratory","display":"laboratory","system":"http://hl7.org/fhir/observation-category"}]}],"code":{"coding":[{"code":"32207-3","display":"Platelet distribution width [Entitic volume] in Blood by Automated count","system":"http://loinc.org"}],"text":"Platelet distribution width [Entitic volume] in Blood by Automated count"},"context":{"reference":"Encounter/16a1b567-b75d-4c41-90c6-9618483fef90"},"effectiveDateTime":"2015-11-16T09:17:11-05:00","id":"ae6075c8-1b70-455c-b602-a682094a6899","issued":"2015-11-16T09:17:11.068-05:00","meta":{"lastUpdated":"2019-04-09T09:55:27.746814+00:00","versionId":"MTU1NDgwMzcyNzc0NjgxNDAwMA"},"resourceType":"Observation","status":"final","subject":{"reference":"Patient/000a04a1-7f9d-4325-8f99-0fd76e46bab3"},"valueQuantity":{"code":"fL","system":"http://unitsofmeasure.org","unit":"fL","value":472.22464880012757}}}],"link":[{"url":"https://syntheticmass.mitre.org/v1/fhir/Patient/000a04a1-7f9d-4325-8f99-0fd76e46bab3/$everything?_count=100&page_token=CoIBcHJvamVjdHMvc3ludGhlYS9sb2NhdGlvbnMvdXMtY2VudHJhbDEvZGF0YXNldHMvMjAxOTAyL2ZoaXJTdG9yZXMvc3ludGhldGljLW1hc3MvZmhpci9QYXRpZW50LzAwMGEwNGExLTdmOWQtNDMyNS04Zjk5LTBmZDc2ZTQ2YmFiMw%3D%3D","relation":"previous"},{"url":"https://syntheticmass.mitre.org/v1/fhir/Patient/000a04a1-7f9d-4325-8f99-0fd76e46bab3/$everything?_count=100&page_token=CoIBcHJvamVjdHMvc3ludGhlYS9sb2NhdGlvbnMvdXMtY2VudHJhbDEvZGF0YXNldHMvMjAxOTAyL2ZoaXJTdG9yZXMvc3ludGhldGljLW1hc3MvZmhpci9QYXRpZW50LzAwMGEwNGExLTdmOWQtNDMyNS04Zjk5LTBmZDc2ZTQ2YmFiMyDIAQ%3D%3D","relation":"next"}],"total":228}
