{"resourceType":"Bundle","type":"searchset","entry":[{"resource":{"billablePeriod":{"end":"2012-04-12T03:36:31-04:00","start":"2011-04-12T03:36:31-04:00"},"careTeam":[{"provider":{"identifier":{"system":"http://hl7.org/fhir/sid/us-npi","value":"99999999"}},"role":{"coding":[{"code":"primary","display":"Primary Care Practitioner","system":"http://hl7.org/fhir/claimcareteamrole"}]},"sequence":1}],"claim":{"reference":"Claim/9b3a0f76-f81d-4676-8659-888d3d551ddf"},"contained":[{"id":"1","intent":"order","recipient":[{"identifier":{"system":"http://hl7.org/fhir/sid/us-npi","value":"99999999"}}],"requester":{"agent":{"identifier":{"system":"http://hl7.org/fhir/sid/us-npi","value":"99999999"}}},"resourceType":"ReferralRequest","status":"completed","subject":{"reference":"Patient/00b8a693-5217-45fa-8e09-f60f93fe6ae9"}},{"id":"coverage","resourceType":"Coverage","type":{"text":"medicare"}}],"created":"2011-04-12T03:36:31-04:00","diagnosis":[{"diagnosisReference":{"reference":"Condition/d9205267-4ad9-45f9-87d9-eb6f5d874564"},"extension":[{"url":"https://bluebutton.cms.gov/assets/ig/StructureDefinition-bluebutton-inpatient-clm-poa-ind-sw1-extension","valueCoding":{"code":"Y","display":"Diagnosis present at time of admission","system":"https://bluebutton.cms.gov/assets/ig/CodeSystem-clm-poa-ind-sw1"}}],"sequence":1,"type":[{"coding":[{"code":"principal","system":"https://bluebutton.cms.gov/resources/codesystem/diagnosis-type"}]}]}],"id":"3db7e0e2-1455-4bc8-b3c0-066a08f7ce48","identifier":[{"system":"https://bluebutton.cms.gov/resources/variables/clm_id","value":"9b3a0f76-f81d-4676-8659-888d3d551ddf"},{"system":"https://bluebutton.cms.gov/resources/identifier/claim-group","value":"99999999999"}],"insurance":{"coverage":{"reference":"#coverage"}},"item":[{"category":{"coding":[{"code":"1","display":"Medical care","system":"https://bluebutton.cms.gov/resources/variables/line_cms_type_srvc_cd"}]},"encounter":[{"reference":"Encounter/1028cd41-be5d-4ffb-ae5a-3d990e160df8"}],"locationCodeableConcept":{"coding":[{"code":"23","display":"Emergency Room","system":"https://bluebutton.cms.gov/resources/variables/line_place_of_srvc_cd"}]},"sequence":1,"servicedPeriod":{"end":"2011-04-12T03:36:31-04:00","start":"2011-04-12T02:15:31-04:00"}},{"category":{"coding":[{"code":"1","display":"Medical care","system":"https://bluebutton.cms.gov/resources/variables/line_cms_type_srvc_cd"}]},"diagnosisLinkId":[1],"locationCodeableConcept":{"coding":[{"code":"23","display":"Emergency Room","system":"https://bluebutton.cms.gov/resources/variables/line_place_of_srvc_cd"}]},"sequence":2,"servicedPeriod":{"end":"2011-04-12T03:36:31-04:00","start":"2011-04-12T02:15:31-04:00"}},{"adjudication":[{"amount":{"code":"USD","system":"urn:iso:std:iso:4217","value":2081.44},"category":{"coding":[{"code":"https://bluebutton.cms.gov/resources/variables/line_coinsrnc_amt","display":"Line Beneficiary Coinsurance Amount","system":"https://bluebutton.cms.gov/resources/codesystem/adjudication"}]}},{"amount":{"code":"USD","system":"urn:iso:std:iso:4217","value":8325.76},"category":{"coding":[{"code":"https://bluebutton.cms.gov/resources/variables/line_prvdr_pmt_amt","display":"Line Provider Payment Amount","system":"https://bluebutton.cms.gov/resources/codesystem/adjudication"}]}},{"amount":{"code":"USD","system":"urn:iso:std:iso:4217","value":10407.2},"category":{"coding":[{"code":"https://bluebutton.cms.gov/resources/variables/line_sbmtd_chrg_amt","display":"Line Submitted Charge Amount","system":"https://bluebutton.cms.gov/resources/codesystem/adjudication"}]}},{"amount":{"code":"USD","system":"urn:iso:std:iso:4217","value":10407.2},"category":{"coding":[{"code":"https://bluebutton.cms.gov/resources/variables/line_alowd_chrg_amt","display":"Line Allowed Charge Amount","system":"https://bluebutton.cms.gov/resources/codesystem/adjudication"}]}},{"amount":{"code":"USD","system":"urn:iso:std:iso:4217","value":0},"category":{"coding":[{"code":"https://bluebutton.cms.gov/resources/variables/line_bene_ptb_ddctbl_amt","display":"Line Beneficiary Part B Deductible Amount","system":"https://bluebutton.cms.gov/resources/codesystem/adjudication"}]}},{"category":{"coding":[{"code":"https://bluebutton.cms.gov/resources/variables/line_prcsg_ind_cd","display":"Line Processing Indicator Code","system":"https://bluebutton.cms.gov/resources/codesystem/adjudication"}]},"reason":{"coding":[{"code":"A","display":"Allowed","system":"https://bluebutton.cms.gov/resources/variables/line_prcsg_ind_cd"}]}}],"category":{"coding":[{"code":"1","display":"Medical care","system":"https://bluebutton.cms.gov/resources/variables/line_cms_type_srvc_cd"}]},"locationCodeableConcept":{"coding":[{"code":"23","display":"Emergency Room","system":"https://bluebutton.cms.gov/resources/variables/line_place_of_srvc_cd"}]},"net":{"code":"USD","system":"urn:iso:std:iso:4217","value":10407.2},"sequence":3,"service":{"coding":[{"code":"288086009","system":"http://snomed.info/sct","version":"v1"}]},"servicedPeriod":{"end":"2011-04-12T03:36:31-04:00","start":"2011-04-12T02:15:31-04:00"}}],"meta":{"lastUpdated":"2019-04-09T10:25:21.826584+00:00","versionId":"MTU1NDgwNTUyMTgyNjU4NDAwMA"},"organization":{"identifier":{"value":"7cc4da76-2ffa-4a97-ab57-5f02992c01a9"}},"patient":{"reference":"Patient/00b8a693-5217-45fa-8e09-f60f93fe6ae9"},"payment":{"amount":{"code":"USD","system":"urn:iso:std:iso:4217","value":8325.76}},"provider":{"identifier":{"value":"c2a00d9f-2c85-4235-9ab0-3105522906ef"}},"referral":{"reference":"#1"},"resourceType":"ExplanationOfBenefit","status":"active","totalCost":{"code":"USD","system":"urn:iso:std:iso:4217","value":10532.2},"type":{"coding":[{"code":"71","display":"Local carrier non-durable medical equipment, prosthetics, orthotics, and supplies (DMEPOS) claim","system":"https://bluebutton.cms.gov/resources/variables/nch_clm_type_cd"},{"code":"CARRIER","display":"EOB Type","system":"https://bluebutton.cms.gov/resources/codesystem/eob-type"},{"code":"professional","display":"Claim Type","system":"http://hl7.org/fhir/ex-claimtype"},{"code":"O","display":"Part B physician/supplier claim record (processed by local carriers; can include DMEPOS services)","system":"https://bluebutton.cms.gov/resources/variables/nch_near_line_rec_ident_cd"}]}}},{"resource":{"billablePeriod":{"end":"2017-05-20T02:45:31-04:00","start":"2016-05-20T02:45:31-04:00"},"careTeam":[{"provider":{"identifier":{"system":"http://hl7.org/fhir/sid/us-npi","value":"99999999"}},"role":{"coding":[{"code":"primary","display":"Primary Care Practitioner","system":"http://hl7.org/fhir/claimcareteamrole"}]},"sequence":1}],"claim":{"reference":"Claim/a9890f3e-318b-43dc-9cfd-01ed653bc5cc"},"contained":[{"id":"1","intent":"order","recipient":[{"identifier":{"system":"http://hl7.org/fhir/sid/us-npi","value":"99999999"}}],"requester":{"agent":{"identifier":{"system":"http://hl7.org/fhir/sid/us-npi","value":"99999999"}}},"resourceType":"ReferralRequest","status":"completed","subject":{"reference":"Patient/00b8a693-5217-45fa-8e09-f60f93fe6ae9"}},{"id":"coverage","resourceType":"Coverage","type":{"text":"medicare"}}],"created":"2016-05-20T02:45:31-04:00","id":"47e1a3c6-cd41-40f2-92dc-4bf9bb9ab11f","identifier":[{"system":"https://bluebutton.cms.gov/resources/variables/clm_id","value":"a9890f3e-318b-43dc-9cfd-01ed653bc5cc"},{"system":"https://bluebutton.cms.gov/resources/identifier/claim-group","value":"99999999999"}],"insurance":{"coverage":{"reference":"#coverage"}},"item":[{"category":{"coding":[{"code":"1","display":"Medical care","system":"https://bluebutton.cms.gov/resources/variables/line_cms_type_srvc_cd"}]},"encounter":[{"reference":"Encounter/e5bf14d7-90f8-4165-9225-6588fa8f4ed5"}],"locationCodeableConcept":{"coding":[{"code":"21","display":"Inpatient Hospital","system":"https://bluebutton.cms.gov/resources/variables/line_place_of_srvc_cd"}]},"sequence":1,"servicedPeriod":{"end":"2016-05-20T02:45:31-04:00","start":"2016-05-20T02:15:31-04:00"}},{"adjudication":[{"amount":{"code":"USD","system":"urn:iso:std:iso:4217","value":28.104000000000003},"category":{"coding":[{"code":"https://bluebutton.cms.gov/resources/variables/line_coinsrnc_amt","display":"Line Beneficiary Coinsurance Amount","system":"https://bluebutton.cms.gov/resources/codesystem/adjudication"}]}},{"amount":{"code":"USD","system":"urn:iso:std:iso:4217","value":112.41600000000001},"category":{"coding":[{"code":"https://bluebutton.cms.gov/resources/variables/line_prvdr_pmt_amt","display":"Line Provider Payment Amount","system":"https://bluebutton.cms.gov/resources/codesystem/adjudication"}]}},{"amount":{"code":"USD","system":"urn:iso:std:iso:4217","value":140.52},"category":{"coding":[{"code":"https://bluebutton.cms.gov/resources/variables/line_sbmtd_chrg_amt","display":"Line Submitted Charge Amount","system":"https://bluebutton.cms.gov/resources/codesystem/adjudication"}]}},{"amount":{"code":"USD","system":"urn:iso:std:iso:4217","value":140.52},"category":{"coding":[{"code":"https://bluebutton.cms.gov/resources/variables/line_alowd_chrg_amt","display":"Line Allowed Charge Amount","system":"https://bluebutton.cms.gov/resources/codesystem/adjudication"}]}},{"amount":{"code":"USD","system":"urn:iso:std:iso:4217","value":0},"category":{"coding":[{"code":"https://bluebutton.cms.gov/resources/variables/line_bene_ptb_ddctbl_amt","display":"Line Beneficiary Part B Deductible Amount","system":"https://bluebutton.cms.gov/resources/codesystem/adjudication"}]}},{"category":{"coding":[{"code":"https://bluebutton.cms.gov/resources/variables/line_prcsg_ind_cd","display":"Line Processing Indicator Code","system":"https://bluebutton.cms.gov/resources/codesystem/adjudication"}]},"reason":{"coding":[{"code":"A","display":"Allowed","system":"https://bluebutton.cms.gov/resources/variables/line_prcsg_ind_cd"}]}}],"category":{"coding":[{"code":"1","display":"Medical care","system":"https://bluebutton.cms.gov/resources/variables/line_cms_type_srvc_cd"}]},"informationLinkId":[1],"locationCodeableConcept":{"coding":[{"code":"21","display":"Inpatient Hospital","system":"https://bluebutton.cms.gov/resources/variables/line_place_of_srvc_cd"}]},"net":{"code":"USD","system":"urn:iso:std:iso:4217","value":140.52},"sequence":2,"servicedPeriod":{"end":"2016-05-20T02:45:31-04:00","start":"2016-05-20T02:15:31-04:00"}},{"adjudication":[{"amount":{"code":"USD","system":"urn:iso:std:iso:4217","value":155.62400000000002},"category":{"coding":[{"code":"https://bluebutton.cms.gov/resources/variables/line_coinsrnc_amt","display":"Line Beneficiary Coinsurance Amount","system":"https://bluebutton.cms.gov/resources/codesystem/adjudication"}]}},{"amount":{"code":"USD","system":"urn:iso:std:iso:4217","value":622.4960000000001},"category":{"coding":[{"code":"https://bluebutton.cms.gov/resources/variables/line_prvdr_pmt_amt","display":"Line Provider Payment Amount","system":"https://bluebutton.cms.gov/resources/codesystem/adjudication"}]}},{"amount":{"code":"USD","system":"urn:iso:std:iso:4217","value":778.12},"category":{"coding":[{"code":"https://bluebutton.cms.gov/resources/variables/line_sbmtd_chrg_amt","display":"Line Submitted Charge Amount","system":"https://bluebutton.cms.gov/resources/codesystem/adjudication"}]}},{"amount":{"code":"USD","system":"urn:iso:std:iso:4217","value":778.12},"category":{"coding":[{"code":"https://bluebutton.cms.gov/resources/variables/line_alowd_chrg_amt","display":"Line Allowed Charge Amount","system":"https://bluebutton.cms.gov/resources/codesystem/adjudication"}]}},{"amount":{"code":"USD","system":"urn:iso:std:iso:4217","value":0},"category":{"coding":[{"code":"https://bluebutton.cms.gov/resources/variables/line_bene_ptb_ddctbl_amt","display":"Line Beneficiary Part B Deductible Amount","system":"https://bluebutton.cms.gov/resources/codesystem/adjudication"}]}},{"category":{"coding":[{"code":"https://bluebutton.cms.gov/resources/variables/line_prcsg_ind_cd","display":"Line Processing Indicator Code","system":"https://bluebutton.cms.gov/resources/codesystem/adjudication"}]},"reason":{"coding":[{"code":"A","display":"Allowed","system":"https://bluebutton.cms.gov/resources/variables/line_prcsg_ind_cd"}]}}],"category":{"coding":[{"code":"1","display":"Medical care","system":"https://bluebutton.cms.gov/resources/variables/line_cms_type_srvc_cd"}]},"locationCodeableConcept":{"coding":[{"code":"21","display":"Inpatient Hospital","system":"https://bluebutton.cms.gov/resources/variables/line_place_of_srvc_cd"}]},"net":{"code":"USD","system":"urn:iso:std:iso:4217","value":778.12},"sequence":3,"service":{"coding":[{"code":"428191000124101","system":"http://snomed.info/sct","version":"v1"}]},"servicedPeriod":{"end":"2016-05-20T02:45:31-04:00","start":"2016-05-20T02:15:31-04:00"}}],"meta":{"lastUpdated":"2019-04-09T10:25:23.873549+00:00","versionId":"MTU1NDgwNTUyMzg3MzU0OTAwMA"},"organization":{"identifier":{"value":"7cc4da76-2ffa-4a97-ab57-5f02992c01a9"}},"patient":{"reference":"Patient/00b8a693-5217-45fa-8e09-f60f93fe6ae9"},"payment":{"amount":{"code":"USD","system":"urn:iso:std:iso:4217","value":734.9120000000001}},"provider":{"identifier":{"value":"c2a00d9f-2c85-4235-9ab0-3105522906ef"}},"referral":{"reference":"#1"},"resourceType":"ExplanationOfBenefit","status":"active","totalCost":{"code":"USD","system":"urn:iso:std:iso:4217","value":1043.64},"type":{"coding":[{"code":"71","display":"Local carrier non-durable medical equipment, prosthetics, orthotics, and supplies (DMEPOS) claim","system":"https://bluebutton.cms.gov/resources/variables/nch_clm_type_cd"},{"code":"CARRIER","display":"EOB Type","system":"https://bluebutton.cms.gov/resources/codesystem/eob-type"},{"code":"professional","display":"Claim Type","system":"http://hl7.org/fhir/ex-claimtype"},{"code":"O","display":"Part B physician/supplier claim record (processed by local carriers; can include DMEPOS services)","system":"https://bluebutton.cms.gov/resources/variables/nch_near_line_rec_ident_cd"}]}}},{"resource":{"billablePeriod":{"end":"2017-05-29T02:30:31-04:00","extension":[{"url":"https://bluebutton.cms.gov/assets/ig/StructureDefinition-bluebutton-inpatient-claim-query-cd-extension","valueCoding":{"code":"3","display":"Final Bill","system":"https://bluebutton.cms.gov/assets/ig/ValueSet-claim-query-cd"}}],"start":"2016-05-29T02:30:31-04:00"},"careTeam":[{"provider":{"identifier":{"system":"http://hl7.org/fhir/sid/us-npi","value":"99999999"}},"role":{"coding":[{"code":"primary","display":"Primary Care Practitioner","system":"http://hl7.org/fhir/claimcareteamrole"}]},"sequence":1}],"contained":[{"id":"coverage","resourceType":"Coverage","type":{"text":"medicare"}}],"extension":[{"url":"https://bluebutton.cms.gov/assets/ig/StructureDefinition-bluebutton-inpatient-ime-op-clm-val-amt-extension","valueMoney":{"code":"USD","system":"urn:iso:std:iso:4217","value":400}},{"url":"https://bluebutton.cms.gov/assets/ig/StructureDefinition-bluebutton-inpatient-dsh-op-clm-val-amt-extension","valueMoney":{"code":"USD","system":"urn:iso:std:iso:4217","value":0}},{"url":"https://bluebutton.cms.gov/assets/ig/StructureDefinition-bluebutton-inpatient-clm-pass-thru-per-diem-amt-extension","valueMoney":{"code":"USD","system":"urn:iso:std:iso:4217","value":0}},{"url":"https://bluebutton.cms.gov/assets/ig/StructureDefinition-bluebutton-inpatient-nch-profnl-cmpnt-chrg-amt-extension","valueMoney":{"code":"USD","system":"urn:iso:std:iso:4217","value":0}},{"url":"https://bluebutton.cms.gov/assets/ig/StructureDefinition-bluebutton-inpatient-clm-tot-pps-cptl-amt-extension","valueMoney":{"code":"USD","system":"urn:iso:std:iso:4217","value":0}},{"url":"https://bluebutton.cms.gov/assets/ig/StructureDefinition-bluebutton-inpatient-nch-bene-ip-ddctbl-amt-extension","valueMoney":{"code":"USD","system":"urn:iso:std:iso:4217","value":0}},{"url":"https://bluebutton.cms.gov/assets/ig/StructureDefinition-bluebutton-inpatient-nch-bene-pta-coinsrnc-lblty-amt-extension","valueMoney":{"code":"USD","system":"urn:iso:std:iso:4217","value":0}},{"url":"https://bluebutton.cms.gov/assets/ig/StructureDefinition-bluebutton-inpatient-nch-ip-ncvrd-chrg-amt-extension","valueMoney":{"code":"USD","system":"urn:iso:std:iso:4217","value":0}},{"url":"https://bluebutton.cms.gov/assets/ig/StructureDefinition-bluebutton-inpatient-nch-ip-tot-ddctn-amt-extension","valueMoney":{"code":"USD","system":"urn:iso:std:iso:4217","value":0}},{"url":"https://bluebutton.cms.gov/assets/ig/StructureDefinition-bluebutton-inpatient-clm-pps-cptl-dsprprtnt-shr-amt-extension","valueMoney":{"code":"USD","system":"urn:iso:std:iso:4217","value":0}},{"url":"https://bluebutton.cms.gov/assets/ig/StructureDefinition-bluebutton-inpatient-clm-pps-cptl-excptn-amt-extension","valueMoney":{"code":"USD","system":"urn:iso:std:iso:4217","value":0}},{"url":"https://bluebutton.cms.gov/assets/ig/StructureDefinition-bluebutton-inpatient-clm-pps-cptl-fsp-amt-extension","valueMoney":{"code":"USD","system":"urn:iso:std:iso:4217","value":0}},{"url":"https://bluebutton.cms.gov/assets/ig/StructureDefinition-bluebutton-inpatient-clm-pps-cptl-ime-amt-extension","valueMoney":{"code":"USD","system":"urn:iso:std:iso:4217","value":400}},{"url":"https://bluebutton.cms.gov/assets/ig/StructureDefinition-bluebutton-inpatient-clm-pps-cptl-outlier-amt-extension","valueMoney":{"code":"USD","system":"urn:iso:std:iso:4217","value":0}},{"url":"https://bluebutton.cms.gov/assets/ig/StructureDefinition-bluebutton-inpatient-clm-pps-old-cptl-hld-hrmls-amt-extension","valueMoney":{"code":"USD","system":"urn:iso:std:iso:4217","value":0}},{"url":"https://bluebutton.cms.gov/assets/ig/StructureDefinition-bluebutton-inpatient-nch-drg-outlier-aprvd-pmt-amt-extension","valueMoney":{"code":"USD","system":"urn:iso:std:iso:4217","value":0}},{"url":"https://bluebutton.cms.gov/assets/ig/StructureDefinition-bluebutton-inpatient-nch-bene-blood-ddctbl-lblty-am-extension","valueMoney":{"code":"USD","system":"urn:iso:std:iso:4217","value":0}},{"url":"https://bluebutton.cms.gov/assets/ig/StructureDefinition-bluebutton-inpatient-clm-mdcr-non-pmt-rsn-cd-extension","valueCoding":{"code":"N","display":"All other reasons for non-payment","system":"https://bluebutton.cms.gov/assets/ig/CodeSystem-clm-mdcr-non-pmt-rsn-cd"}},{"url":"https://bluebutton.cms.gov/assets/ig/StructureDefinition-bluebutton-inpatient-prpayamt-extension","valueMoney":{"code":"USD","system":"urn:iso:std:iso:4217","value":0}},{"url":"https://bluebutton.cms.gov/assets/ig/StructureDefinition-bluebutton-inpatient-fi-num-extension","valueIdentifier":{"system":"https://bluebutton.cms.gov/assets/ig/CodeSystem-fi-num","value":"002000"}}],"id":"4b8eadf9-ced9-47d4-8b2f-121c93bc7619","identifier":[{"system":"https://bluebutton.cms.gov/resources/variables/clm_id","value":"c9cf2e0c-b8f5-46c9-ae8a-93fccfb84003"},{"system":"https://bluebutton.cms.gov/resources/identifier/claim-group","value":"99999999999"}],"insurance":{"coverage":{"reference":"#coverage"}},"item":[{"extension":[{"url":"https://bluebutton.cms.gov/assets/ig/StructureDefinition-bluebutton-inpatient-rev-cntr-ndc-qty-extension","valueQuantity":{"value":0}}],"locationCodeableConcept":{"coding":[{"code":"21","display":"Inpatient Hospital","system":"https://bluebutton.cms.gov/resources/variables/line_place_of_srvc_cd"}]},"sequence":1}],"meta":{"lastUpdated":"2019-04-09T10:25:23.871880+00:00","profile":["https://bluebutton.cms.gov/assets/ig/StructureDefinition-bluebutton-inpatient-claim"],"versionId":"MTU1NDgwNTUyMzg3MTg4MDAwMA"},"organization":{"identifier":{"value":"7cc4da76-2ffa-4a97-ab57-5f02992c01a9"}},"patient":{"reference":"Patient/00b8a693-5217-45fa-8e09-f60f93fe6ae9"},"payment":{"amount":{"code":"USD","system":"urn:iso:std:iso:4217","value":0}},"provider":{"identifier":{"value":"c2a00d9f-2c85-4235-9ab0-3105522906ef"}},"resourceType":"ExplanationOfBenefit","status":"active","totalCost":{"code":"USD","system":"urn:iso:std:iso:4217","value":125},"type":{"coding":[{"code":"71","display":"Local carrier non-durable medical equipment, prosthetics, orthotics, and supplies (DMEPOS) claim","system":"https://bluebutton.cms.gov/resources/variables/nch_clm_type_cd"},{"code":"CARRIER","display":"EOB Type","system":"https://bluebutton.cms.gov/resources/codesystem/eob-type"},{"code":"professional","display":"Claim Type","system":"http://hl7.org/fhir/ex-claimtype"},{"code":"O","display":"Part B physician/supplier claim record (processed by local carriers; can include DMEPOS services)","system":"https://bluebutton.cms.gov/resources/variables/nch_near_line_rec_ident_cd"}]}}},{"resource":{"billablePeriod":{"end":"2018-05-26T02:30:31-04:00","start":"2017-05-26T02:30:31-04:00"},"careTeam":[{"provider":{"identifier":{"system":"http://hl7.org/fhir/sid/us-npi","value":"99999999"}},"role":{"coding":[{"code":"primary","display":"Primary Care Practitioner","system":"http://hl7.org/fhir/claimcareteamrole"}]},"sequence":1}],"claim":{"reference":"Claim/4fc0b2e9-7e54-432e-a194-218183723812"},"contained":[{"id":"1","intent":"order","recipient":[{"identifier":{"system":"http://hl7.org/fhir/sid/us-npi","value":"99999999"}}],"requester":{"agent":{"identifier":{"system":"http://hl7.org/fhir/sid/us-npi","value":"99999999"}}},"resourceType":"ReferralRequest","status":"completed","subject":{"reference":"Patient/00b8a693-5217-45fa-8e09-f60f93fe6ae9"}},{"id":"coverage","resourceType":"Coverage","type":{"text":"medicare"}}],"created":"2017-05-26T02:30:31-04:00","id":"5d85a030-ee62-421e-a31e-646f8504133f","identifier":[{"system":"https://bluebutton.cms.gov/resources/variables/clm_id","value":"4fc0b2e9-7e54-432e-a194-218183723812"},{"system":"https://bluebutton.cms.gov/resources/identifier/claim-group","value":"99999999999"}],"insurance":{"coverage":{"reference":"#coverage"}},"item":[{"category":{"coding":[{"code":"1","display":"Medical care","system":"https://bluebutton.cms.gov/resources/variables/line_cms_type_srvc_cd"}]},"encounter":[{"reference":"Encounter/1a7038cd-8888-4b97-b3a2-83b13e6dc1c8"}],"locationCodeableConcept":{"coding":[{"code":"21","display":"Inpatient Hospital","system":"https://bluebutton.cms.gov/resources/variables/line_place_of_srvc_cd"}]},"sequence":1,"servicedPeriod":{"end":"2017-05-26T02:30:31-04:00","start":"2017-05-26T02:15:31-04:00"}},{"adjudication":[{"amount":{"code":"USD","system":"urn:iso:std:iso:4217","value":28.104000000000003},"category":{"coding":[{"code":"https://bluebutton.cms.gov/resources/variables/line_coinsrnc_amt","display":"Line Beneficiary Coinsurance Amount","system":"https://bluebutton.cms.gov/resources/codesystem/adjudication"}]}},{"amount":{"code":"USD","system":"urn:iso:std:iso:4217","value":112.41600000000001},"category":{"coding":[{"code":"https://bluebutton.cms.gov/resources/variables/line_prvdr_pmt_amt","display":"Line Provider Payment Amount","system":"https://bluebutton.cms.gov/resources/codesystem/adjudication"}]}},{"amount":{"code":"USD","system":"urn:iso:std:iso:4217","value":140.52},"category":{"coding":[{"code":"https://bluebutton.cms.gov/resources/variables/line_sbmtd_chrg_amt","display":"Line Submitted Charge Amount","system":"https://bluebutton.cms.gov/resources/codesystem/adjudication"}]}},{"amount":{"code":"USD","system":"urn:iso:std:iso:4217","value":140.52},"category":{"coding":[{"code":"https://bluebutton.cms.gov/resources/variables/line_alowd_chrg_amt","display":"Line Allowed Charge Amount","system":"https://bluebutton.cms.gov/resources/codesystem/adjudication"}]}},{"amount":{"code":"USD","system":"urn:iso:std:iso:4217","value":0},"category":{"coding":[{"code":"https://bluebutton.cms.gov/resources/variables/line_bene_ptb_ddctbl_amt","display":"Line Beneficiary Part B Deductible Amount","system":"https://bluebutton.cms.gov/resources/codesystem/adjudication"}]}},{"category":{"coding":[{"code":"https://bluebutton.cms.gov/resources/variables/line_prcsg_ind_cd","display":"Line Processing Indicator Code","system":"https://bluebutton.cms.gov/resources/codesystem/adjudication"}]},"reason":{"coding":[{"code":"A","display":"Allowed","system":"https://bluebutton.cms.gov/resources/variables/line_prcsg_ind_cd"}]}}],"category":{"coding":[{"code":"1","display":"Medical care","system":"https://bluebutton.cms.gov/resources/variables/line_cms_type_srvc_cd"}]},"informationLinkId":[1],"locationCodeableConcept":{"coding":[{"code":"21","display":"Inpatient Hospital","system":"https://bluebutton.cms.gov/resources/variables/line_place_of_srvc_cd"}]},"net":{"code":"USD","system":"urn:iso:std:iso:4217","value":140.52},"sequence":2,"servicedPeriod":{"end":"2017-05-26T02:30:31-04:00","start":"2017-05-26T02:15:31-04:00"}}],"meta":{"lastUpdated":"2019-04-09T10:25:23.889003+00:00","versionId":"MTU1NDgwNTUyMzg4OTAwMzAwMA"},"organization":{"identifier":{"value":"7cc4da76-2ffa-4a97-ab57-5f02992c01a9"}},"patient":{"reference":"Patient/00b8a693-5217-45fa-8e09-f60f93fe6ae9"},"payment":{"amount":{"code":"USD","system":"urn:iso:std:iso:4217","value":112.41600000000001}},"provider":{"identifier":{"value":"c2a00d9f-2c85-4235-9ab0-3105522906ef"}},"referral":{"reference":"#1"},"resourceType":"ExplanationOfBenefit","status":"active","totalCost":{"code":"USD","system":"urn:iso:std:iso:4217","value":265.52},"type":{"coding":[{"code":"71","display":"Local carrier non-durable medical equipment, prosthetics, orthotics, and supplies (DMEPOS) claim","system":"https://bluebutton.cms.gov/resources/variables/nch_clm_type_cd"},{"code":"CARRIER","display":"EOB Type","system":"https://bluebutton.cms.gov/resources/codesystem/eob-type"},{"code":"professional","display":"Claim Type","system":"http://hl7.org/fhir/ex-claimtype"},{"code":"O","display":"Part B physician/supplier claim record (processed by local carriers; can include DMEPOS services)","system":"https://bluebutton.cms.gov/resources/variables/nch_near_line_rec_ident_cd"}]}}},{"resource":{"billablePeriod":{"end":"2015-06-04T03:14:31-04:00","extension":[{"url":"https://bluebutton.cms.gov/assets/ig/StructureDefinition-bluebutton-inpatient-claim-query-cd-extension","valueCoding":{"code":"3","display":"Final Bill","system":"https://bluebutton.cms.gov/assets/ig/ValueSet-claim-query-cd"}}],"start":"2014-06-04T03:14:31-04:00"},"careTeam":[{"provider":{"identifier":{"system":"http://hl7.org/fhir/sid/us-npi","value":"99999999"}},"role":{"coding":[{"code":"primary","display":"Primary Care Practitioner","system":"http://hl7.org/fhir/claimcareteamrole"}]},"sequence":1}],"contained":[{"id":"coverage","resourceType":"Coverage","type":{"text":"medicare"}}],"extension":[{"url":"https://bluebutton.cms.gov/assets/ig/StructureDefinition-bluebutton-inpatient-ime-op-clm-val-amt-extension","valueMoney":{"code":"USD","system":"urn:iso:std:iso:4217","value":400}},{"url":"https://bluebutton.cms.gov/assets/ig/StructureDefinition-bluebutton-inpatient-dsh-op-clm-val-amt-extension","valueMoney":{"code":"USD","system":"urn:iso:std:iso:4217","value":0}},{"url":"https://bluebutton.cms.gov/assets/ig/StructureDefinition-bluebutton-inpatient-clm-pass-thru-per-diem-amt-extension","valueMoney":{"code":"USD","system":"urn:iso:std:iso:4217","value":0}},{"url":"https://bluebutton.cms.gov/assets/ig/StructureDefinition-bluebutton-inpatient-nch-profnl-cmpnt-chrg-amt-extension","valueMoney":{"code":"USD","system":"urn:iso:std:iso:4217","value":0}},{"url":"https://bluebutton.cms.gov/assets/ig/StructureDefinition-bluebutton-inpatient-clm-tot-pps-cptl-amt-extension","valueMoney":{"code":"USD","system":"urn:iso:std:iso:4217","value":0}},{"url":"https://bluebutton.cms.gov/assets/ig/StructureDefinition-bluebutton-inpatient-nch-bene-ip-ddctbl-amt-extension","valueMoney":{"code":"USD","system":"urn:iso:std:iso:4217","value":0}},{"url":"https://bluebutton.cms.gov/assets/ig/StructureDefinition-bluebutton-inpatient-nch-bene-pta-coinsrnc-lblty-amt-extension","valueMoney":{"code":"USD","system":"urn:iso:std:iso:4217","value":0}},{"url":"https://bluebutton.cms.gov/assets/ig/StructureDefinition-bluebutton-inpatient-nch-ip-ncvrd-chrg-amt-extension","valueMoney":{"code":"USD","system":"urn:iso:std:iso:4217","value":0}},{"url":"https://bluebutton.cms.gov/assets/ig/StructureDefinition-bluebutton-inpatient-nch-ip-tot-ddctn-amt-extension","valueMoney":{"code":"USD","system":"urn:iso:std:iso:4217","value":0}},{"url":"https://bluebutton.cms.gov/assets/ig/StructureDefinition-bluebutton-inpatient-clm-pps-cptl-dsprprtnt-shr-amt-extension","valueMoney":{"code":"USD","system":"urn:iso:std:iso:4217","value":0}},{"url":"https://bluebutton.cms.gov/assets/ig/StructureDefinition-bluebutton-inpatient-clm-pps-cptl-excptn-amt-extension","valueMoney":{"code":"USD","system":"urn:iso:std:iso:4217","value":0}},{"url":"https://bluebutton.cms.gov/assets/ig/StructureDefinition-bluebutton-inpatient-clm-pps-cptl-fsp-amt-extension","valueMoney":{"code":"USD","system":"urn:iso:std:iso:4217","value":0}},{"url":"https://bluebutton.cms.gov/assets/ig/StructureDefinition-bluebutton-inpatient-clm-pps-cptl-ime-amt-extension","valueMoney":{"code":"USD","system":"urn:iso:std:iso:4217","value":400}},{"url":"https://bluebutton.cms.gov/assets/ig/StructureDefinition-bluebutton-inpatient-clm-pps-cptl-outlier-amt-extension","valueMoney":{"code":"USD","system":"urn:iso:std:iso:4217","value":0}},{"url":"https://bluebutton.cms.gov/assets/ig/StructureDefinition-bluebutton-inpatient-clm-pps-old-cptl-hld-hrmls-amt-extension","valueMoney":{"code":"USD","system":"urn:iso:std:iso:4217","value":0}},{"url":"https://bluebutton.cms.gov/assets/ig/StructureDefinition-bluebutton-inpatient-nch-drg-outlier-aprvd-pmt-amt-extension","valueMoney":{"code":"USD","system":"urn:iso:std:iso:4217","value":0}},{"url":"https://bluebutton.cms.gov/assets/ig/StructureDefinition-bluebutton-inpatient-nch-bene-blood-ddctbl-lblty-am-extension","valueMoney":{"code":"USD","system":"urn:iso:std:iso:4217","value":0}},{"url":"https://bluebutton.cms.gov/assets/ig/StructureDefinition-bluebutton-inpatient-clm-mdcr-non-pmt-rsn-cd-extension","valueCoding":{"code":"N","display":"All other reasons for non-payment","system":"https://bluebutton.cms.gov/assets/ig/CodeSystem-clm-mdcr-non-pmt-rsn-cd"}},{"url":"https://bluebutton.cms.gov/assets/ig/StructureDefinition-bluebutton-inpatient-prpayamt-extension","valueMoney":{"code":"USD","system":"urn:iso:std:iso:4217","value":0}},{"url":"https://bluebutton.cms.gov/assets/ig/StructureDefinition-bluebutton-inpatient-fi-num-extension","valueIdentifier":{"system":"https://bluebutton.cms.gov/assets/ig/CodeSystem-fi-num","value":"002000"}}],"id":"6fe8d2f0-66a4-4f1b-b867-385ed29c7d34","identifier":[{"system":"https://bluebutton.cms.gov/resources/variables/clm_id","value":"b9412723-3d43-427c-b683-d48aaaec5ce7"},{"system":"https://bluebutton.cms.gov/resources/identifier/claim-group","value":"99999999999"}],"insurance":{"coverage":{"reference":"#coverage"}},"item":[{"extension":[{"url":"https://bluebutton.cms.gov/assets/ig/StructureDefinition-bluebutton-inpatient-rev-cntr-ndc-qty-extension","valueQuantity":{"value":0}}],"locationCodeableConcept":{"coding":[{"code":"21","display":"Inpatient Hospital","system":"https://bluebutton.cms.gov/resources/variables/line_place_of_srvc_cd"}]},"sequence":1},{"adjudication":[{"amount":{"code":"USD","system":"urn:iso:std:iso:4217","value":2131.7200000000003},"category":{"coding":[{"code":"https://bluebutton.cms.gov/resources/variables/line_coinsrnc_amt","display":"Line Beneficiary Coinsurance Amount","system":"https://bluebutton.cms.gov/resources/codesystem/adjudication"}]}},{"amount":{"code":"USD","system":"urn:iso:std:iso:4217","value":8526.880000000001},"category":{"coding":[{"code":"https://bluebutton.cms.gov/resources/variables/line_prvdr_pmt_amt","display":"Line Provider Payment Amount","system":"https://bluebutton.cms.gov/resources/codesystem/adjudication"}]}},{"amount":{"code":"USD","system":"urn:iso:std:iso:4217","value":10658.6},"category":{"coding":[{"code":"https://bluebutton.cms.gov/resources/variables/line_sbmtd_chrg_amt","display":"Line Submitted Charge Amount","system":"https://bluebutton.cms.gov/resources/codesystem/adjudication"}]}},{"amount":{"code":"USD","system":"urn:iso:std:iso:4217","value":10658.6},"category":{"coding":[{"code":"https://bluebutton.cms.gov/resources/variables/line_alowd_chrg_amt","display":"Line Allowed Charge Amount","system":"https://bluebutton.cms.gov/resources/codesystem/adjudication"}]}},{"amount":{"code":"USD","system":"urn:iso:std:iso:4217","value":0},"category":{"coding":[{"code":"https://bluebutton.cms.gov/resources/variables/line_bene_ptb_ddctbl_amt","display":"Line Beneficiary Part B Deductible Amount","system":"https://bluebutton.cms.gov/resources/codesystem/adjudication"}]}},{"category":{"coding":[{"code":"https://bluebutton.cms.gov/resources/variables/line_prcsg_ind_cd","display":"Line Processing Indicator Code","system":"https://bluebutton.cms.gov/resources/codesystem/adjudication"}]}}],"extension":[{"url":"https://bluebutton.cms.gov/assets/ig/StructureDefinition-bluebutton-inpatient-rev-cntr-ndc-qty-extension","valueQuantity":{"value":0}}],"locationCodeableConcept":{"coding":[{"code":"21","display":"Inpatient Hospital","system":"https://bluebutton.cms.gov/resources/variables/line_place_of_srvc_cd"}]},"sequence":2,"service":{"coding":[{"code":"73761001","system":"http://snomed.info/sct","version":"v1"}]}}],"meta":{"lastUpdated":"2019-04-09T10:25:22.865057+00:00","profile":["https://bluebutton.cms.gov/assets/ig/StructureDefinition-bluebutton-inpatient-claim"],"versionId":"MTU1NDgwNTUyMjg2NTA1NzAwMA"},"organization":{"identifier":{"value":"7cc4da76-2ffa-4a97-ab57-5f02992c01a9"}},"patient":{"reference":"Patient/00b8a693-5217-45fa-8e09-f60f93fe6ae9"},"payment":{"amount":{"code":"USD","system":"urn:iso:std:iso:4217","value":8526.880000000001}},"provider":{"identifier":{"value":"c2a00d9f-2c85-4235-9ab0-3105522906ef"}},"resourceType":"ExplanationOfBenefit","status":"active","totalCost":{"code":"USD","system":"urn:iso:std:iso:4217","value":10783.6},"type":{"coding":[{"code":"71","display":"Local carrier non-durable medical equipment, prosthetics, orthotics, and supplies (DMEPOS) claim","system":"https://bluebutton.cms.gov/resources/variables/nch_clm_type_cd"},{"code":"CARRIER","display":"EOB Type","system":"https://bluebutton.cms.gov/resources/codesystem/eob-type"},{"code":"professional","display":"Claim Type","system":"http://hl7.org/fhir/ex-claimtype"},{"code":"O","display":"Part B physician/supplier claim record (processed by local carriers; can include DMEPOS services)","system":"https://bluebutton.cms.gov/resources/variables/nch_near_line_rec_ident_cd"}]}}},{"resource":{"billablePeriod":{"end":"2019-05-29T02:30:31-04:00","extension":[{"url":"https://bluebutton.cms.gov/assets/ig/StructureDefinition-bluebutton-inpatient-claim-query-cd-extension","valueCoding":{"code":"3","display":"Final Bill","system":"https://bluebutton.cms.gov/assets/ig/ValueSet-claim-query-cd"}}],"start":"2018-05-29T02:30:31-04:00"},"careTeam":[{"provider":{"identifier":{"system":"http://hl7.org/fhir/sid/us-npi","value":"99999999"}},"role":{"coding":[{"code":"primary","display":"Primary Care Practitioner","system":"http://hl7.org/fhir/claimcareteamrole"}]},"sequence":1}],"contained":[{"id":"coverage","resourceType":"Coverage","type":{"text":"medicare"}}],"extension":[{"url":"https://bluebutton.cms.gov/assets/ig/StructureDefinition-bluebutton-inpatient-ime-op-clm-val-amt-extension","valueMoney":{"code":"USD","system":"urn:iso:std:iso:4217","value":400}},{"url":"https://bluebutton.cms.gov/assets/ig/StructureDefinition-bluebutton-inpatient-dsh-op-clm-val-amt-extension","valueMoney":{"code":"USD","system":"urn:iso:std:iso:4217","value":0}},{"url":"https://bluebutton.cms.gov/assets/ig/StructureDefinition-bluebutton-inpatient-clm-pass-thru-per-diem-amt-extension","valueMoney":{"code":"USD","system":"urn:iso:std:iso:4217","value":0}},{"url":"https://bluebutton.cms.gov/assets/ig/StructureDefinition-bluebutton-inpatient-nch-profnl-cmpnt-chrg-amt-extension","valueMoney":{"code":"USD","system":"urn:iso:std:iso:4217","value":0}},{"url":"https://bluebutton.cms.gov/assets/ig/StructureDefinition-bluebutton-inpatient-clm-tot-pps-cptl-amt-extension","valueMoney":{"code":"USD","system":"urn:iso:std:iso:4217","value":0}},{"url":"https://bluebutton.cms.gov/assets/ig/StructureDefinition-bluebutton-inpatient-nch-bene-ip-ddctbl-amt-extension","valueMoney":{"code":"USD","system":"urn:iso:std:iso:4217","value":0}},{"url":"https://bluebutton.cms.gov/assets/ig/StructureDefinition-bluebutton-inpatient-nch-bene-pta-coinsrnc-lblty-amt-extension","valueMoney":{"code":"USD","system":"urn:iso:std:iso:4217","value":0}},{"url":"https://bluebutton.cms.gov/assets/ig/StructureDefinition-bluebutton-inpatient-nch-ip-ncvrd-chrg-amt-extension","valueMoney":{"code":"USD","system":"urn:iso:std:iso:4217","value":0}},{"url":"https://bluebutton.cms.gov/assets/ig/StructureDefinition-bluebutton-inpatient-nch-ip-tot-ddctn-amt-extension","valueMoney":{"code":"USD","system":"urn:iso:std:iso:4217","value":0}},{"url":"https://bluebutton.cms.gov/assets/ig/StructureDefinition-bluebutton-inpatient-clm-pps-cptl-dsprprtnt-shr-amt-extension","valueMoney":{"code":"USD","system":"urn:iso:std:iso:4217","value":0}},{"url":"https://bluebutton.cms.gov/assets/ig/StructureDefinition-bluebutton-inpatient-clm-pps-cptl-excptn-amt-extension","valueMoney":{"code":"USD","system":"urn:iso:std:iso:4217","value":0}},{"url":"https://bluebutton.cms.gov/assets/ig/StructureDefinition-bluebutton-inpatient-clm-pps-cptl-fsp-amt-extension","valueMoney":{"code":"USD","system":"urn:iso:std:iso:4217","value":0}},{"url":"https://bluebutton.cms.gov/assets/ig/StructureDefinition-bluebutton-inpatient-clm-pps-cptl-ime-amt-extension","valueMoney":{"code":"USD","system":"urn:iso:std:iso:4217","value":400}},{"url":"https://bluebutton.cms.gov/assets/ig/StructureDefinition-bluebutton-inpatient-clm-pps-cptl-outlier-amt-extension","valueMoney":{"code":"USD","system":"urn:iso:std:iso:4217","value":0}},{"url":"https://bluebutton.cms.gov/assets/ig/StructureDefinition-bluebutton-inpatient-clm-pps-old-cptl-hld-hrmls-amt-extension","valueMoney":{"code":"USD","system":"urn:iso:std:iso:4217","value":0}},{"url":"https://bluebutton.cms.gov/assets/ig/StructureDefinition-bluebutton-inpatient-nch-drg-outlier-aprvd-pmt-amt-extension","valueMoney":{"code":"USD","system":"urn:iso:std:iso:4217","value":0}},{"url":"https://bluebutton.cms.gov/assets/ig/StructureDefinition-bluebutton-inpatient-nch-bene-blood-ddctbl-lblty-am-extension","valueMoney":{"code":"USD","system":"urn:iso:std:iso:4217","value":0}},{"url":"https://bluebutton.cms.gov/assets/ig/StructureDefinition-bluebutton-inpatient-clm-mdcr-non-pmt-rsn-cd-extension","valueCoding":{"code":"N","display":"All other reasons for non-payment","system":"https://bluebutton.cms.gov/assets/ig/CodeSystem-clm-mdcr-non-pmt-rsn-cd"}},{"url":"https://bluebutton.cms.gov/assets/ig/StructureDefinition-bluebutton-inpatient-prpayamt-extension","valueMoney":{"code":"USD","system":"urn:iso:std:iso:4217","value":0}},{"url":"https://bluebutton.cms.gov/assets/ig/StructureDefinition-bluebutton-inpatient-fi-num-extension","valueIdentifier":{"system":"https://bluebutton.cms.gov/assets/ig/CodeSystem-fi-num","value":"002000"}}],"id":"72bb03b5-d27b-48db-adf5-b8fbfdec6a6b","identifier":[{"system":"https://bluebutton.cms.gov/resources/variables/clm_id","value":"7c61f2d7-3b93-4597-8d30-3bde8c12638a"},{"system":"https://bluebutton.cms.gov/resources/identifier/claim-group","value":"99999999999"}],"insurance":{"coverage":{"reference":"#coverage"}},"item":[{"extension":[{"url":"https://bluebutton.cms.gov/assets/ig/StructureDefinition-bluebutton-inpatient-rev-cntr-ndc-qty-extension","valueQuantity":{"value":0}}],"locationCodeableConcept":{"coding":[{"code":"21","display":"Inpatient Hospital","system":"https://bluebutton.cms.gov/resources/variables/line_place_of_srvc_cd"}]},"sequence":1}],"meta":{"lastUpdated":"2019-04-09T10:25:24.914688+00:00","profile":["https://bluebutton.cms.gov/assets/ig/StructureDefinition-bluebutton-inpatient-claim"],"versionId":"MTU1NDgwNTUyNDkxNDY4ODAwMA"},"organization":{"identifier":{"value":"7cc4da76-2ffa-4a97-ab57-5f02992c01a9"}},"patient":{"reference":"Patient/00b8a693-5217-45fa-8e09-f60f93fe6ae9"},"payment":{"amount":{"code":"USD","system":"urn:iso:std:iso:4217","value":0}},"provider":{"identifier":{"value":"c2a00d9f-2c85-4235-9ab0-3105522906ef"}},"resourceType":"ExplanationOfBenefit","status":"active","totalCost":{"code":"USD","system":"urn:iso:std:iso:4217","value":125},"type":{"coding":[{"code":"71","display":"Local carrier non-durable medical equipment, prosthetics, orthotics, and supplies (DMEPOS) claim","system":"https://bluebutton.cms.gov/resources/variables/nch_clm_type_cd"},{"code":"CARRIER","display":"EOB Type","system":"https://bluebutton.cms.gov/resources/codesystem/eob-type"},{"code":"professional","display":"Claim Type","system":"http://hl7.org/fhir/ex-claimtype"},{"code":"O","display":"Part B physician/supplier claim record (processed by local carriers; can include DMEPOS services)","system":"https://bluebutton.cms.gov/resources/variables/nch_near_line_rec_ident_cd"}]}}},{"resource":{"billablePeriod":{"end":"2019-06-01T02:45:31-04:00","start":"2018-06-01T02:45:31-04:00"},"careTeam":[{"provider":{"identifier":{"system":"http://hl7.org/fhir/sid/us-npi","value":"99999999"}},"role":{"coding":[{"code":"primary","display":"Primary Care Practitioner","system":"http://hl7.org/fhir/claimcareteamrole"}]},"sequence":1}],"claim":{"reference":"Claim/a907e630-8477-428a-836b-dc04dd6b6018"},"contained":[{"id":"1","intent":"order","recipient":[{"identifier":{"system":"http://hl7.org/fhir/sid/us-npi","value":"99999999"}}],"requester":{"agent":{"identifier":{"system":"http://hl7.org/fhir/sid/us-npi","value":"99999999"}}},"resourceType":"ReferralRequest","status":"completed","subject":{"reference":"Patient/00b8a693-5217-45fa-8e09-f60f93fe6ae9"}},{"id":"coverage","resourceType":"Coverage","type":{"text":"medicare"}}],"created":"2018-06-01T02:45:31-04:00","id":"756f99fb-3cda-4aa7-a096-20214bc5daf7","identifier":[{"system":"https://bluebutton.cms.gov/resources/variables/clm_id","value":"a907e630-8477-428a-836b-dc04dd6b6018"},{"system":"https://bluebutton.cms.gov/resources/identifier/claim-group","value":"99999999999"}],"insurance":{"coverage":{"reference":"#coverage"}},"item":[{"category":{"coding":[{"code":"1","display":"Medical care","system":"https://bluebutton.cms.gov/resources/variables/line_cms_type_srvc_cd"}]},"encounter":[{"reference":"Encounter/d69f9b88-691d-4381-9c2a-8f4729505768"}],"locationCodeableConcept":{"coding":[{"code":"21","display":"Inpatient Hospital","system":"https://bluebutton.cms.gov/resources/variables/line_place_of_srvc_cd"}]},"sequence":1,"servicedPeriod":{"end":"2018-06-01T02:45:31-04:00","start":"2018-06-01T02:15:31-04:00"}},{"adjudication":[{"amount":{"code":"USD","system":"urn:iso:std:iso:4217","value":28.104000000000003},"category":{"coding":[{"code":"https://bluebutton.cms.gov/resources/variables/line_coinsrnc_amt","display":"Line Beneficiary Coinsurance Amount","system":"https://bluebutton.cms.gov/resources/codesystem/adjudication"}]}},{"amount":{"code":"USD","system":"urn:iso:std:iso:4217","value":112.41600000000001},"category":{"coding":[{"code":"https://bluebutton.cms.gov/resources/variables/line_prvdr_pmt_amt","display":"Line Provider Payment Amount","system":"https://bluebutton.cms.gov/resources/codesystem/adjudication"}]}},{"amount":{"code":"USD","system":"urn:iso:std:iso:4217","value":140.52},"category":{"coding":[{"code":"https://bluebutton.cms.gov/resources/variables/line_sbmtd_chrg_amt","display":"Line Submitted Charge Amount","system":"https://bluebutton.cms.gov/resources/codesystem/adjudication"}]}},{"amount":{"code":"USD","system":"urn:iso:std:iso:4217","value":140.52},"category":{"coding":[{"code":"https://bluebutton.cms.gov/resources/variables/line_alowd_chrg_amt","display":"Line Allowed Charge Amount","system":"https://bluebutton.cms.gov/resources/codesystem/adjudication"}]}},{"amount":{"code":"USD","system":"urn:iso:std:iso:4217","value":0},"category":{"coding":[{"code":"https://bluebutton.cms.gov/resources/variables/line_bene_ptb_ddctbl_amt","display":"Line Beneficiary Part B Deductible Amount","system":"https://bluebutton.cms.gov/resources/codesystem/adjudication"}]}},{"category":{"coding":[{"code":"https://bluebutton.cms.gov/resources/variables/line_prcsg_ind_cd","display":"Line Processing Indicator Code","system":"https://bluebutton.cms.gov/resources/codesystem/adjudication"}]},"reason":{"coding":[{"code":"A","display":"Allowed","system":"https://bluebutton.cms.gov/resources/variables/line_prcsg_ind_cd"}]}}],"category":{"coding":[{"code":"1","display":"Medical care","system":"https://bluebutton.cms.gov/resources/variables/line_cms_type_srvc_cd"}]},"informationLinkId":[1],"locationCodeableConcept":{"coding":[{"code":"21","display":"Inpatient Hospital","system":"https://bluebutton.cms.gov/resources/variables/line_place_of_srvc_cd"}]},"net":{"code":"USD","system":"urn:iso:std:iso:4217","value":140.52},"sequence":2,"servicedPeriod":{"end":"2018-06-01T02:45:31-04:00","start":"2018-06-01T02:15:31-04:00"}},{"adjudication":[{"amount":{"code":"USD","system":"urn:iso:std:iso:4217","value":145.862},"category":{"coding":[{"code":"https://bluebutton.cms.gov/resources/variables/line_coinsrnc_amt","display":"Line Beneficiary Coinsurance Amount","system":"https://bluebutton.cms.gov/resources/codesystem/adjudication"}]}},{"amount":{"code":"USD","system":"urn:iso:std:iso:4217","value":583.448},"category":{"coding":[{"code":"https://bluebutton.cms.gov/resources/variables/line_prvdr_pmt_amt","display":"Line Provider Payment Amount","system":"https://bluebutton.cms.gov/resources/codesystem/adjudication"}]}},{"amount":{"code":"USD","system":"urn:iso:std:iso:4217","value":729.31},"category":{"coding":[{"code":"https://bluebutton.cms.gov/resources/variables/line_sbmtd_chrg_amt","display":"Line Submitted Charge Amount","system":"https://bluebutton.cms.gov/resources/codesystem/adjudication"}]}},{"amount":{"code":"USD","system":"urn:iso:std:iso:4217","value":729.31},"category":{"coding":[{"code":"https://bluebutton.cms.gov/resources/variables/line_alowd_chrg_amt","display":"Line Allowed Charge Amount","system":"https://bluebutton.cms.gov/resources/codesystem/adjudication"}]}},{"amount":{"code":"USD","system":"urn:iso:std:iso:4217","value":0},"category":{"coding":[{"code":"https://bluebutton.cms.gov/resources/variables/line_bene_ptb_ddctbl_amt","display":"Line Beneficiary Part B Deductible Amount","system":"https://bluebutton.cms.gov/resources/codesystem/adjudication"}]}},{"category":{"coding":[{"code":"https://bluebutton.cms.gov/resources/variables/line_prcsg_ind_cd","display":"Line Processing Indicator Code","system":"https://bluebutton.cms.gov/resources/codesystem/adjudication"}]},"reason":{"coding":[{"code":"A","display":"Allowed","system":"https://bluebutton.cms.gov/resources/variables/line_prcsg_ind_cd"}]}}],"category":{"coding":[{"code":"1","display":"Medical care","system":"https://bluebutton.cms.gov/resources/variables/line_cms_type_srvc_cd"}]},"locationCodeableConcept":{"coding":[{"code":"21","display":"Inpatient Hospital","system":"https://bluebutton.cms.gov/resources/variables/line_place_of_srvc_cd"}]},"net":{"code":"USD","system":"urn:iso:std:iso:4217","value":729.31},"sequence":3,"service":{"coding":[{"code":"428191000124101","system":"http://snomed.info/sct","version":"v1"}]},"servicedPeriod":{"end":"2018-06-01T02:45:31-04:00","start":"2018-06-01T02:15:31-04:00"}}],"meta":{"lastUpdated":"2019-04-09T10:25:24.908984+00:00","versionId":"MTU1NDgwNTUyNDkwODk4NDAwMA"},"organization":{"identifier":{"value":"7cc4da76-2ffa-4a97-ab57-5f02992c01a9"}},"patient":{"reference":"Patient/00b8a693-5217-45fa-8e09-f60f93fe6ae9"},"payment":{"amount":{"code":"USD","system":"urn:iso:std:iso:4217","value":695.864}},"provider":{"identifier":{"value":"c2a00d9f-2c85-4235-9ab0-3105522906ef"}},"referral":{"reference":"#1"},"resourceType":"ExplanationOfBenefit","status":"active","totalCost":{"code":"USD","system":"urn:iso:std:iso:4217","value":994.83},"type":{"coding":[{"code":"71","display":"Local carrier non-durable medical equipment, prosthetics, orthotics, and supplies (DMEPOS) claim","system":"https://bluebutton.cms.gov/resources/variables/nch_clm_type_cd"},{"code":"CARRIER","display":"EOB Type","system":"https://bluebutton.cms.gov/resources/codesystem/eob-type"},{"code":"professional","display":"Claim Type","system":"http://hl7.org/fhir/ex-claimtype"},{"code":"O","display":"Part B physician/supplier claim record (processed by local carriers; can include DMEPOS services)","system":"https://bluebutton.cms.gov/resources/variables/nch_near_line_rec_ident_cd"}]}}},{"resource":{"billablePeriod":{"end":"2006-11-05T01:30:31-05:00","extension":[{"url":"https://bluebutton.cms.gov/assets/ig/StructureDefinition-bluebutton-inpatient-claim-query-cd-extension","valueCoding":{"code":"3","display":"Final Bill","system":"https://bluebutton.cms.gov/assets/ig/ValueSet-claim-query-cd"}}],"start":"2005-11-05T01:30:31-05:00"},"careTeam":[{"provider":{"identifier":{"system":"http://hl7.org/fhir/sid/us-npi","value":"99999999"}},"role":{"coding":[{"code":"primary","display":"Primary Care Practitioner","system":"http://hl7.org/fhir/claimcareteamrole"}]},"sequence":1}],"contained":[{"id":"coverage","resourceType":"Coverage","type":{"text":"private"}}],"diagnosis":[{"diagnosisReference":{"reference":"Condition/26d91fd2-fb32-4c4e-ad7a-f4882f629a3d"},"extension":[{"url":"https://bluebutton.cms.gov/assets/ig/StructureDefinition-bluebutton-inpatient-clm-poa-ind-sw1-extension","valueCoding":{"code":"Y","display":"Diagnosis present at time of admission","system":"https://bluebutton.cms.gov/assets/ig/CodeSystem-clm-poa-ind-sw1"}}],"sequence":1,"type":[{"coding":[{"code":"principal","system":"https://bluebutton.cms.gov/resources/codesystem/diagnosis-type"}]}]}],"extension":[{"url":"https://bluebutton.cms.gov/assets/ig/StructureDefinition-bluebutton-inpatient-ime-op-clm-val-amt-extension","valueMoney":{"code":"USD","system":"urn:iso:std:iso:4217","value":400}},{"url":"https://bluebutton.cms.gov/assets/ig/StructureDefinition-bluebutton-inpatient-dsh-op-clm-val-amt-extension","valueMoney":{"code":"USD","system":"urn:iso:std:iso:4217","value":0}},{"url":"https://bluebutton.cms.gov/assets/ig/StructureDefinition-bluebutton-inpatient-clm-pass-thru-per-diem-amt-extension","valueMoney":{"code":"USD","system":"urn:iso:std:iso:4217","value":0}},{"url":"https://bluebutton.cms.gov/assets/ig/StructureDefinition-bluebutton-inpatient-nch-profnl-cmpnt-chrg-amt-extension","valueMoney":{"code":"USD","system":"urn:iso:std:iso:4217","value":0}},{"url":"https://bluebutton.cms.gov/assets/ig/StructureDefinition-bluebutton-inpatient-clm-tot-pps-cptl-amt-extension","valueMoney":{"code":"USD","system":"urn:iso:std:iso:4217","value":0}},{"url":"https://bluebutton.cms.gov/assets/ig/StructureDefinition-bluebutton-inpatient-nch-bene-ip-ddctbl-amt-extension","valueMoney":{"code":"USD","system":"urn:iso:std:iso:4217","value":0}},{"url":"https://bluebutton.cms.gov/assets/ig/StructureDefinition-bluebutton-inpatient-nch-bene-pta-coinsrnc-lblty-amt-extension","valueMoney":{"code":"USD","system":"urn:iso:std:iso:4217","value":0}},{"url":"https://bluebutton.cms.gov/assets/ig/StructureDefinition-bluebutton-inpatient-nch-ip-ncvrd-chrg-amt-extension","valueMoney":{"code":"USD","system":"urn:iso:std:iso:4217","value":0}},{"url":"https://bluebutton.cms.gov/assets/ig/StructureDefinition-bluebutton-inpatient-nch-ip-tot-ddctn-amt-extension","valueMoney":{"code":"USD","system":"urn:iso:std:iso:4217","value":0}},{"url":"https://bluebutton.cms.gov/assets/ig/StructureDefinition-bluebutton-inpatient-clm-pps-cptl-dsprprtnt-shr-amt-extension","valueMoney":{"code":"USD","system":"urn:iso:std:iso:4217","value":0}},{"url":"https://bluebutton.cms.gov/assets/ig/StructureDefinition-bluebutton-inpatient-clm-pps-cptl-excptn-amt-extension","valueMoney":{"code":"USD","system":"urn:iso:std:iso:4217","value":0}},{"url":"https://bluebutton.cms.gov/assets/ig/StructureDefinition-bluebutton-inpatient-clm-pps-cptl-fsp-amt-extension","valueMoney":{"code":"USD","system":"urn:iso:std:iso:4217","value":0}},{"url":"https://bluebutton.cms.gov/assets/ig/StructureDefinition-bluebutton-inpatient-clm-pps-cptl-ime-amt-extension","valueMoney":{"code":"USD","system":"urn:iso:std:iso:4217","value":400}},{"url":"https://bluebutton.cms.gov/assets/ig/StructureDefinition-bluebutton-inpatient-clm-pps-cptl-outlier-amt-extension","valueMoney":{"code":"USD","system":"urn:iso:std:iso:4217","value":0}},{"url":"https://bluebutton.cms.gov/assets/ig/StructureDefinition-bluebutton-inpatient-clm-pps-old-cptl-hld-hrmls-amt-extension","valueMoney":{"code":"USD","system":"urn:iso:std:iso:4217","value":0}},{"url":"https://bluebutton.cms.gov/assets/ig/StructureDefinition-bluebutton-inpatient-nch-drg-outlier-aprvd-pmt-amt-extension","valueMoney":{"code":"USD","system":"urn:iso:std:iso:4217","value":0}},{"url":"https://bluebutton.cms.gov/assets/ig/StructureDefinition-bluebutton-inpatient-nch-bene-blood-ddctbl-lblty-am-extension","valueMoney":{"code":"USD","system":"urn:iso:std:iso:4217","value":0}},{"url":"https://bluebutton.cms.gov/assets/ig/StructureDefinition-bluebutton-inpatient-clm-mdcr-non-pmt-rsn-cd-extension","valueCoding":{"code":"N","display":"All other reasons for non-payment","system":"https://bluebutton.cms.gov/assets/ig/CodeSystem-clm-mdcr-non-pmt-rsn-cd"}},{"url":"https://bluebutton.cms.gov/assets/ig/StructureDefinition-bluebutton-inpatient-prpayamt-extension","valueMoney":{"code":"USD","system":"urn:iso:std:iso:4217","value":0}},{"url":"https://bluebutton.cms.gov/assets/ig/StructureDefinition-bluebutton-inpatient-fi-num-extension","valueIdentifier":{"system":"https://bluebutton.cms.gov/assets/ig/CodeSystem-fi-num","value":"002000"}}],"id":"7d4e3ead-bdd5-4f4e-b08c-88182851e053","identifier":[{"system":"https://bluebutton.cms.gov/resources/variables/clm_id","value":"356ce460-4826-46ad-8432-360f3225dccb"},{"system":"https://bluebutton.cms.gov/resources/identifier/claim-group","value":"99999999999"}],"insurance":{"coverage":{"reference":"#coverage"}},"item":[{"extension":[{"url":"https://bluebutton.cms.gov/assets/ig/StructureDefinition-bluebutton-inpatient-rev-cntr-ndc-qty-extension","valueQuantity":{"value":0}}],"locationCodeableConcept":{"coding":[{"code":"21","display":"Inpatient Hospital","system":"https://bluebutton.cms.gov/resources/variables/line_place_of_srvc_cd"}]},"sequence":1},{"extension":[{"url":"https://bluebutton.cms.gov/assets/ig/StructureDefinition-bluebutton-inpatient-rev-cntr-ndc-qty-extension","valueQuantity":{"value":0}}],"locationCodeableConcept":{"coding":[{"code":"21","display":"Inpatient Hospital","system":"https://bluebutton.cms.gov/resources/variables/line_place_of_srvc_cd"}]},"sequence":2}],"meta":{"lastUpdated":"2019-04-09T10:25:20.803756+00:00","profile":["https://bluebutton.cms.gov/assets/ig/StructureDefinition-bluebutton-inpatient-claim"],"versionId":"MTU1NDgwNTUyMDgwMzc1NjAwMA"},"organization":{"identifier":{"value":"7cc4da76-2ffa-4a97-ab57-5f02992c01a9"}},"patient":{"reference":"Patient/00b8a693-5217-45fa-8e09-f60f93fe6ae9"},"payment":{"amount":{"code":"USD","system":"urn:iso:std:iso:4217","value":0}},"provider":{"identifier":{"value":"c2a00d9f-2c85-4235-9ab0-3105522906ef"}},"resourceType":"ExplanationOfBenefit","status":"active","totalCost":{"code":"USD","system":"urn:iso:std:iso:4217","value":125},"type":{"coding":[{"code":"71","display":"Local carrier non-durable medical equipment, prosthetics, orthotics, and supplies (DMEPOS) claim","system":"https://bluebutton.cms.gov/resources/variables/nch_clm_type_cd"},{"code":"CARRIER","display":"EOB Type","system":"https://bluebutton.cms.gov/resources/codesystem/eob-type"},{"code":"professional","display":"Claim Type","system":"http://hl7.org/fhir/ex-claimtype"},{"code":"O","display":"Part B physician/supplier claim record (processed by local carriers; can include DMEPOS services)","system":"https://bluebutton.cms.gov/resources/variables/nch_near_line_rec_ident_cd"}]}}},{"resource":{"billablePeriod":{"end":"2012-04-22T02:45:31-04:00","start":"2011-04-22T02:45:31-04:00"},"careTeam":[{"provider":{"identifier":{"system":"http://hl7.org/fhir/sid/us-npi","value":"99999999"}},"role":{"coding":[{"code":"primary","display":"Primary Care Practitioner","system":"http://hl7.org/fhir/claimcareteamrole"}]},"sequence":1}],"claim":{"reference":"Claim/20d64fc2-65e4-4057-9197-db73835a9f07"},"contained":[{"id":"1","intent":"order","recipient":[{"identifier":{"system":"http://hl7.org/fhir/sid/us-npi","value":"99999999"}}],"requester":{"agent":{"identifier":{"system":"http://hl7.org/fhir/sid/us-npi","value":"99999999"}}},"resourceType":"ReferralRequest","status":"completed","subject":{"reference":"Patient/00b8a693-5217-45fa-8e09-f60f93fe6ae9"}},{"id":"coverage","resourceType":"Coverage","type":{"text":"medicare"}}],"created":"2011-04-22T02:45:31-04:00","id":"7d97412f-4150-4af6-9180-1bc1c8d22fba","identifier":[{"system":"https://bluebutton.cms.gov/resources/variables/clm_id","value":"20d64fc2-65e4-4057-9197-db73835a9f07"},{"system":"https://bluebutton.cms.gov/resources/identifier/claim-group","value":"99999999999"}],"insurance":{"coverage":{"reference":"#coverage"}},"item":[{"category":{"coding":[{"code":"1","display":"Medical care","system":"https://bluebutton.cms.gov/resources/variables/line_cms_type_srvc_cd"}]},"encounter":[{"reference":"Encounter/c5f52d6c-5020-4f78-bd64-905afb2c2b7c"}],"locationCodeableConcept":{"coding":[{"code":"21","display":"Inpatient Hospital","system":"https://bluebutton.cms.gov/resources/variables/line_place_of_srvc_cd"}]},"sequence":1,"servicedPeriod":{"end":"2011-04-22T02:45:31-04:00","start":"2011-04-22T02:15:31-04:00"}},{"adjudication":[{"amount":{"code":"USD","system":"urn:iso:std:iso:4217","value":28.104000000000003},"category":{"coding":[{"code":"https://bluebutton.cms.gov/resources/variables/line_coinsrnc_amt","display":"Line Beneficiary Coinsurance Amount","system":"https://bluebutton.cms.gov/resources/codesystem/adjudication"}]}},{"amount":{"code":"USD","system":"urn:iso:std:iso:4217","value":112.41600000000001},"category":{"coding":[{"code":"https://bluebutton.cms.gov/resources/variables/line_prvdr_pmt_amt","display":"Line Provider Payment Amount","system":"https://bluebutton.cms.gov/resources/codesystem/adjudication"}]}},{"amount":{"code":"USD","system":"urn:iso:std:iso:4217","value":140.52},"category":{"coding":[{"code":"https://bluebutton.cms.gov/resources/variables/line_sbmtd_chrg_amt","display":"Line Submitted Charge Amount","system":"https://bluebutton.cms.gov/resources/codesystem/adjudication"}]}},{"amount":{"code":"USD","system":"urn:iso:std:iso:4217","value":140.52},"category":{"coding":[{"code":"https://bluebutton.cms.gov/resources/variables/line_alowd_chrg_amt","display":"Line Allowed Charge Amount","system":"https://bluebutton.cms.gov/resources/codesystem/adjudication"}]}},{"amount":{"code":"USD","system":"urn:iso:std:iso:4217","value":0},"category":{"coding":[{"code":"https://bluebutton.cms.gov/resources/variables/line_bene_ptb_ddctbl_amt","display":"Line Beneficiary Part B Deductible Amount","system":"https://bluebutton.cms.gov/resources/codesystem/adjudication"}]}},{"category":{"coding":[{"code":"https://bluebutton.cms.gov/resources/variables/line_prcsg_ind_cd","display":"Line Processing Indicator Code","system":"https://bluebutton.cms.gov/resources/codesystem/adjudication"}]},"reason":{"coding":[{"code":"A","display":"Allowed","system":"https://bluebutton.cms.gov/resources/variables/line_prcsg_ind_cd"}]}}],"category":{"coding":[{"code":"1","display":"Medical care","system":"https://bluebutton.cms.gov/resources/variables/line_cms_type_srvc_cd"}]},"informationLinkId":[1],"locationCodeableConcept":{"coding":[{"code":"21","display":"Inpatient Hospital","system":"https://bluebutton.cms.gov/resources/variables/line_place_of_srvc_cd"}]},"net":{"code":"USD","system":"urn:iso:std:iso:4217","value":140.52},"sequence":2,"servicedPeriod":{"end":"2011-04-22T02:45:31-04:00","start":"2011-04-22T02:15:31-04:00"}},{"adjudication":[{"amount":{"code":"USD","system":"urn:iso:std:iso:4217","value":133.544},"category":{"coding":[{"code":"https://bluebutton.cms.gov/resources/variables/line_coinsrnc_amt","display":"Line Beneficiary Coinsurance Amount","system":"https://bluebutton.cms.gov/resources/codesystem/adjudication"}]}},{"amount":{"code":"USD","system":"urn:iso:std:iso:4217","value":534.176},"category":{"coding":[{"code":"https://bluebutton.cms.gov/resources/variables/line_prvdr_pmt_amt","display":"Line Provider Payment Amount","system":"https://bluebutton.cms.gov/resources/codesystem/adjudication"}]}},{"amount":{"code":"USD","system":"urn:iso:std:iso:4217","value":667.72},"category":{"coding":[{"code":"https://bluebutton.cms.gov/resources/variables/line_sbmtd_chrg_amt","display":"Line Submitted Charge Amount","system":"https://bluebutton.cms.gov/resources/codesystem/adjudication"}]}},{"amount":{"code":"USD","system":"urn:iso:std:iso:4217","value":667.72},"category":{"coding":[{"code":"https://bluebutton.cms.gov/resources/variables/line_alowd_chrg_amt","display":"Line Allowed Charge Amount","system":"https://bluebutton.cms.gov/resources/codesystem/adjudication"}]}},{"amount":{"code":"USD","system":"urn:iso:std:iso:4217","value":0},"category":{"coding":[{"code":"https://bluebutton.cms.gov/resources/variables/line_bene_ptb_ddctbl_amt","display":"Line Beneficiary Part B Deductible Amount","system":"https://bluebutton.cms.gov/resources/codesystem/adjudication"}]}},{"category":{"coding":[{"code":"https://bluebutton.cms.gov/resources/variables/line_prcsg_ind_cd","display":"Line Processing Indicator Code","system":"https://bluebutton.cms.gov/resources/codesystem/adjudication"}]},"reason":{"coding":[{"code":"A","display":"Allowed","system":"https://bluebutton.cms.gov/resources/variables/line_prcsg_ind_cd"}]}}],"category":{"coding":[{"code":"1","display":"Medical care","system":"https://bluebutton.cms.gov/resources/variables/line_cms_type_srvc_cd"}]},"locationCodeableConcept":{"coding":[{"code":"21","display":"Inpatient Hospital","system":"https://bluebutton.cms.gov/resources/variables/line_place_of_srvc_cd"}]},"net":{"code":"USD","system":"urn:iso:std:iso:4217","value":667.72},"sequence":3,"service":{"coding":[{"code":"428191000124101","system":"http://snomed.info/sct","version":"v1"}]},"servicedPeriod":{"end":"2011-04-22T02:45:31-04:00","start":"2011-04-22T02:15:31-04:00"}}],"meta":{"lastUpdated":"2019-04-09T10:25:21.834470+00:00","versionId":"MTU1NDgwNTUyMTgzNDQ3MDAwMA"},"organization":{"identifier":{"value":"7cc4da76-2ffa-4a97-ab57-5f02992c01a9"}},"patient":{"reference":"Patient/00b8a693-5217-45fa-8e09-f60f93fe6ae9"},"payment":{"amount":{"code":"USD","system":"urn:iso:std:iso:4217","value":646.5920000000001}},"provider":{"identifier":{"value":"c2a00d9f-2c85-4235-9ab0-3105522906ef"}},"referral":{"reference":"#1"},"resourceType":"ExplanationOfBenefit","status":"active","totalCost":{"code":"USD","system":"urn:iso:std:iso:4217","value":933.24},"type":{"coding":[{"code":"71","display":"Local carrier non-durable medical equipment, prosthetics, orthotics, and supplies (DMEPOS) claim","system":"https://bluebutton.cms.gov/resources/variables/nch_clm_type_cd"},{"code":"CARRIER","display":"EOB Type","system":"https://bluebutton.cms.gov/resources/codesystem/eob-type"},{"code":"professional","display":"Claim Type","system":"http://hl7.org/fhir/ex-claimtype"},{"code":"O","display":"Part B physician/supplier claim record (processed by local carriers; can include DMEPOS services)","system":"https://bluebutton.cms.gov/resources/variables/nch_near_line_rec_ident_cd"}]}}},{"resource":{"billablePeriod":{"end":"2016-05-30T02:30:31-04:00","extension":[{"url":"https://bluebutton.cms.gov/assets/ig/StructureDefinition-bluebutton-inpatient-claim-query-cd-extension","valueCoding":{"code":"3","display":"Final Bill","system":"https://bluebutton.cms.gov/assets/ig/ValueSet-claim-query-cd"}}],"start":"2015-05-30T02:30:31-04:00"},"careTeam":[{"provider":{"identifier":{"system":"http://hl7.org/fhir/sid/us-npi","value":"99999999"}},"role":{"coding":[{"code":"primary","display":"Primary Care Practitioner","system":"http://hl7.org/fhir/claimcareteamrole"}]},"sequence":1}],"contained":[{"id":"coverage","resourceType":"Coverage","type":{"text":"medicare"}}],"extension":[{"url":"https://bluebutton.cms.gov/assets/ig/StructureDefinition-bluebutton-inpatient-ime-op-clm-val-amt-extension","valueMoney":{"code":"USD","system":"urn:iso:std:iso:4217","value":400}},{"url":"https://bluebutton.cms.gov/assets/ig/StructureDefinition-bluebutton-inpatient-dsh-op-clm-val-amt-extension","valueMoney":{"code":"USD","system":"urn:iso:std:iso:4217","value":0}},{"url":"https://bluebutton.cms.gov/assets/ig/StructureDefinition-bluebutton-inpatient-clm-pass-thru-per-diem-amt-extension","valueMoney":{"code":"USD","system":"urn:iso:std:iso:4217","value":0}},{"url":"https://bluebutton.cms.gov/assets/ig/StructureDefinition-bluebutton-inpatient-nch-profnl-cmpnt-chrg-amt-extension","valueMoney":{"code":"USD","system":"urn:iso:std:iso:4217","value":0}},{"url":"https://bluebutton.cms.gov/assets/ig/StructureDefinition-bluebutton-inpatient-clm-tot-pps-cptl-amt-extension","valueMoney":{"code":"USD","system":"urn:iso:std:iso:4217","value":0}},{"url":"https://bluebutton.cms.gov/assets/ig/StructureDefinition-bluebutton-inpatient-nch-bene-ip-ddctbl-amt-extension","valueMoney":{"code":"USD","system":"urn:iso:std:iso:4217","value":0}},{"url":"https://bluebutton.cms.gov/assets/ig/StructureDefinition-bluebutton-inpatient-nch-bene-pta-coinsrnc-lblty-amt-extension","valueMoney":{"code":"USD","system":"urn:iso:std:iso:4217","value":0}},{"url":"https://bluebutton.cms.gov/assets/ig/StructureDefinition-bluebutton-inpatient-nch-ip-ncvrd-chrg-amt-extension","valueMoney":{"code":"USD","system":"urn:iso:std:iso:4217","value":0}},{"url":"https://bluebutton.cms.gov/assets/ig/StructureDefinition-bluebutton-inpatient-nch-ip-tot-ddctn-amt-extension","valueMoney":{"code":"USD","system":"urn:iso:std:iso:4217","value":0}},{"url":"https://bluebutton.cms.gov/assets/ig/StructureDefinition-bluebutton-inpatient-clm-pps-cptl-dsprprtnt-shr-amt-extension","valueMoney":{"code":"USD","system":"urn:iso:std:iso:4217","value":0}},{"url":"https://bluebutton.cms.gov/assets/ig/StructureDefinition-bluebutton-inpatient-clm-pps-cptl-excptn-amt-extension","valueMoney":{"code":"USD","system":"urn:iso:std:iso:4217","value":0}},{"url":"https://bluebutton.cms.gov/assets/ig/StructureDefinition-bluebutton-inpatient-clm-pps-cptl-fsp-amt-extension","valueMoney":{"code":"USD","system":"urn:iso:std:iso:4217","value":0}},{"url":"https://bluebutton.cms.gov/assets/ig/StructureDefinition-bluebutton-inpatient-clm-pps-cptl-ime-amt-extension","valueMoney":{"code":"USD","system":"urn:iso:std:iso:4217","value":400}},{"url":"https://bluebutton.cms.gov/assets/ig/StructureDefinition-bluebutton-inpatient-clm-pps-cptl-outlier-amt-extension","valueMoney":{"code":"USD","system":"urn:iso:std:iso:4217","value":0}},{"url":"https://bluebutton.cms.gov/assets/ig/StructureDefinition-bluebutton-inpatient-clm-pps-old-cptl-hld-hrmls-amt-extension","valueMoney":{"code":"USD","system":"urn:iso:std:iso:4217","value":0}},{"url":"https://bluebutton.cms.gov/assets/ig/StructureDefinition-bluebutton-inpatient-nch-drg-outlier-aprvd-pmt-amt-extension","valueMoney":{"code":"USD","system":"urn:iso:std:iso:4217","value":0}},{"url":"https://bluebutton.cms.gov/assets/ig/StructureDefinition-bluebutton-inpatient-nch-bene-blood-ddctbl-lblty-am-extension","valueMoney":{"code":"USD","system":"urn:iso:std:iso:4217","value":0}},{"url":"https://bluebutton.cms.gov/assets/ig/StructureDefinition-bluebutton-inpatient-clm-mdcr-non-pmt-rsn-cd-extension","valueCoding":{"code":"N","display":"All other reasons for non-payment","system":"https://bluebutton.cms.gov/assets/ig/CodeSystem-clm-mdcr-non-pmt-rsn-cd"}},{"url":"https://bluebutton.cms.gov/assets/ig/StructureDefinition-bluebutton-inpatient-prpayamt-extension","valueMoney":{"code":"USD","system":"urn:iso:std:iso:4217","value":0}},{"url":"https://bluebutton.cms.gov/assets/ig/StructureDefinition-bluebutton-inpatient-fi-num-extension","valueIdentifier":{"system":"https://bluebutton.cms.gov/assets/ig/CodeSystem-fi-num","value":"002000"}}],"id":"a1dccddf-42d0-448c-82c0-0a2c17cde73d","identifier":[{"system":"https://bluebutton.cms.gov/resources/variables/clm_id","value":"85320105-b3dd-405e-84a8-476e8a6df17e"},{"system":"https://bluebutton.cms.gov/resources/identifier/claim-group","value":"99999999999"}],"insurance":{"coverage":{"reference":"#coverage"}},"item":[{"extension":[{"url":"https://bluebutton.cms.gov/assets/ig/StructureDefinition-bluebutton-inpatient-rev-cntr-ndc-qty-extension","valueQuantity":{"value":0}}],"locationCodeableConcept":{"coding":[{"code":"21","display":"Inpatient Hospital","system":"https://bluebutton.cms.gov/resources/variables/line_place_of_srvc_cd"}]},"sequence":1}],"meta":{"lastUpdated":"2019-04-09T10:25:23.870974+00:00","profile":["https://bluebutton.cms.gov/assets/ig/StructureDefinition-bluebutton-inpatient-claim"],"versionId":"MTU1NDgwNTUyMzg3MDk3NDAwMA"},"organization":{"identifier":{"value":"7cc4da76-2ffa-4a97-ab57-5f02992c01a9"}},"patient":{"reference":"Patient/00b8a693-5217-45fa-8e09-f60f93fe6ae9"},"payment":{"amount":{"code":"USD","system":"urn:iso:std:iso:4217","value":0}},"provider":{"identifier":{"value":"c2a00d9f-2c85-4235-9ab0-3105522906ef"}},"resourceType":"ExplanationOfBenefit","status":"active","totalCost":{"code":"USD","system":"urn:iso:std:iso:4217","value":125},"type":{"coding":[{"code":"71","display":"Local carrier non-durable medical equipment, prosthetics, orthotics, and supplies (DMEPOS) claim","system":"https://bluebutton.cms.gov/resources/variables/nch_clm_type_cd"},{"code":"CARRIER","display":"EOB Type","system":"https://bluebutton.cms.gov/resources/codesystem/eob-type"},{"code":"professional","display":"Claim Type","system":"http://hl7.org/fhir/ex-claimtype"},{"code":"O","display":"Part B physician/supplier claim record (processed by local carriers; can include DMEPOS services)","system":"https://bluebutton.cms.gov/resources/variables/nch_near_line_rec_ident_cd"}]}}},{"resource":{"billablePeriod":{"end":"1961-11-25T01:30:31-05:00","start":"1960-11-25T01:30:31-05:00"},"careTeam":[{"provider":{"identifier":{"system":"http://hl7.org/fhir/sid/us-npi","value":"99999999"}},"role":{"coding":[{"code":"primary","display":"Primary Care Practitioner","system":"http://hl7.org/fhir/claimcareteamrole"}]},"sequence":1}],"claim":{"reference":"Claim/27e53723-afe6-4484-891e-5f38e6037922"},"contained":[{"id":"1","intent":"order","recipient":[{"identifier":{"system":"http://hl7.org/fhir/sid/us-npi","value":"99999999"}}],"requester":{"agent":{"identifier":{"system":"http://hl7.org/fhir/sid/us-npi","value":"99999999"}}},"resourceType":"ReferralRequest","status":"completed","subject":{"reference":"Patient/00b8a693-5217-45fa-8e09-f60f93fe6ae9"}},{"id":"coverage","resourceType":"Coverage","type":{"text":"private"}}],"created":"1960-11-25T01:30:31-05:00","diagnosis":[{"diagnosisReference":{"reference":"Condition/4cad9232-1733-4958-a433-fa4787c37947"},"extension":[{"url":"https://bluebutton.cms.gov/assets/ig/StructureDefinition-bluebutton-inpatient-clm-poa-ind-sw1-extension","valueCoding":{"code":"Y","display":"Diagnosis present at time of admission","system":"https://bluebutton.cms.gov/assets/ig/CodeSystem-clm-poa-ind-sw1"}}],"sequence":1,"type":[{"coding":[{"code":"principal","system":"https://bluebutton.cms.gov/resources/codesystem/diagnosis-type"}]}]}],"id":"b08dcae1-a38e-4da1-8436-26179478fe0b","identifier":[{"system":"https://bluebutton.cms.gov/resources/variables/clm_id","value":"27e53723-afe6-4484-891e-5f38e6037922"},{"system":"https://bluebutton.cms.gov/resources/identifier/claim-group","value":"99999999999"}],"insurance":{"coverage":{"reference":"#coverage"}},"item":[{"category":{"coding":[{"code":"1","display":"Medical care","system":"https://bluebutton.cms.gov/resources/variables/line_cms_type_srvc_cd"}]},"encounter":[{"reference":"Encounter/d25867b3-f718-4d9f-bc99-a793de8d31f5"}],"locationCodeableConcept":{"coding":[{"code":"21","display":"Inpatient Hospital","system":"https://bluebutton.cms.gov/resources/variables/line_place_of_srvc_cd"}]},"sequence":1,"servicedPeriod":{"end":"1960-11-25T01:30:31-05:00","start":"1960-11-25T01:15:31-05:00"}},{"category":{"coding":[{"code":"1","display":"Medical care","system":"https://bluebutton.cms.gov/resources/variables/line_cms_type_srvc_cd"}]},"diagnosisLinkId":[1],"locationCodeableConcept":{"coding":[{"code":"21","display":"Inpatient Hospital","system":"https://bluebutton.cms.gov/resources/variables/line_place_of_srvc_cd"}]},"sequence":2,"servicedPeriod":{"end":"1960-11-25T01:30:31-05:00","start":"1960-11-25T01:15:31-05:00"}}],"meta":{"lastUpdated":"2019-04-09T10:25:20.795946+00:00","versionId":"MTU1NDgwNTUyMDc5NTk0NjAwMA"},"organization":{"identifier":{"value":"7cc4da76-2ffa-4a97-ab57-5f02992c01a9"}},"patient":{"reference":"Patient/00b8a693-5217-45fa-8e09-f60f93fe6ae9"},"payment":{"amount":{"code":"USD","system":"urn:iso:std:iso:4217","value":0}},"provider":{"identifier":{"value":"c2a00d9f-2c85-4235-9ab0-3105522906ef"}},"referral":{"reference":"#1"},"resourceType":"ExplanationOfBenefit","status":"active","totalCost":{"code":"USD","system":"urn:iso:std:iso:4217","value":125},"type":{"coding":[{"code":"71","display":"Local carrier non-durable medical equipment, prosthetics, orthotics, and supplies (DMEPOS) claim","system":"https://bluebutton.cms.gov/resources/variables/nch_clm_type_cd"},{"code":"CARRIER","display":"EOB Type","system":"https://bluebutton.cms.gov/resources/codesystem/eob-type"},{"code":"professional","display":"Claim Type","system":"http://hl7.org/fhir/ex-claimtype"},{"code":"O","display":"Part B physician/supplier claim record (processed by local carriers; can include DMEPOS services)","system":"https://bluebutton.cms.gov/resources/variables/nch_near_line_rec_ident_cd"}]}}},{"resource":{"billablePeriod":{"end":"2016-05-15T02:45:31-04:00","start":"2015-05-15T02:45:31-04:00"},"careTeam":[{"provider":{"identifier":{"system":"http://hl7.org/fhir/sid/us-npi","value":"99999999"}},"role":{"coding":[{"code":"primary","display":"Primary Care Practitioner","system":"http://hl7.org/fhir/claimcareteamrole"}]},"sequence":1}],"claim":{"reference":"Claim/2796b4d7-42f9-41c9-be52-27f8ee083316"},"contained":[{"id":"1","intent":"order","recipient":[{"identifier":{"system":"http://hl7.org/fhir/sid/us-npi","value":"99999999"}}],"requester":{"agent":{"identifier":{"system":"http://hl7.org/fhir/sid/us-npi","value":"99999999"}}},"resourceType":"ReferralRequest","status":"completed","subject":{"reference":"Patient/00b8a693-5217-45fa-8e09-f60f93fe6ae9"}},{"id":"coverage","resourceType":"Coverage","type":{"text":"medicare"}}],"created":"2015-05-15T02:45:31-04:00","id":"ba7ea74f-1733-4853-9fd2-65e0fb59bf0e","identifier":[{"system":"https://bluebutton.cms.gov/resources/variables/clm_id","value":"2796b4d7-42f9-41c9-be52-27f8ee083316"},{"system":"https://bluebutton.cms.gov/resources/identifier/claim-group","value":"99999999999"}],"insurance":{"coverage":{"reference":"#coverage"}},"item":[{"category":{"coding":[{"code":"1","display":"Medical care","system":"https://bluebutton.cms.gov/resources/variables/line_cms_type_srvc_cd"}]},"encounter":[{"reference":"Encounter/03df893a-29c9-4a97-ba0c-bc8bb083e9d4"}],"locationCodeableConcept":{"coding":[{"code":"21","display":"Inpatient Hospital","system":"https://bluebutton.cms.gov/resources/variables/line_place_of_srvc_cd"}]},"sequence":1,"servicedPeriod":{"end":"2015-05-15T02:45:31-04:00","start":"2015-05-15T02:15:31-04:00"}},{"adjudication":[{"amount":{"code":"USD","system":"urn:iso:std:iso:4217","value":28.104000000000003},"category":{"coding":[{"code":"https://bluebutton.cms.gov/resources/variables/line_coinsrnc_amt","display":"Line Beneficiary Coinsurance Amount","system":"https://bluebutton.cms.gov/resources/codesystem/adjudication"}]}},{"amount":{"code":"USD","system":"urn:iso:std:iso:4217","value":112.41600000000001},"category":{"coding":[{"code":"https://bluebutton.cms.gov/resources/variables/line_prvdr_pmt_amt","display":"Line Provider Payment Amount","system":"https://bluebutton.cms.gov/resources/codesystem/adjudication"}]}},{"amount":{"code":"USD","system":"urn:iso:std:iso:4217","value":140.52},"category":{"coding":[{"code":"https://bluebutton.cms.gov/resources/variables/line_sbmtd_chrg_amt","display":"Line Submitted Charge Amount","system":"https://bluebutton.cms.gov/resources/codesystem/adjudication"}]}},{"amount":{"code":"USD","system":"urn:iso:std:iso:4217","value":140.52},"category":{"coding":[{"code":"https://bluebutton.cms.gov/resources/variables/line_alowd_chrg_amt","display":"Line Allowed Charge Amount","system":"https://bluebutton.cms.gov/resources/codesystem/adjudication"}]}},{"amount":{"code":"USD","system":"urn:iso:std:iso:4217","value":0},"category":{"coding":[{"code":"https://bluebutton.cms.gov/resources/variables/line_bene_ptb_ddctbl_amt","display":"Line Beneficiary Part B Deductible Amount","system":"https://bluebutton.cms.gov/resources/codesystem/adjudication"}]}},{"category":{"coding":[{"code":"https://bluebutton.cms.gov/resources/variables/line_prcsg_ind_cd","display":"Line Processing Indicator Code","system":"https://bluebutton.cms.gov/resources/codesystem/adjudication"}]},"reason":{"coding":[{"code":"A","display":"Allowed","system":"https://bluebutton.cms.gov/resources/variables/line_prcsg_ind_cd"}]}}],"category":{"coding":[{"code":"1","display":"Medical care","system":"https://bluebutton.cms.gov/resources/variables/line_cms_type_srvc_cd"}]},"informationLinkId":[1],"locationCodeableConcept":{"coding":[{"code":"21","display":"Inpatient Hospital","system":"https://bluebutton.cms.gov/resources/variables/line_place_of_srvc_cd"}]},"net":{"code":"USD","system":"urn:iso:std:iso:4217","value":140.52},"sequence":2,"servicedPeriod":{"end":"2015-05-15T02:45:31-04:00","start":"2015-05-15T02:15:31-04:00"}},{"adjudication":[{"amount":{"code":"USD","system":"urn:iso:std:iso:4217","value":136.006},"category":{"coding":[{"code":"https://bluebutton.cms.gov/resources/variables/line_coinsrnc_amt","display":"Line Beneficiary Coinsurance Amount","system":"https://bluebutton.cms.gov/resources/codesystem/adjudication"}]}},{"amount":{"code":"USD","system":"urn:iso:std:iso:4217","value":544.024},"category":{"coding":[{"code":"https://bluebutton.cms.gov/resources/variables/line_prvdr_pmt_amt","display":"Line Provider Payment Amount","system":"https://bluebutton.cms.gov/resources/codesystem/adjudication"}]}},{"amount":{"code":"USD","system":"urn:iso:std:iso:4217","value":680.03},"category":{"coding":[{"code":"https://bluebutton.cms.gov/resources/variables/line_sbmtd_chrg_amt","display":"Line Submitted Charge Amount","system":"https://bluebutton.cms.gov/resources/codesystem/adjudication"}]}},{"amount":{"code":"USD","system":"urn:iso:std:iso:4217","value":680.03},"category":{"coding":[{"code":"https://bluebutton.cms.gov/resources/variables/line_alowd_chrg_amt","display":"Line Allowed Charge Amount","system":"https://bluebutton.cms.gov/resources/codesystem/adjudication"}]}},{"amount":{"code":"USD","system":"urn:iso:std:iso:4217","value":0},"category":{"coding":[{"code":"https://bluebutton.cms.gov/resources/variables/line_bene_ptb_ddctbl_amt","display":"Line Beneficiary Part B Deductible Amount","system":"https://bluebutton.cms.gov/resources/codesystem/adjudication"}]}},{"category":{"coding":[{"code":"https://bluebutton.cms.gov/resources/variables/line_prcsg_ind_cd","display":"Line Processing Indicator Code","system":"https://bluebutton.cms.gov/resources/codesystem/adjudication"}]},"reason":{"coding":[{"code":"A","display":"Allowed","system":"https://bluebutton.cms.gov/resources/variables/line_prcsg_ind_cd"}]}}],"category":{"coding":[{"code":"1","display":"Medical care","system":"https://bluebutton.cms.gov/resources/variables/line_cms_type_srvc_cd"}]},"locationCodeableConcept":{"coding":[{"code":"21","display":"Inpatient Hospital","system":"https://bluebutton.cms.gov/resources/variables/line_place_of_srvc_cd"}]},"net":{"code":"USD","system":"urn:iso:std:iso:4217","value":680.03},"sequence":3,"service":{"coding":[{"code":"428191000124101","system":"http://snomed.info/sct","version":"v1"}]},"servicedPeriod":{"end":"2015-05-15T02:45:31-04:00","start":"2015-05-15T02:15:31-04:00"}}],"meta":{"lastUpdated":"2019-04-09T10:25:22.874151+00:00","versionId":"MTU1NDgwNTUyMjg3NDE1MTAwMA"},"organization":{"identifier":{"value":"7cc4da76-2ffa-4a97-ab57-5f02992c01a9"}},"patient":{"reference":"Patient/00b8a693-5217-45fa-8e09-f60f93fe6ae9"},"payment":{"amount":{"code":"USD","system":"urn:iso:std:iso:4217","value":656.44}},"provider":{"identifier":{"value":"c2a00d9f-2c85-4235-9ab0-3105522906ef"}},"referral":{"reference":"#1"},"resourceType":"ExplanationOfBenefit","status":"active","totalCost":{"code":"USD","system":"urn:iso:std:iso:4217","value":945.55},"type":{"coding":[{"code":"71","display":"Local carrier non-durable medical equipment, prosthetics, orthotics, and supplies (DMEPOS) claim","system":"https://bluebutton.cms.gov/resources/variables/nch_clm_type_cd"},{"code":"CARRIER","display":"EOB Type","system":"https://bluebutton.cms.gov/resources/codesystem/eob-type"},{"code":"professional","display":"Claim Type","system":"http://hl7.org/fhir/ex-claimtype"},{"code":"O","display":"Part B physician/supplier claim record (processed by local carriers; can include DMEPOS services)","system":"https://bluebutton.cms.gov/resources/variables/nch_near_line_rec_ident_cd"}]}}},{"resource":{"billablePeriod":{"end":"2011-04-16T02:45:31-04:00","start":"2010-04-16T02:45:31-04:00"},"careTeam":[{"provider":{"identifier":{"system":"http://hl7.org/fhir/sid/us-npi","value":"99999999"}},"role":{"coding":[{"code":"primary","display":"Primary Care Practitioner","system":"http://hl7.org/fhir/claimcareteamrole"}]},"sequence":1}],"claim":{"reference":"Claim/dd7bb574-0ec1-492f-b421-31e04840a58b"},"contained":[{"id":"1","intent":"order","recipient":[{"identifier":{"system":"http://hl7.org/fhir/sid/us-npi","value":"99999999"}}],"requester":{"agent":{"identifier":{"system":"http://hl7.org/fhir/sid/us-npi","value":"99999999"}}},"resourceType":"ReferralRequest","status":"completed","subject":{"reference":"Patient/00b8a693-5217-45fa-8e09-f60f93fe6ae9"}},{"id":"coverage","resourceType":"Coverage","type":{"text":"medicare"}}],"created":"2010-04-16T02:45:31-04:00","id":"deb87e30-5ea3-49a3-b5dd-1ab25aca4e5e","identifier":[{"system":"https://bluebutton.cms.gov/resources/variables/clm_id","value":"dd7bb574-0ec1-492f-b421-31e04840a58b"},{"system":"https://bluebutton.cms.gov/resources/identifier/claim-group","value":"99999999999"}],"insurance":{"coverage":{"reference":"#coverage"}},"item":[{"category":{"coding":[{"code":"1","display":"Medical care","system":"https://bluebutton.cms.gov/resources/variables/line_cms_type_srvc_cd"}]},"encounter":[{"reference":"Encounter/dcb03c76-500c-428f-a34b-32a9661d62f3"}],"locationCodeableConcept":{"coding":[{"code":"21","display":"Inpatient Hospital","system":"https://bluebutton.cms.gov/resources/variables/line_place_of_srvc_cd"}]},"sequence":1,"servicedPeriod":{"end":"2010-04-16T02:45:31-04:00","start":"2010-04-16T02:15:31-04:00"}},{"adjudication":[{"amount":{"code":"USD","system":"urn:iso:std:iso:4217","value":28.104000000000003},"category":{"coding":[{"code":"https://bluebutton.cms.gov/resources/variables/line_coinsrnc_amt","display":"Line Beneficiary Coinsurance Amount","system":"https://bluebutton.cms.gov/resources/codesystem/adjudication"}]}},{"amount":{"code":"USD","system":"urn:iso:std:iso:4217","value":112.41600000000001},"category":{"coding":[{"code":"https://bluebutton.cms.gov/resources/variables/line_prvdr_pmt_amt","display":"Line Provider Payment Amount","system":"https://bluebutton.cms.gov/resources/codesystem/adjudication"}]}},{"amount":{"code":"USD","system":"urn:iso:std:iso:4217","value":140.52},"category":{"coding":[{"code":"https://bluebutton.cms.gov/resources/variables/line_sbmtd_chrg_amt","display":"Line Submitted Charge Amount","system":"https://bluebutton.cms.gov/resources/codesystem/adjudication"}]}},{"amount":{"code":"USD","system":"urn:iso:std:iso:4217","value":140.52},"category":{"coding":[{"code":"https://bluebutton.cms.gov/resources/variables/line_alowd_chrg_amt","display":"Line Allowed Charge Amount","system":"https://bluebutton.cms.gov/resources/codesystem/adjudication"}]}},{"amount":{"code":"USD","system":"urn:iso:std:iso:4217","value":0},"category":{"coding":[{"code":"https://bluebutton.cms.gov/resources/variables/line_bene_ptb_ddctbl_amt","display":"Line Beneficiary Part B Deductible Amount","system":"https://bluebutton.cms.gov/resources/codesystem/adjudication"}]}},{"category":{"coding":[{"code":"https://bluebutton.cms.gov/resources/variables/line_prcsg_ind_cd","display":"Line Processing Indicator Code","system":"https://bluebutton.cms.gov/resources/codesystem/adjudication"}]},"reason":{"coding":[{"code":"A","display":"Allowed","system":"https://bluebutton.cms.gov/resources/variables/line_prcsg_ind_cd"}]}}],"category":{"coding":[{"code":"1","display":"Medical care","system":"https://bluebutton.cms.gov/resources/variables/line_cms_type_srvc_cd"}]},"informationLinkId":[1],"locationCodeableConcept":{"coding":[{"code":"21","display":"Inpatient Hospital","system":"https://bluebutton.cms.gov/resources/variables/line_place_of_srvc_cd"}]},"net":{"code":"USD","system":"urn:iso:std:iso:4217","value":140.52},"sequence":2,"servicedPeriod":{"end":"2010-04-16T02:45:31-04:00","start":"2010-04-16T02:15:31-04:00"}},{"adjudication":[{"amount":{"code":"USD","system":"urn:iso:std:iso:4217","value":28.104000000000003},"category":{"coding":[{"code":"https://bluebutton.cms.gov/resources/variables/line_coinsrnc_amt","display":"Line Beneficiary Coinsurance Amount","system":"https://bluebutton.cms.gov/resources/codesystem/adjudication"}]}},{"amount":{"code":"USD","system":"urn:iso:std:iso:4217","value":112.41600000000001},"category":{"coding":[{"code":"https://bluebutton.cms.gov/resources/variables/line_prvdr_pmt_amt","display":"Line Provider Payment Amount","system":"https://bluebutton.cms.gov/resources/codesystem/adjudication"}]}},{"amount":{"code":"USD","system":"urn:iso:std:iso:4217","value":140.52},"category":{"coding":[{"code":"https://bluebutton.cms.gov/resources/variables/line_sbmtd_chrg_amt","display":"Line Submitted Charge Amount","system":"https://bluebutton.cms.gov/resources/codesystem/adjudication"}]}},{"amount":{"code":"USD","system":"urn:iso:std:iso:4217","value":140.52},"category":{"coding":[{"code":"https://bluebutton.cms.gov/resources/variables/line_alowd_chrg_amt","display":"Line Allowed Charge Amount","system":"https://bluebutton.cms.gov/resources/codesystem/adjudication"}]}},{"amount":{"code":"USD","system":"urn:iso:std:iso:4217","value":0},"category":{"coding":[{"code":"https://bluebutton.cms.gov/resources/variables/line_bene_ptb_ddctbl_amt","display":"Line Beneficiary Part B Deductible Amount","system":"https://bluebutton.cms.gov/resources/codesystem/adjudication"}]}},{"category":{"coding":[{"code":"https://bluebutton.cms.gov/resources/variables/line_prcsg_ind_cd","display":"Line Processing Indicator Code","system":"https://bluebutton.cms.gov/resources/codesystem/adjudication"}]},"reason":{"coding":[{"code":"A","display":"Allowed","system":"https://bluebutton.cms.gov/resources/variables/line_prcsg_ind_cd"}]}}],"category":{"coding":[{"code":"1","display":"Medical care","system":"https://bluebutton.cms.gov/resources/variables/line_cms_type_srvc_cd"}]},"informationLinkId":[2],"locationCodeableConcept":{"coding":[{"code":"21","display":"Inpatient Hospital","system":"https://bluebutton.cms.gov/resources/variables/line_place_of_srvc_cd"}]},"net":{"code":"USD","system":"urn:iso:std:iso:4217","value":140.52},"sequence":3,"servicedPeriod":{"end":"2010-04-16T02:45:31-04:00","start":"2010-04-16T02:15:31-04:00"}},{"adjudication":[{"amount":{"code":"USD","system":"urn:iso:std:iso:4217","value":82.16000000000001},"category":{"coding":[{"code":"https://bluebutton.cms.gov/resources/variables/line_coinsrnc_amt","display":"Line Beneficiary Coinsurance Amount","system":"https://bluebutton.cms.gov/resources/codesystem/adjudication"}]}},{"amount":{"code":"USD","system":"urn:iso:std:iso:4217","value":328.64000000000004},"category":{"coding":[{"code":"https://bluebutton.cms.gov/resources/variables/line_prvdr_pmt_amt","display":"Line Provider Payment Amount","system":"https://bluebutton.cms.gov/resources/codesystem/adjudication"}]}},{"amount":{"code":"USD","system":"urn:iso:std:iso:4217","value":410.8},"category":{"coding":[{"code":"https://bluebutton.cms.gov/resources/variables/line_sbmtd_chrg_amt","display":"Line Submitted Charge Amount","system":"https://bluebutton.cms.gov/resources/codesystem/adjudication"}]}},{"amount":{"code":"USD","system":"urn:iso:std:iso:4217","value":410.8},"category":{"coding":[{"code":"https://bluebutton.cms.gov/resources/variables/line_alowd_chrg_amt","display":"Line Allowed Charge Amount","system":"https://bluebutton.cms.gov/resources/codesystem/adjudication"}]}},{"amount":{"code":"USD","system":"urn:iso:std:iso:4217","value":0},"category":{"coding":[{"code":"https://bluebutton.cms.gov/resources/variables/line_bene_ptb_ddctbl_amt","display":"Line Beneficiary Part B Deductible Amount","system":"https://bluebutton.cms.gov/resources/codesystem/adjudication"}]}},{"category":{"coding":[{"code":"https://bluebutton.cms.gov/resources/variables/line_prcsg_ind_cd","display":"Line Processing Indicator Code","system":"https://bluebutton.cms.gov/resources/codesystem/adjudication"}]},"reason":{"coding":[{"code":"A","display":"Allowed","system":"https://bluebutton.cms.gov/resources/variables/line_prcsg_ind_cd"}]}}],"category":{"coding":[{"code":"1","display":"Medical care","system":"https://bluebutton.cms.gov/resources/variables/line_cms_type_srvc_cd"}]},"locationCodeableConcept":{"coding":[{"code":"21","display":"Inpatient Hospital","system":"https://bluebutton.cms.gov/resources/variables/line_place_of_srvc_cd"}]},"net":{"code":"USD","system":"urn:iso:std:iso:4217","value":410.8},"sequence":4,"service":{"coding":[{"code":"428191000124101","system":"http://snomed.info/sct","version":"v1"}]},"servicedPeriod":{"end":"2010-04-16T02:45:31-04:00","start":"2010-04-16T02:15:31-04:00"}}],"meta":{"lastUpdated":"2019-04-09T10:25:21.826349+00:00","versionId":"MTU1NDgwNTUyMTgyNjM0OTAwMA"},"organization":{"identifier":{"value":"7cc4da76-2ffa-4a97-ab57-5f02992c01a9"}},"patient":{"reference":"Patient/00b8a693-5217-45fa-8e09-f60f93fe6ae9"},"payment":{"amount":{"code":"USD","system":"urn:iso:std:iso:4217","value":553.4720000000001}},"provider":{"identifier":{"value":"c2a00d9f-2c85-4235-9ab0-3105522906ef"}},"referral":{"reference":"#1"},"resourceType":"ExplanationOfBenefit","status":"active","totalCost":{"code":"USD","system":"urn:iso:std:iso:4217","value":816.84},"type":{"coding":[{"code":"71","display":"Local carrier non-durable medical equipment, prosthetics, orthotics, and supplies (DMEPOS) claim","system":"https://bluebutton.cms.gov/resources/variables/nch_clm_type_cd"},{"code":"CARRIER","display":"EOB Type","system":"https://bluebutton.cms.gov/resources/codesystem/eob-type"},{"code":"professional","display":"Claim Type","system":"http://hl7.org/fhir/ex-claimtype"},{"code":"O","display":"Part B physician/supplier claim record (processed by local carriers; can include DMEPOS services)","system":"https://bluebutton.cms.gov/resources/variables/nch_near_line_rec_ident_cd"}]}}},{"resource":{"billablePeriod":{"end":"2010-04-10T02:45:31-04:00","start":"2009-04-10T02:45:31-04:00"},"careTeam":[{"provider":{"identifier":{"system":"http://hl7.org/fhir/sid/us-npi","value":"99999999"}},"role":{"coding":[{"code":"primary","display":"Primary Care Practitioner","system":"http://hl7.org/fhir/claimcareteamrole"}]},"sequence":1}],"claim":{"reference":"Claim/ece689c1-ed40-4d6e-880e-6bd715a26669"},"contained":[{"id":"1","intent":"order","recipient":[{"identifier":{"system":"http://hl7.org/fhir/sid/us-npi","value":"99999999"}}],"requester":{"agent":{"identifier":{"system":"http://hl7.org/fhir/sid/us-npi","value":"99999999"}}},"resourceType":"ReferralRequest","status":"completed","subject":{"reference":"Patient/00b8a693-5217-45fa-8e09-f60f93fe6ae9"}},{"id":"coverage","resourceType":"Coverage","type":{"text":"medicare"}}],"created":"2009-04-10T02:45:31-04:00","id":"f07e1d5e-c784-47c8-9182-e79f05f438fb","identifier":[{"system":"https://bluebutton.cms.gov/resources/variables/clm_id","value":"ece689c1-ed40-4d6e-880e-6bd715a26669"},{"system":"https://bluebutton.cms.gov/resources/identifier/claim-group","value":"99999999999"}],"insurance":{"coverage":{"reference":"#coverage"}},"item":[{"category":{"coding":[{"code":"1","display":"Medical care","system":"https://bluebutton.cms.gov/resources/variables/line_cms_type_srvc_cd"}]},"encounter":[{"reference":"Encounter/bf5204aa-840f-457f-888a-ddae97af5328"}],"locationCodeableConcept":{"coding":[{"code":"21","display":"Inpatient Hospital","system":"https://bluebutton.cms.gov/resources/variables/line_place_of_srvc_cd"}]},"sequence":1,"servicedPeriod":{"end":"2009-04-10T02:45:31-04:00","start":"2009-04-10T02:15:31-04:00"}},{"adjudication":[{"amount":{"code":"USD","system":"urn:iso:std:iso:4217","value":28.104000000000003},"category":{"coding":[{"code":"https://bluebutton.cms.gov/resources/variables/line_coinsrnc_amt","display":"Line Beneficiary Coinsurance Amount","system":"https://bluebutton.cms.gov/resources/codesystem/adjudication"}]}},{"amount":{"code":"USD","system":"urn:iso:std:iso:4217","value":112.41600000000001},"category":{"coding":[{"code":"https://bluebutton.cms.gov/resources/variables/line_prvdr_pmt_amt","display":"Line Provider Payment Amount","system":"https://bluebutton.cms.gov/resources/codesystem/adjudication"}]}},{"amount":{"code":"USD","system":"urn:iso:std:iso:4217","value":140.52},"category":{"coding":[{"code":"https://bluebutton.cms.gov/resources/variables/line_sbmtd_chrg_amt","display":"Line Submitted Charge Amount","system":"https://bluebutton.cms.gov/resources/codesystem/adjudication"}]}},{"amount":{"code":"USD","system":"urn:iso:std:iso:4217","value":140.52},"category":{"coding":[{"code":"https://bluebutton.cms.gov/resources/variables/line_alowd_chrg_amt","display":"Line Allowed Charge Amount","system":"https://bluebutton.cms.gov/resources/codesystem/adjudication"}]}},{"amount":{"code":"USD","system":"urn:iso:std:iso:4217","value":0},"category":{"coding":[{"code":"https://bluebutton.cms.gov/resources/variables/line_bene_ptb_ddctbl_amt","display":"Line Beneficiary Part B Deductible Amount","system":"https://bluebutton.cms.gov/resources/codesystem/adjudication"}]}},{"category":{"coding":[{"code":"https://bluebutton.cms.gov/resources/variables/line_prcsg_ind_cd","display":"Line Processing Indicator Code","system":"https://bluebutton.cms.gov/resources/codesystem/adjudication"}]},"reason":{"coding":[{"code":"A","display":"Allowed","system":"https://bluebutton.cms.gov/resources/variables/line_prcsg_ind_cd"}]}}],"category":{"coding":[{"code":"1","display":"Medical care","system":"https://bluebutton.cms.gov/resources/variables/line_cms_type_srvc_cd"}]},"informationLinkId":[1],"locationCodeableConcept":{"coding":[{"code":"21","display":"Inpatient Hospital","system":"https://bluebutton.cms.gov/resources/variables/line_place_of_srvc_cd"}]},"net":{"code":"USD","system":"urn:iso:std:iso:4217","value":140.52},"sequence":2,"servicedPeriod":{"end":"2009-04-10T02:45:31-04:00","start":"2009-04-10T02:15:31-04:00"}},{"adjudication":[{"amount":{"code":"USD","system":"urn:iso:std:iso:4217","value":109.94200000000001},"category":{"coding":[{"code":"https://bluebutton.cms.gov/resources/variables/line_coinsrnc_amt","display":"Line Beneficiary Coinsurance Amount","system":"https://bluebutton.cms.gov/resources/codesystem/adjudication"}]}},{"amount":{"code":"USD","system":"urn:iso:std:iso:4217","value":439.76800000000003},"category":{"coding":[{"code":"https://bluebutton.cms.gov/resources/variables/line_prvdr_pmt_amt","display":"Line Provider Payment Amount","system":"https://bluebutton.cms.gov/resources/codesystem/adjudication"}]}},{"amount":{"code":"USD","system":"urn:iso:std:iso:4217","value":549.71},"category":{"coding":[{"code":"https://bluebutton.cms.gov/resources/variables/line_sbmtd_chrg_amt","display":"Line Submitted Charge Amount","system":"https://bluebutton.cms.gov/resources/codesystem/adjudication"}]}},{"amount":{"code":"USD","system":"urn:iso:std:iso:4217","value":549.71},"category":{"coding":[{"code":"https://bluebutton.cms.gov/resources/variables/line_alowd_chrg_amt","display":"Line Allowed Charge Amount","system":"https://bluebutton.cms.gov/resources/codesystem/adjudication"}]}},{"amount":{"code":"USD","system":"urn:iso:std:iso:4217","value":0},"category":{"coding":[{"code":"https://bluebutton.cms.gov/resources/variables/line_bene_ptb_ddctbl_amt","display":"Line Beneficiary Part B Deductible Amount","system":"https://bluebutton.cms.gov/resources/codesystem/adjudication"}]}},{"category":{"coding":[{"code":"https://bluebutton.cms.gov/resources/variables/line_prcsg_ind_cd","display":"Line Processing Indicator Code","system":"https://bluebutton.cms.gov/resources/codesystem/adjudication"}]},"reason":{"coding":[{"code":"A","display":"Allowed","system":"https://bluebutton.cms.gov/resources/variables/line_prcsg_ind_cd"}]}}],"category":{"coding":[{"code":"1","display":"Medical care","system":"https://bluebutton.cms.gov/resources/variables/line_cms_type_srvc_cd"}]},"locationCodeableConcept":{"coding":[{"code":"21","display":"Inpatient Hospital","system":"https://bluebutton.cms.gov/resources/variables/line_place_of_srvc_cd"}]},"net":{"code":"USD","system":"urn:iso:std:iso:4217","value":549.71},"sequence":3,"service":{"coding":[{"code":"428191000124101","system":"http://snomed.info/sct","version":"v1"}]},"servicedPeriod":{"end":"2009-04-10T02:45:31-04:00","start":"2009-04-10T02:15:31-04:00"}}],"meta":{"lastUpdated":"2019-04-09T10:25:21.818190+00:00","versionId":"MTU1NDgwNTUyMTgxODE5MDAwMA"},"organization":{"identifier":{"value":"7cc4da76-2ffa-4a97-ab57-5f02992c01a9"}},"patient":{"reference":"Patient/00b8a693-5217-45fa-8e09-f60f93fe6ae9"},"payment":{"amount":{"code":"USD","system":"urn:iso:std:iso:4217","value":552.1840000000001}},"provider":{"identifier":{"value":"c2a00d9f-2c85-4235-9ab0-3105522906ef"}},"referral":{"reference":"#1"},"resourceType":"ExplanationOfBenefit","status":"active","totalCost":{"code":"USD","system":"urn:iso:std:iso:4217","value":815.23},"type":{"coding":[{"code":"71","display":"Local carrier non-durable medical equipment, prosthetics, orthotics, and supplies (DMEPOS) claim","system":"https://bluebutton.cms.gov/resources/variables/nch_clm_type_cd"},{"code":"CARRIER","display":"EOB Type","system":"https://bluebutton.cms.gov/resources/codesystem/eob-type"},{"code":"professional","display":"Claim Type","system":"http://hl7.org/fhir/ex-claimtype"},{"code":"O","display":"Part B physician/supplier claim record (processed by local carriers; can include DMEPOS services)","system":"https://bluebutton.cms.gov/resources/variables/nch_near_line_rec_ident_cd"}]}}},{"resource":{"billablePeriod":{"end":"2015-05-30T02:30:31-04:00","extension":[{"url":"https://bluebutton.cms.gov/assets/ig/StructureDefinition-bluebutton-inpatient-claim-query-cd-extension","valueCoding":{"code":"3","display":"Final Bill","system":"https://bluebutton.cms.gov/assets/ig/ValueSet-claim-query-cd"}}],"start":"2014-05-30T02:30:31-04:00"},"careTeam":[{"provider":{"identifier":{"system":"http://hl7.org/fhir/sid/us-npi","value":"99999999"}},"role":{"coding":[{"code":"primary","display":"Primary Care Practitioner","system":"http://hl7.org/fhir/claimcareteamrole"}]},"sequence":1}],"contained":[{"id":"coverage","resourceType":"Coverage","type":{"text":"medicare"}}],"extension":[{"url":"https://bluebutton.cms.gov/assets/ig/StructureDefinition-bluebutton-inpatient-ime-op-clm-val-amt-extension","valueMoney":{"code":"USD","system":"urn:iso:std:iso:4217","value":400}},{"url":"https://bluebutton.cms.gov/assets/ig/StructureDefinition-bluebutton-inpatient-dsh-op-clm-val-amt-extension","valueMoney":{"code":"USD","system":"urn:iso:std:iso:4217","value":0}},{"url":"https://bluebutton.cms.gov/assets/ig/StructureDefinition-bluebutton-inpatient-clm-pass-thru-per-diem-amt-extension","valueMoney":{"code":"USD","system":"urn:iso:std:iso:4217","value":0}},{"url":"https://bluebutton.cms.gov/assets/ig/StructureDefinition-bluebutton-inpatient-nch-profnl-cmpnt-chrg-amt-extension","valueMoney":{"code":"USD","system":"urn:iso:std:iso:4217","value":0}},{"url":"https://bluebutton.cms.gov/assets/ig/StructureDefinition-bluebutton-inpatient-clm-tot-pps-cptl-amt-extension","valueMoney":{"code":"USD","system":"urn:iso:std:iso:4217","value":0}},{"url":"https://bluebutton.cms.gov/assets/ig/StructureDefinition-bluebutton-inpatient-nch-bene-ip-ddctbl-amt-extension","valueMoney":{"code":"USD","system":"urn:iso:std:iso:4217","value":0}},{"url":"https://bluebutton.cms.gov/assets/ig/StructureDefinition-bluebutton-inpatient-nch-bene-pta-coinsrnc-lblty-amt-extension","valueMoney":{"code":"USD","system":"urn:iso:std:iso:4217","value":0}},{"url":"https://bluebutton.cms.gov/assets/ig/StructureDefinition-bluebutton-inpatient-nch-ip-ncvrd-chrg-amt-extension","valueMoney":{"code":"USD","system":"urn:iso:std:iso:4217","value":0}},{"url":"https://bluebutton.cms.gov/assets/ig/StructureDefinition-bluebutton-inpatient-nch-ip-tot-ddctn-amt-extension","valueMoney":{"code":"USD","system":"urn:iso:std:iso:4217","value":0}},{"url":"https://bluebutton.cms.gov/assets/ig/StructureDefinition-bluebutton-inpatient-clm-pps-cptl-dsprprtnt-shr-amt-extension","valueMoney":{"code":"USD","system":"urn:iso:std:iso:4217","value":0}},{"url":"https://bluebutton.cms.gov/assets/ig/StructureDefinition-bluebutton-inpatient-clm-pps-cptl-excptn-amt-extension","valueMoney":{"code":"USD","system":"urn:iso:std:iso:4217","value":0}},{"url":"https://bluebutton.cms.gov/assets/ig/StructureDefinition-bluebutton-inpatient-clm-pps-cptl-fsp-amt-extension","valueMoney":{"code":"USD","system":"urn:iso:std:iso:4217","value":0}},{"url":"https://bluebutton.cms.gov/assets/ig/StructureDefinition-bluebutton-inpatient-clm-pps-cptl-ime-amt-extension","valueMoney":{"code":"USD","system":"urn:iso:std:iso:4217","value":400}},{"url":"https://bluebutton.cms.gov/assets/ig/StructureDefinition-bluebutton-inpatient-clm-pps-cptl-outlier-amt-extension","valueMoney":{"code":"USD","system":"urn:iso:std:iso:4217","value":0}},{"url":"https://bluebutton.cms.gov/assets/ig/StructureDefinition-bluebutton-inpatient-clm-pps-old-cptl-hld-hrmls-amt-extension","valueMoney":{"code":"USD","system":"urn:iso:std:iso:4217","value":0}},{"url":"https://bluebutton.cms.gov/assets/ig/StructureDefinition-bluebutton-inpatient-nch-drg-outlier-aprvd-pmt-amt-extension","valueMoney":{"code":"USD","system":"urn:iso:std:iso:4217","value":0}},{"url":"https://bluebutton.cms.gov/assets/ig/StructureDefinition-bluebutton-inpatient-nch-bene-blood-ddctbl-lblty-am-extension","valueMoney":{"code":"USD","system":"urn:iso:std:iso:4217","value":0}},{"url":"https://bluebutton.cms.gov/assets/ig/StructureDefinition-bluebutton-inpatient-clm-mdcr-non-pmt-rsn-cd-extension","valueCoding":{"code":"N","display":"All other reasons for non-payment","system":"https://bluebutton.cms.gov/assets/ig/CodeSystem-clm-mdcr-non-pmt-rsn-cd"}},{"url":"https://bluebutton.cms.gov/assets/ig/StructureDefinition-bluebutton-inpatient-prpayamt-extension","valueMoney":{"code":"USD","system":"urn:iso:std:iso:4217","value":0}},{"url":"https://bluebutton.cms.gov/assets/ig/StructureDefinition-bluebutton-inpatient-fi-num-extension","valueIdentifier":{"system":"https://bluebutton.cms.gov/assets/ig/CodeSystem-fi-num","value":"002000"}}],"id":"f5b7322b-b4ad-4f80-ae9d-c4aa6086275b","identifier":[{"system":"https://bluebutton.cms.gov/resources/variables/clm_id","value":"39ba7669-a527-46ca-a9aa-fd4c115a270b"},{"system":"https://bluebutton.cms.gov/resources/identifier/claim-group","value":"99999999999"}],"insurance":{"coverage":{"reference":"#coverage"}},"item":[{"extension":[{"url":"https://bluebutton.cms.gov/assets/ig/StructureDefinition-bluebutton-inpatient-rev-cntr-ndc-qty-extension","valueQuantity":{"value":0}}],"locationCodeableConcept":{"coding":[{"code":"21","display":"Inpatient Hospital","system":"https://bluebutton.cms.gov/resources/variables/line_place_of_srvc_cd"}]},"sequence":1}],"meta":{"lastUpdated":"2019-04-09T10:25:22.865290+00:00","profile":["https://bluebutton.cms.gov/assets/ig/StructureDefinition-bluebutton-inpatient-claim"],"versionId":"MTU1NDgwNTUyMjg2NTI5MDAwMA"},"organization":{"identifier":{"value":"7cc4da76-2ffa-4a97-ab57-5f02992c01a9"}},"patient":{"reference":"Patient/00b8a693-5217-45fa-8e09-f60f93fe6ae9"},"payment":{"amount":{"code":"USD","system":"urn:iso:std:iso:4217","value":0}},"provider":{"identifier":{"value":"c2a00d9f-2c85-4235-9ab0-3105522906ef"}},"resourceType":"ExplanationOfBenefit","status":"active","totalCost":{"code":"USD","system":"urn:iso:std:iso:4217","value":125},"type":{"coding":[{"code":"71","display":"Local carrier non-durable medical equipment, prosthetics, orthotics, and supplies (DMEPOS) claim","system":"https://bluebutton.cms.gov/resources/variables/nch_clm_type_cd"},{"code":"CARRIER","display":"EOB Type","system":"https://bluebutton.cms.gov/resources/codesystem/eob-type"},{"code":"professional","display":"Claim Type","system":"http://hl7.org/fhir/ex-claimtype"},{"code":"O","display":"Part B physician/supplier claim record (processed by local carriers; can include DMEPOS services)","system":"https://bluebutton.cms.gov/resources/variables/nch_near_line_rec_ident_cd"}]}}},{"resource":{"date":"2016-05-20T02:15:31-04:00","encounter":{"reference":"Encounter/e5bf14d7-90f8-4165-9225-6588fa8f4ed5"},"id":"1497f04e-61e4-446f-a360-7c521011543c","meta":{"lastUpdated":"2019-04-09T10:25:23.877044+00:00","versionId":"MTU1NDgwNTUyMzg3NzA0NDAwMA"},"notGiven":false,"patient":{"reference":"Patient/00b8a693-5217-45fa-8e09-f60f93fe6ae9"},"primarySource":true,"resourceType":"Immunization","status":"completed","vaccineCode":{"coding":[{"code":"140","display":"Influenza, seasonal, injectable, preservative free","system":"http://hl7.org/fhir/sid/cvx"}],"text":"Influenza, seasonal, injectable, preservative free"}}},{"resource":{"date":"2010-04-16T02:15:31-04:00","encounter":{"reference":"Encounter/dcb03c76-500c-428f-a34b-32a9661d62f3"},"id":"16578e40-1b72-4485-ac2c-9130cde062d8","meta":{"lastUpdated":"2019-04-09T10:25:21.834468+00:00","versionId":"MTU1NDgwNTUyMTgzNDQ2ODAwMA"},"notGiven":false,"patient":{"reference":"Patient/00b8a693-5217-45fa-8e09-f60f93fe6ae9"},"primarySource":true,"resourceType":"Immunization","status":"completed","vaccineCode":{"coding":[{"code":"140","display":"Influenza, seasonal, injectable, preservative free","system":"http://hl7.org/fhir/sid/cvx"}],"text":"Influenza, seasonal, injectable, preservative free"}}},{"resource":{"date":"2012-04-27T02:15:31-04:00","encounter":{"reference":"Encounter/5914c664-5e5f-4396-844c-07a5c21e651a"},"id":"3127c5f1-48fc-4f1f-978f-24439a983430","meta":{"lastUpdated":"2019-04-09T10:25:21.828951+00:00","versionId":"MTU1NDgwNTUyMTgyODk1MTAwMA"},"notGiven":false,"patient":{"reference":"Patient/00b8a693-5217-45fa-8e09-f60f93fe6ae9"},"primarySource":true,"resourceType":"Immunization","status":"completed","vaccineCode":{"coding":[{"code":"140","display":"Influenza, seasonal, injectable, preservative free","system":"http://hl7.org/fhir/sid/cvx"}],"text":"Influenza, seasonal, injectable, preservative free"}}},{"resource":{"date":"2013-05-03T02:15:31-04:00","encounter":{"reference":"Encounter/0be9f9db-9855-49b7-b5cb-7c92b2eb3963"},"id":"499128bc-443b-41fd-a472-644ff152a685","meta":{"lastUpdated":"2019-04-09T10:25:22.869818+00:00","versionId":"MTU1NDgwNTUyMjg2OTgxODAwMA"},"notGiven":false,"patient":{"reference":"Patient/00b8a693-5217-45fa-8e09-f60f93fe6ae9"},"primarySource":true,"resourceType":"Immunization","status":"completed","vaccineCode":{"coding":[{"code":"113","display":"Td (adult) preservative free","system":"http://hl7.org/fhir/sid/cvx"}],"text":"Td (adult) preservative free"}}},{"resource":{"date":"2017-05-26T02:15:31-04:00","encounter":{"reference":"Encounter/1a7038cd-8888-4b97-b3a2-83b13e6dc1c8"},"id":"547d6594-7ae0-4803-b4d5-42ee1c87d0b3","meta":{"lastUpdated":"2019-04-09T10:25:23.875801+00:00","versionId":"MTU1NDgwNTUyMzg3NTgwMTAwMA"},"notGiven":false,"patient":{"reference":"Patient/00b8a693-5217-45fa-8e09-f60f93fe6ae9"},"primarySource":true,"resourceType":"Immunization","status":"completed","vaccineCode":{"coding":[{"code":"140","display":"Influenza, seasonal, injectable, preservative free","system":"http://hl7.org/fhir/sid/cvx"}],"text":"Influenza, seasonal, injectable, preservative free"}}},{"resource":{"date":"2018-06-01T02:15:31-04:00","encounter":{"reference":"Encounter/d69f9b88-691d-4381-9c2a-8f4729505768"},"id":"5bea539f-4c4c-45ac-9ef3-b4106cf3cda3","meta":{"lastUpdated":"2019-04-09T10:25:24.914692+00:00","versionId":"MTU1NDgwNTUyNDkxNDY5MjAwMA"},"notGiven":false,"patient":{"reference":"Patient/00b8a693-5217-45fa-8e09-f60f93fe6ae9"},"primarySource":true,"resourceType":"Immunization","status":"completed","vaccineCode":{"coding":[{"code":"140","display":"Influenza, seasonal, injectable, preservative free","system":"http://hl7.org/fhir/sid/cvx"}],"text":"Influenza, seasonal, injectable, preservative free"}}},{"resource":{"date":"2011-04-22T02:15:31-04:00","encounter":{"reference":"Encounter/c5f52d6c-5020-4f78-bd64-905afb2c2b7c"},"id":"6b1b177b-8b87-4c3a-af28-0d491e053162","meta":{"lastUpdated":"2019-04-09T10:25:21.830538+00:00","versionId":"MTU1NDgwNTUyMTgzMDUzODAwMA"},"notGiven":false,"patient":{"reference":"Patient/00b8a693-5217-45fa-8e09-f60f93fe6ae9"},"primarySource":true,"resourceType":"Immunization","status":"completed","vaccineCode":{"coding":[{"code":"140","display":"Influenza, seasonal, injectable, preservative free","system":"http://hl7.org/fhir/sid/cvx"}],"text":"Influenza, seasonal, injectable, preservative free"}}},{"resource":{"date":"2013-05-03T02:15:31-04:00","encounter":{"reference":"Encounter/0be9f9db-9855-49b7-b5cb-7c92b2eb3963"},"id":"9b86570e-e7aa-4c4f-acae-6da5016dece7","meta":{"lastUpdated":"2019-04-09T10:25:22.867556+00:00","versionId":"MTU1NDgwNTUyMjg2NzU1NjAwMA"},"notGiven":false,"patient":{"reference":"Patient/00b8a693-5217-45fa-8e09-f60f93fe6ae9"},"primarySource":true,"resourceType":"Immunization","status":"completed","vaccineCode":{"coding":[{"code":"140","display":"Influenza, seasonal, injectable, preservative free","system":"http://hl7.org/fhir/sid/cvx"}],"text":"Influenza, seasonal, injectable, preservative free"}}},{"resource":{"date":"2009-04-10T02:15:31-04:00","encounter":{"reference":"Encounter/bf5204aa-840f-457f-888a-ddae97af5328"},"id":"b36bf604-4b55-4667-b860-3178c1b74388","meta":{"lastUpdated":"2019-04-09T10:25:21.825605+00:00","versionId":"MTU1NDgwNTUyMTgyNTYwNTAwMA"},"notGiven":false,"patient":{"reference":"Patient/00b8a693-5217-45fa-8e09-f60f93fe6ae9"},"primarySource":true,"resourceType":"Immunization","status":"completed","vaccineCode":{"coding":[{"code":"140","display":"Influenza, seasonal, injectable, preservative free","system":"http://hl7.org/fhir/sid/cvx"}],"text":"Influenza, seasonal, injectable, preservative free"}}},{"resource":{"date":"2014-05-09T02:15:31-04:00","encounter":{"reference":"Encounter/01332d05-2e28-4d29-9b5f-a53e86b2554b"},"id":"ba77e78b-20bf-4bca-be42-f40c56d827d9","meta":{"lastUpdated":"2019-04-09T10:25:22.866401+00:00","versionId":"MTU1NDgwNTUyMjg2NjQwMTAwMA"},"notGiven":false,"patient":{"reference":"Patient/00b8a693-5217-45fa-8e09-f60f93fe6ae9"},"primarySource":true,"resourceType":"Immunization","status":"completed","vaccineCode":{"coding":[{"code":"140","display":"Influenza, seasonal, injectable, preservative free","system":"http://hl7.org/fhir/sid/cvx"}],"text":"Influenza, seasonal, injectable, preservative free"}}},{"resource":{"date":"2015-05-15T02:15:31-04:00","encounter":{"reference":"Encounter/03df893a-29c9-4a97-ba0c-bc8bb083e9d4"},"id":"e0e9a4bd-5bbc-462b-8f02-0dfb59d22b93","meta":{"lastUpdated":"2019-04-09T10:25:22.878246+00:00","versionId":"MTU1NDgwNTUyMjg3ODI0NjAwMA"},"notGiven":false,"patient":{"reference":"Patient/00b8a693-5217-45fa-8e09-f60f93fe6ae9"},"primarySource":true,"resourceType":"Immunization","status":"completed","vaccineCode":{"coding":[{"code":"140","display":"Influenza, seasonal, injectable, preservative free","system":"http://hl7.org/fhir/sid/cvx"}],"text":"Influenza, seasonal, injectable, preservative free"}}},{"resource":{"date":"2010-04-16T02:15:31-04:00","encounter":{"reference":"Encounter/dcb03c76-500c-428f-a34b-32a9661d62f3"},"id":"f1d9fcaf-8785-4364-8297-f3800d2a1d80","meta":{"lastUpdated":"2019-04-09T10:25:21.823862+00:00","versionId":"MTU1NDgwNTUyMTgyMzg2MjAwMA"},"notGiven":false,"patient":{"reference":"Patient/00b8a693-5217-45fa-8e09-f60f93fe6ae9"},"primarySource":true,"resourceType":"Immunization","status":"completed","vaccineCode":{"coding":[{"code":"133","display":"Pneumococcal conjugate PCV 13","system":"http://hl7.org/fhir/sid/cvx"}],"text":"Pneumococcal conjugate PCV 13"}}},{"resource":{"authoredOn":"2014-05-30T02:15:31-04:00","context":{"reference":"Encounter/df16e15d-2f8c-4481-b44a-24a1fed9f6d5"},"dosageInstruction":[{"asNeededBoolean":false,"doseQuantity":{"value":1},"sequence":1,"timing":{"repeat":{"frequency":1,"period":1,"periodUnit":"d"}}}],"id":"1e816bf6-def4-49cb-be28-bfb8ee2f0c9c","intent":"order","medicationCodeableConcept":{"coding":[{"code":"316672","display":"Simvistatin 10 MG","system":"http://www.nlm.nih.gov/research/umls/rxnorm"}],"text":"Simvistatin 10 MG"},"meta":{"lastUpdated":"2019-04-09T10:25:22.865189+00:00","versionId":"MTU1NDgwNTUyMjg2NTE4OTAwMA"},"reasonReference":[{"reference":"Condition/4c99ad7f-08e8-464b-bb66-484a65309040"}],"requester":{"agent":{"reference":"Practitioner/c2a00d9f-2c85-4235-9ab0-3105522906ef"},"onBehalfOf":{"reference":"Organization/7cc4da76-2ffa-4a97-ab57-5f02992c01a9"}},"resourceType":"MedicationRequest","status":"stopped","subject":{"reference":"Patient/00b8a693-5217-45fa-8e09-f60f93fe6ae9"}}},{"resource":{"authoredOn":"2011-04-12T02:15:31-04:00","context":{"reference":"Encounter/1028cd41-be5d-4ffb-ae5a-3d990e160df8"},"dosageInstruction":[{"asNeededBoolean":true,"sequence":1}],"id":"51687828-3dd0-4fa5-a01e-a38643ce16fb","intent":"order","medicationCodeableConcept":{"coding":[{"code":"313782","display":"Acetaminophen 325 MG Oral Tablet","system":"http://www.nlm.nih.gov/research/umls/rxnorm"}],"text":"Acetaminophen 325 MG Oral Tablet"},"meta":{"lastUpdated":"2019-04-09T10:25:21.829063+00:00","versionId":"MTU1NDgwNTUyMTgyOTA2MzAwMA"},"requester":{"agent":{"reference":"Practitioner/c2a00d9f-2c85-4235-9ab0-3105522906ef"},"onBehalfOf":{"reference":"Organization/7cc4da76-2ffa-4a97-ab57-5f02992c01a9"}},"resourceType":"MedicationRequest","status":"stopped","subject":{"reference":"Patient/00b8a693-5217-45fa-8e09-f60f93fe6ae9"}}},{"resource":{"authoredOn":"2015-05-30T02:15:31-04:00","context":{"reference":"Encounter/f908a71b-861e-4408-a044-76e932d5faee"},"dosageInstruction":[{"asNeededBoolean":false,"doseQuantity":{"value":1},"sequence":1,"timing":{"repeat":{"frequency":1,"period":1,"periodUnit":"d"}}}],"id":"9b3baef8-34fc-4471-b925-3415dd94d221","intent":"order","medicationCodeableConcept":{"coding":[{"code":"316672","display":"Simvistatin 10 MG","system":"http://www.nlm.nih.gov/research/umls/rxnorm"}],"text":"Simvistatin 10 MG"},"meta":{"lastUpdated":"2019-04-09T10:25:23.872573+00:00","versionId":"MTU1NDgwNTUyMzg3MjU3MzAwMA"},"reasonReference":[{"reference":"Condition/4c99ad7f-08e8-464b-bb66-484a65309040"}],"requester":{"agent":{"reference":"Practitioner/c2a00d9f-2c85-4235-9ab0-3105522906ef"},"onBehalfOf":{"reference":"Organization/7cc4da76-2ffa-4a97-ab57-5f02992c01a9"}},"resourceType":"MedicationRequest","status":"stopped","subject":{"reference":"Patient/00b8a693-5217-45fa-8e09-f60f93fe6ae9"}}},{"resource":{"authoredOn":"2017-05-29T02:15:31-04:00","context":{"reference":"Encounter/f3d42ecc-45e7-42b7-8daa-ccff2dacdebb"},"dosageInstruction":[{"asNeededBoolean":false,"doseQuantity":{"value":1},"sequence":1,"timing":{"repeat":{"frequency":1,"period":1,"periodUnit":"d"}}}],"id":"ba1c82dc-5d7e-4c38-a1db-b0ece1aa0f44","intent":"order","medicationCodeableConcept":{"coding":[{"code":"316672","display":"Simvistatin 10 MG","system":"http://www.nlm.nih.gov/research/umls/rxnorm"}],"text":"Simvistatin 10 MG"},"meta":{"lastUpdated":"2019-04-09T10:25:24.914684+00:00","versionId":"MTU1NDgwNTUyNDkxNDY4NDAwMA"},"reasonReference":[{"reference":"Condition/4c99ad7f-08e8-464b-bb66-484a65309040"}],"requester":{"agent":{"reference":"Practitioner/c2a00d9f-2c85-4235-9ab0-3105522906ef"},"onBehalfOf":{"reference":"Organization/7cc4da76-2ffa-4a97-ab57-5f02992c01a9"}},"resourceType":"MedicationRequest","status":"stopped","subject":{"reference":"Patient/00b8a693-5217-45fa-8e09-f60f93fe6ae9"}}},{"resource":{"authoredOn":"2016-05-29T02:15:31-04:00","context":{"reference":"Encounter/13bfc110-a8bb-422a-9fa6-b03527f2d02c"},"dosageInstruction":[{"asNeededBoolean":false,"doseQuantity":{"value":1},"sequence":1,"timing":{"repeat":{"frequency":1,"period":1,"periodUnit":"d"}}}],"id":"c3afd646-fb24-40da-8f20-9fd6aacd768a","intent":"order","medicationCodeableConcept":{"coding":[{"code":"316672","display":"Simvistatin 10 MG","system":"http://www.nlm.nih.gov/research/umls/rxnorm"}],"text":"Simvistatin 10 MG"},"meta":{"lastUpdated":"2019-04-09T10:25:23.874068+00:00","versionId":"MTU1NDgwNTUyMzg3NDA2ODAwMA"},"reasonReference":[{"reference":"Condition/4c99ad7f-08e8-464b-bb66-484a65309040"}],"requester":{"agent":{"reference":"Practitioner/c2a00d9f-2c85-4235-9ab0-3105522906ef"},"onBehalfOf":{"reference":"Organization/7cc4da76-2ffa-4a97-ab57-5f02992c01a9"}},"resourceType":"MedicationRequest","status":"stopped","subject":{"reference":"Patient/00b8a693-5217-45fa-8e09-f60f93fe6ae9"}}},{"resource":{"authoredOn":"2005-11-05T01:15:31-05:00","context":{"reference":"Encounter/e99a6381-4904-49da-9d93-edf7fda5b53e"},"id":"d056870e-028d-4f9d-aa88-0a30908dc2d2","intent":"order","medicationCodeableConcept":{"coding":[{"code":"849574","display":"Naproxen sodium 220 MG Oral Tablet","system":"http://www.nlm.nih.gov/research/umls/rxnorm"}],"text":"Naproxen sodium 220 MG Oral Tablet"},"meta":{"lastUpdated":"2019-04-09T10:25:20.797818+00:00","versionId":"MTU1NDgwNTUyMDc5NzgxODAwMA"},"reasonReference":[{"reference":"Condition/26d91fd2-fb32-4c4e-ad7a-f4882f629a3d"}],"requester":{"agent":{"reference":"Practitioner/c2a00d9f-2c85-4235-9ab0-3105522906ef"},"onBehalfOf":{"reference":"Organization/7cc4da76-2ffa-4a97-ab57-5f02992c01a9"}},"resourceType":"MedicationRequest","status":"active","subject":{"reference":"Patient/00b8a693-5217-45fa-8e09-f60f93fe6ae9"}}},{"resource":{"authoredOn":"2018-05-29T02:15:31-04:00","context":{"reference":"Encounter/e0d43b03-41e6-468b-993a-9d795c94420a"},"dosageInstruction":[{"asNeededBoolean":false,"doseQuantity":{"value":1},"sequence":1,"timing":{"repeat":{"frequency":1,"period":1,"periodUnit":"d"}}}],"id":"dd52e25e-433a-4c5f-8ca6-2925ea83b033","intent":"order","medicationCodeableConcept":{"coding":[{"code":"316672","display":"Simvistatin 10 MG","system":"http://www.nlm.nih.gov/research/umls/rxnorm"}],"text":"Simvistatin 10 MG"},"meta":{"lastUpdated":"2019-04-09T10:25:24.925518+00:00","versionId":"MTU1NDgwNTUyNDkyNTUxODAwMA"},"reasonReference":[{"reference":"Condition/4c99ad7f-08e8-464b-bb66-484a65309040"}],"requester":{"agent":{"reference":"Practitioner/c2a00d9f-2c85-4235-9ab0-3105522906ef"},"onBehalfOf":{"reference":"Organization/7cc4da76-2ffa-4a97-ab57-5f02992c01a9"}},"resourceType":"MedicationRequest","status":"active","subject":{"reference":"Patient/00b8a693-5217-45fa-8e09-f60f93fe6ae9"}}},{"resource":{"authoredOn":"1963-11-29T01:15:31-05:00","context":{"reference":"Encounter/70687ae5-9388-4285-9f35-50600288f948"},"id":"f445b087-1200-4bb7-8e23-a7b710b88286","intent":"order","medicationCodeableConcept":{"coding":[{"code":"316049","display":"Hydrochlorothiazide 25 MG","system":"http://www.nlm.nih.gov/research/umls/rxnorm"}],"text":"Hydrochlorothiazide 25 MG"},"meta":{"lastUpdated":"2019-04-09T10:25:20.808128+00:00","versionId":"MTU1NDgwNTUyMDgwODEyODAwMA"},"reasonReference":[{"reference":"Condition/4cad9232-1733-4958-a433-fa4787c37947"}],"requester":{"agent":{"reference":"Practitioner/c2a00d9f-2c85-4235-9ab0-3105522906ef"},"onBehalfOf":{"reference":"Organization/7cc4da76-2ffa-4a97-ab57-5f02992c01a9"}},"resourceType":"MedicationRequest","status":"active","subject":{"reference":"Patient/00b8a693-5217-45fa-8e09-f60f93fe6ae9"}}},{"resource":{"authoredOn":"2018-02-14T01:15:31-05:00","context":{"reference":"Encounter/34bd5a22-2078-4130-afcf-3049de96f976"},"id":"f826e6e0-dc3a-4544-b610-9146095e3036","intent":"order","medicationCodeableConcept":{"coding":[{"code":"562251","display":"Amoxicillin 250 MG / Clavulanate 125 MG Oral Tablet","system":"http://www.nlm.nih.gov/research/umls/rxnorm"}],"text":"Amoxicillin 250 MG / Clavulanate 125 MG Oral Tablet"},"meta":{"lastUpdated":"2019-04-09T10:25:24.918094+00:00","versionId":"MTU1NDgwNTUyNDkxODA5NDAwMA"},"reasonReference":[{"reference":"Condition/cd59c7af-70c6-4a42-b1b2-c5595e6bd797"}],"requester":{"agent":{"reference":"Practitioner/c2a00d9f-2c85-4235-9ab0-3105522906ef"},"onBehalfOf":{"reference":"Organization/7cc4da76-2ffa-4a97-ab57-5f02992c01a9"}},"resourceType":"MedicationRequest","status":"stopped","subject":{"reference":"Patient/00b8a693-5217-45fa-8e09-f60f93fe6ae9"}}},{"resource":{"category":[{"coding":[{"code":"laboratory","display":"laboratory","system":"http://hl7.org/fhir/observation-category"}]}],"code":{"coding":[{"code":"2093-3","display":"Total Cholesterol","system":"http://loinc.org"}],"text":"Total Cholesterol"},"context":{"reference":"Encounter/e5bf14d7-90f8-4165-9225-6588fa8f4ed5"},"effectiveDateTime":"2016-05-20T02:15:31-04:00","id":"005c1fef-427f-4ff7-a2c0-82f56b83d787","issued":"2016-05-20T02:15:31.730-04:00","meta":{"lastUpdated":"2019-04-09T10:25:23.877048+00:00","versionId":"MTU1NDgwNTUyMzg3NzA0ODAwMA"},"resourceType":"Observation","status":"final","subject":{"reference":"Patient/00b8a693-5217-45fa-8e09-f60f93fe6ae9"},"valueQuantity":{"code":"mg/dL","system":"http://unitsofmeasure.org","unit":"mg/dL","value":168.47784419829003}}},{"resource":{"category":[{"coding":[{"code":"laboratory","display":"laboratory","system":"http://hl7.org/fhir/observation-category"}]}],"code":{"coding":[{"code":"38483-4","display":"Creatinine","system":"http://loinc.org"}],"text":"Creatinine"},"context":{"reference":"Encounter/c5f52d6c-5020-4f78-bd64-905afb2c2b7c"},"effectiveDateTime":"2011-04-22T02:15:31-04:00","id":"005c7e45-d9ef-41c6-870e-0e268c4edb56","issued":"2011-04-22T02:15:31.730-04:00","meta":{"lastUpdated":"2019-04-09T10:25:21.827467+00:00","versionId":"MTU1NDgwNTUyMTgyNzQ2NzAwMA"},"resourceType":"Observation","status":"final","subject":{"reference":"Patient/00b8a693-5217-45fa-8e09-f60f93fe6ae9"},"valueQuantity":{"code":"mg/dL","system":"http://unitsofmeasure.org","unit":"mg/dL","value":1.0236403401500156}}},{"resource":{"category":[{"coding":[{"code":"laboratory","display":"laboratory","system":"http://hl7.org/fhir/observation-category"}]}],"code":{"coding":[{"code":"6298-4","display":"Potassium","system":"http://loinc.org"}],"text":"Potassium"},"context":{"reference":"Encounter/01332d05-2e28-4d29-9b5f-a53e86b2554b"},"effectiveDateTime":"2014-05-09T02:15:31-04:00","id":"006c03d9-29d2-4e58-809a-40404858c178","issued":"2014-05-09T02:15:31.730-04:00","meta":{"lastUpdated":"2019-04-09T10:25:22.878254+00:00","versionId":"MTU1NDgwNTUyMjg3ODI1NDAwMA"},"resourceType":"Observation","status":"final","subject":{"reference":"Patient/00b8a693-5217-45fa-8e09-f60f93fe6ae9"},"valueQuantity":{"code":"mmol/L","system":"http://unitsofmeasure.org","unit":"mmol/L","value":4.4159650127644134}}},{"resource":{"category":[{"coding":[{"code":"vital-signs","display":"vital-signs","system":"http://hl7.org/fhir/observation-category"}]}],"code":{"coding":[{"code":"55284-4","display":"Blood Pressure","system":"http://loinc.org"}],"text":"Blood Pressure"},"component":[{"code":{"coding":[{"code":"8462-4","display":"Diastolic Blood Pressure","system":"http://loinc.org"}],"text":"Diastolic Blood Pressure"},"valueQuantity":{"code":"mmHg","system":"http://unitsofmeasure.org","unit":"mmHg","value":116.64149333794772}},{"code":{"coding":[{"code":"8480-6","display":"Systolic Blood Pressure","system":"http://loinc.org"}],"text":"Systolic Blood Pressure"},"valueQuantity":{"code":"mmHg","system":"http://unitsofmeasure.org","unit":"mmHg","value":141.03790102882837}}],"context":{"reference":"Encounter/0be9f9db-9855-49b7-b5cb-7c92b2eb3963"},"effectiveDateTime":"2013-05-03T02:15:31-04:00","id":"0149b689-1169-4576-af0c-8bf8579acccc","issued":"2013-05-03T02:15:31.730-04:00","meta":{"lastUpdated":"2019-04-09T10:25:21.820786+00:00","versionId":"MTU1NDgwNTUyMTgyMDc4NjAwMA"},"resourceType":"Observation","status":"final","subject":{"reference":"Patient/00b8a693-5217-45fa-8e09-f60f93fe6ae9"}}},{"resource":{"category":[{"coding":[{"code":"vital-signs","display":"vital-signs","system":"http://hl7.org/fhir/observation-category"}]}],"code":{"coding":[{"code":"39156-5","display":"Body Mass Index","system":"http://loinc.org"}],"text":"Body Mass Index"},"context":{"reference":"Encounter/03df893a-29c9-4a97-ba0c-bc8bb083e9d4"},"effectiveDateTime":"2015-05-15T02:15:31-04:00","id":"04052eed-3234-4dfc-8713-c2e731109092","issued":"2015-05-15T02:15:31.730-04:00","meta":{"lastUpdated":"2019-04-09T10:25:22.868098+00:00","versionId":"MTU1NDgwNTUyMjg2ODA5ODAwMA"},"resourceType":"Observation","status":"final","subject":{"reference":"Patient/00b8a693-5217-45fa-8e09-f60f93fe6ae9"},"valueQuantity":{"code":"kg/m2","system":"http://unitsofmeasure.org","unit":"kg/m2","value":33.303565951999154}}},{"resource":{"category":[{"coding":[{"code":"laboratory","display":"laboratory","system":"http://hl7.org/fhir/observation-category"}]}],"code":{"coding":[{"code":"49765-1","display":"Calcium","system":"http://loinc.org"}],"text":"Calcium"},"context":{"reference":"Encounter/c5f52d6c-5020-4f78-bd64-905afb2c2b7c"},"effectiveDateTime":"2011-04-22T02:15:31-04:00","id":"0434072c-d544-4638-8392-97188082851f","issued":"2011-04-22T02:15:31.730-04:00","meta":{"lastUpdated":"2019-04-09T10:25:21.827474+00:00","versionId":"MTU1NDgwNTUyMTgyNzQ3NDAwMA"},"resourceType":"Observation","status":"final","subject":{"reference":"Patient/00b8a693-5217-45fa-8e09-f60f93fe6ae9"},"valueQuantity":{"code":"mg/dL","system":"http://unitsofmeasure.org","unit":"mg/dL","value":9.32402347335859}}},{"resource":{"category":[{"coding":[{"code":"laboratory","display":"laboratory","system":"http://hl7.org/fhir/observation-category"}]}],"code":{"coding":[{"code":"2069-3","display":"Chloride","system":"http://loinc.org"}],"text":"Chloride"},"context":{"reference":"Encounter/0be9f9db-9855-49b7-b5cb-7c92b2eb3963"},"effectiveDateTime":"2013-05-03T02:15:31-04:00","id":"07104977-b40a-45a3-8236-f81584cb112f","issued":"2013-05-03T02:15:31.730-04:00","meta":{"lastUpdated":"2019-04-09T10:25:22.848677+00:00","versionId":"MTU1NDgwNTUyMjg0ODY3NzAwMA"},"resourceType":"Observation","status":"final","subject":{"reference":"Patient/00b8a693-5217-45fa-8e09-f60f93fe6ae9"},"valueQuantity":{"code":"mmol/L","system":"http://unitsofmeasure.org","unit":"mmol/L","value":105.07408962794229}}},{"resource":{"category":[{"coding":[{"code":"laboratory","display":"laboratory","system":"http://hl7.org/fhir/observation-category"}]}],"code":{"coding":[{"code":"6690-2","display":"Leukocytes [#/volume] in Blood by Automated count","system":"http://loinc.org"}],"text":"Leukocytes [#/volume] in Blood by Automated count"},"context":{"reference":"Encounter/bf5204aa-840f-457f-888a-ddae97af5328"},"effectiveDateTime":"2009-04-10T02:15:31-04:00","id":"0746d63d-911b-4b5f-9598-e36c5e289614","issued":"2009-04-10T02:15:31.730-04:00","meta":{"lastUpdated":"2019-04-09T10:25:20.838046+00:00","versionId":"MTU1NDgwNTUyMDgzODA0NjAwMA"},"resourceType":"Observation","status":"final","subject":{"reference":"Patient/00b8a693-5217-45fa-8e09-f60f93fe6ae9"},"valueQuantity":{"code":"10*3/uL","system":"http://unitsofmeasure.org","unit":"10*3/uL","value":8.767318899735237}}},{"resource":{"category":[{"coding":[{"code":"survey","display":"survey","system":"http://hl7.org/fhir/observation-category"}]}],"code":{"coding":[{"code":"72166-2","display":"Tobacco smoking status NHIS","system":"http://loinc.org"}],"text":"Tobacco smoking status NHIS"},"context":{"reference":"Encounter/01332d05-2e28-4d29-9b5f-a53e86b2554b"},"effectiveDateTime":"2014-05-09T02:15:31-04:00","id":"07598c51-c91c-413b-8e1a-587e45302088","issued":"2014-05-09T02:15:31.730-04:00","meta":{"lastUpdated":"2019-04-09T10:25:22.866650+00:00","versionId":"MTU1NDgwNTUyMjg2NjY1MDAwMA"},"resourceType":"Observation","status":"final","subject":{"reference":"Patient/00b8a693-5217-45fa-8e09-f60f93fe6ae9"},"valueCodeableConcept":{"coding":[{"code":"266919005","display":"Never smoker","system":"http://snomed.info/sct"}],"text":"Never smoker"}}},{"resource":{"category":[{"coding":[{"code":"laboratory","display":"laboratory","system":"http://hl7.org/fhir/observation-category"}]}],"code":{"coding":[{"code":"6690-2","display":"Leukocytes [#/volume] in Blood by Automated count","system":"http://loinc.org"}],"text":"Leukocytes [#/volume] in Blood by Automated count"},"context":{"reference":"Encounter/01332d05-2e28-4d29-9b5f-a53e86b2554b"},"effectiveDateTime":"2014-05-09T02:15:31-04:00","id":"0996319d-d5ac-4bab-a3bf-7a3d555f29a1","issued":"2014-05-09T02:15:31.730-04:00","meta":{"lastUpdated":"2019-04-09T10:25:22.869823+00:00","versionId":"MTU1NDgwNTUyMjg2OTgyMzAwMA"},"resourceType":"Observation","status":"final","subject":{"reference":"Patient/00b8a693-5217-45fa-8e09-f60f93fe6ae9"},"valueQuantity":{"code":"10*3/uL","system":"http://unitsofmeasure.org","unit":"10*3/uL","value":8.396764450390425}}},{"resource":{"category":[{"coding":[{"code":"laboratory","display":"laboratory","system":"http://hl7.org/fhir/observation-category"}]}],"code":{"coding":[{"code":"18262-6","display":"Low Density Lipoprotein Cholesterol","system":"http://loinc.org"}],"text":"Low Density Lipoprotein Cholesterol"},"context":{"reference":"Encounter/f3d42ecc-45e7-42b7-8daa-ccff2dacdebb"},"effectiveDateTime":"2017-05-29T02:15:31-04:00","id":"0a4079f2-222f-4b0f-9cfd-36e9b4a0c020","issued":"2017-05-29T02:15:31.730-04:00","meta":{"lastUpdated":"2019-04-09T10:25:24.909287+00:00","versionId":"MTU1NDgwNTUyNDkwOTI4NzAwMA"},"resourceType":"Observation","status":"final","subject":{"reference":"Patient/00b8a693-5217-45fa-8e09-f60f93fe6ae9"},"valueQuantity":{"code":"mg/dL","system":"http://unitsofmeasure.org","unit":"mg/dL","value":100.63139848164036}}},{"resource":{"category":[{"coding":[{"code":"laboratory","display":"laboratory","system":"http://hl7.org/fhir/observation-category"}]}],"code":{"coding":[{"code":"6298-4","display":"Potassium","system":"http://loinc.org"}],"text":"Potassium"},"context":{"reference":"Encounter/e5bf14d7-90f8-4165-9225-6588fa8f4ed5"},"effectiveDateTime":"2016-05-20T02:15:31-04:00","id":"0a5991a0-80b9-4415-abc7-75ca03391fb3","issued":"2016-05-20T02:15:31.730-04:00","meta":{"lastUpdated":"2019-04-09T10:25:23.870989+00:00","versionId":"MTU1NDgwNTUyMzg3MDk4OTAwMA"},"resourceType":"Observation","status":"final","subject":{"reference":"Patient/00b8a693-5217-45fa-8e09-f60f93fe6ae9"},"valueQuantity":{"code":"mmol/L","system":"http://unitsofmeasure.org","unit":"mmol/L","value":4.761213712195609}}},{"resource":{"category":[{"coding":[{"code":"laboratory","display":"laboratory","system":"http://hl7.org/fhir/observation-category"}]}],"code":{"coding":[{"code":"20565-8","display":"Carbon Dioxide","system":"http://loinc.org"}],"text":"Carbon Dioxide"},"context":{"reference":"Encounter/f908a71b-861e-4408-a044-76e932d5faee"},"effectiveDateTime":"2015-05-30T02:15:31-04:00","id":"0b522495-3757-4190-8492-f1395f791967","issued":"2015-05-30T02:15:31.730-04:00","meta":{"lastUpdated":"2019-04-09T10:25:23.867305+00:00","versionId":"MTU1NDgwNTUyMzg2NzMwNTAwMA"},"resourceType":"Observation","status":"final","subject":{"reference":"Patient/00b8a693-5217-45fa-8e09-f60f93fe6ae9"},"valueQuantity":{"code":"mmol/L","system":"http://unitsofmeasure.org","unit":"mmol/L","value":25.517759564659524}}},{"resource":{"category":[{"coding":[{"code":"laboratory","display":"laboratory","system":"http://hl7.org/fhir/observation-category"}]}],"code":{"coding":[{"code":"2947-0","display":"Sodium","system":"http://loinc.org"}],"text":"Sodium"},"context":{"reference":"Encounter/c5f52d6c-5020-4f78-bd64-905afb2c2b7c"},"effectiveDateTime":"2011-04-22T02:15:31-04:00","id":"0bb36ecd-e179-4ad0-b921-364b5965ae88","issued":"2011-04-22T02:15:31.730-04:00","meta":{"lastUpdated":"2019-04-09T10:25:21.834472+00:00","versionId":"MTU1NDgwNTUyMTgzNDQ3MjAwMA"},"resourceType":"Observation","status":"final","subject":{"reference":"Patient/00b8a693-5217-45fa-8e09-f60f93fe6ae9"},"valueQuantity":{"code":"mmol/L","system":"http://unitsofmeasure.org","unit":"mmol/L","value":141.60828449090306}}},{"resource":{"category":[{"coding":[{"code":"laboratory","display":"laboratory","system":"http://hl7.org/fhir/observation-category"}]}],"code":{"coding":[{"code":"49765-1","display":"Calcium","system":"http://loinc.org"}],"text":"Calcium"},"context":{"reference":"Encounter/1a7038cd-8888-4b97-b3a2-83b13e6dc1c8"},"effectiveDateTime":"2017-05-26T02:15:31-04:00","id":"0c6b620c-48de-4320-9a99-fbf7c0479906","issued":"2017-05-26T02:15:31.730-04:00","meta":{"lastUpdated":"2019-04-09T10:25:23.872526+00:00","versionId":"MTU1NDgwNTUyMzg3MjUyNjAwMA"},"resourceType":"Observation","status":"final","subject":{"reference":"Patient/00b8a693-5217-45fa-8e09-f60f93fe6ae9"},"valueQuantity":{"code":"mg/dL","system":"http://unitsofmeasure.org","unit":"mg/dL","value":9.785177507454632}}},{"resource":{"category":[{"coding":[{"code":"laboratory","display":"laboratory","system":"http://hl7.org/fhir/observation-category"}]}],"code":{"coding":[{"code":"6299-2","display":"Urea Nitrogen","system":"http://loinc.org"}],"text":"Urea Nitrogen"},"context":{"reference":"Encounter/01332d05-2e28-4d29-9b5f-a53e86b2554b"},"effectiveDateTime":"2014-05-09T02:15:31-04:00","id":"0d571983-57f3-4825-a856-47cb26fd7c3e","issued":"2014-05-09T02:15:31.730-04:00","meta":{"lastUpdated":"2019-04-09T10:25:22.865004+00:00","versionId":"MTU1NDgwNTUyMjg2NTAwNDAwMA"},"resourceType":"Observation","status":"final","subject":{"reference":"Patient/00b8a693-5217-45fa-8e09-f60f93fe6ae9"},"valueQuantity":{"code":"mg/dL","system":"http://unitsofmeasure.org","unit":"mg/dL","value":16.092312906577348}}},{"resource":{"category":[{"coding":[{"code":"laboratory","display":"laboratory","system":"http://hl7.org/fhir/observation-category"}]}],"code":{"coding":[{"code":"2339-0","display":"Glucose","system":"http://loinc.org"}],"text":"Glucose"},"context":{"reference":"Encounter/c5f52d6c-5020-4f78-bd64-905afb2c2b7c"},"effectiveDateTime":"2011-04-22T02:15:31-04:00","id":"0d8ba809-3ace-499e-a9e2-c8158c86bd06","issued":"2011-04-22T02:15:31.730-04:00","meta":{"lastUpdated":"2019-04-09T10:25:21.834471+00:00","versionId":"MTU1NDgwNTUyMTgzNDQ3MTAwMA"},"resourceType":"Observation","status":"final","subject":{"reference":"Patient/00b8a693-5217-45fa-8e09-f60f93fe6ae9"},"valueQuantity":{"code":"mg/dL","system":"http://unitsofmeasure.org","unit":"mg/dL","value":85.34423100035923}}},{"resource":{"category":[{"coding":[{"code":"laboratory","display":"laboratory","system":"http://hl7.org/fhir/observation-category"}]}],"code":{"coding":[{"code":"20565-8","display":"Carbon Dioxide","system":"http://loinc.org"}],"text":"Carbon Dioxide"},"context":{"reference":"Encounter/03df893a-29c9-4a97-ba0c-bc8bb083e9d4"},"effectiveDateTime":"2015-05-15T02:15:31-04:00","id":"10fa4d55-4ac1-4b84-836c-4256e8d5c2c5","issued":"2015-05-15T02:15:31.730-04:00","meta":{"lastUpdated":"2019-04-09T10:25:22.863278+00:00","versionId":"MTU1NDgwNTUyMjg2MzI3ODAwMA"},"resourceType":"Observation","status":"final","subject":{"reference":"Patient/00b8a693-5217-45fa-8e09-f60f93fe6ae9"},"valueQuantity":{"code":"mmol/L","system":"http://unitsofmeasure.org","unit":"mmol/L","value":25.495434225938947}}},{"resource":{"category":[{"coding":[{"code":"laboratory","display":"laboratory","system":"http://hl7.org/fhir/observation-category"}]}],"code":{"coding":[{"code":"33914-3","display":"Estimated Glomerular Filtration Rate","system":"http://loinc.org"}],"text":"Estimated Glomerular Filtration Rate"},"context":{"reference":"Encounter/0be9f9db-9855-49b7-b5cb-7c92b2eb3963"},"effectiveDateTime":"2013-05-03T02:15:31-04:00","id":"1232f1cf-9612-4d33-a3f5-3b95fe4b14e2","issued":"2013-05-03T02:15:31.730-04:00","meta":{"lastUpdated":"2019-04-09T10:25:22.865119+00:00","versionId":"MTU1NDgwNTUyMjg2NTExOTAwMA"},"resourceType":"Observation","status":"final","subject":{"reference":"Patient/00b8a693-5217-45fa-8e09-f60f93fe6ae9"},"valueQuantity":{"code":"mL/min/{1.73_m2}","system":"http://unitsofmeasure.org","unit":"mL/min/{1.73_m2}","value":84.99240929025075}}},{"resource":{"category":[{"coding":[{"code":"laboratory","display":"laboratory","system":"http://hl7.org/fhir/observation-category"}]}],"code":{"coding":[{"code":"49765-1","display":"Calcium","system":"http://loinc.org"}],"text":"Calcium"},"context":{"reference":"Encounter/f908a71b-861e-4408-a044-76e932d5faee"},"effectiveDateTime":"2015-05-30T02:15:31-04:00","id":"1261a652-4766-4705-970a-2827a85f2cb8","issued":"2015-05-30T02:15:31.730-04:00","meta":{"lastUpdated":"2019-04-09T10:25:22.862450+00:00","versionId":"MTU1NDgwNTUyMjg2MjQ1MDAwMA"},"resourceType":"Observation","status":"final","subject":{"reference":"Patient/00b8a693-5217-45fa-8e09-f60f93fe6ae9"},"valueQuantity":{"code":"mg/dL","system":"http://unitsofmeasure.org","unit":"mg/dL","value":10.071577075652476}}},{"resource":{"category":[{"coding":[{"code":"laboratory","display":"laboratory","system":"http://hl7.org/fhir/observation-category"}]}],"code":{"coding":[{"code":"33914-3","display":"Estimated Glomerular Filtration Rate","system":"http://loinc.org"}],"text":"Estimated Glomerular Filtration Rate"},"context":{"reference":"Encounter/dcb03c76-500c-428f-a34b-32a9661d62f3"},"effectiveDateTime":"2010-04-16T02:15:31-04:00","id":"12c299fb-4833-4ee5-8761-a697364102aa","issued":"2010-04-16T02:15:31.730-04:00","meta":{"lastUpdated":"2019-04-09T10:25:21.822774+00:00","versionId":"MTU1NDgwNTUyMTgyMjc3NDAwMA"},"resourceType":"Observation","status":"final","subject":{"reference":"Patient/00b8a693-5217-45fa-8e09-f60f93fe6ae9"},"valueQuantity":{"code":"mL/min/{1.73_m2}","system":"http://unitsofmeasure.org","unit":"mL/min/{1.73_m2}","value":108.48356005161281}}},{"resource":{"category":[{"coding":[{"code":"laboratory","display":"laboratory","system":"http://hl7.org/fhir/observation-category"}]}],"code":{"coding":[{"code":"20565-8","display":"Carbon Dioxide","system":"http://loinc.org"}],"text":"Carbon Dioxide"},"context":{"reference":"Encounter/dcb03c76-500c-428f-a34b-32a9661d62f3"},"effectiveDateTime":"2010-04-16T02:15:31-04:00","id":"134a1c3f-cb0e-439f-a204-08e505c33d62","issued":"2010-04-16T02:15:31.730-04:00","meta":{"lastUpdated":"2019-04-09T10:25:21.822778+00:00","versionId":"MTU1NDgwNTUyMTgyMjc3ODAwMA"},"resourceType":"Observation","status":"final","subject":{"reference":"Patient/00b8a693-5217-45fa-8e09-f60f93fe6ae9"},"valueQuantity":{"code":"mmol/L","system":"http://unitsofmeasure.org","unit":"mmol/L","value":24.570907786732924}}},{"resource":{"category":[{"coding":[{"code":"laboratory","display":"laboratory","system":"http://hl7.org/fhir/observation-category"}]}],"code":{"coding":[{"code":"33914-3","display":"Glomerular filtration rate/1.73 sq M.predicted","system":"http://loinc.org"}],"text":"Glomerular filtration rate/1.73 sq M.predicted"},"context":{"reference":"Encounter/01332d05-2e28-4d29-9b5f-a53e86b2554b"},"effectiveDateTime":"2014-05-09T02:15:31-04:00","id":"1360a4e5-5041-46e4-a89a-60a2503782ca","issued":"2014-05-09T02:15:31.730-04:00","meta":{"lastUpdated":"2019-04-09T10:25:22.865593+00:00","versionId":"MTU1NDgwNTUyMjg2NTU5MzAwMA"},"resourceType":"Observation","status":"final","subject":{"reference":"Patient/00b8a693-5217-45fa-8e09-f60f93fe6ae9"},"valueQuantity":{"code":"mL/min","system":"http://unitsofmeasure.org","unit":"mL/min","value":65.79256170300249}}},{"resource":{"category":[{"coding":[{"code":"laboratory","display":"laboratory","system":"http://hl7.org/fhir/observation-category"}]}],"code":{"coding":[{"code":"718-7","display":"Hemoglobin [Mass/volume] in Blood","system":"http://loinc.org"}],"text":"Hemoglobin [Mass/volume] in Blood"},"context":{"reference":"Encounter/bf5204aa-840f-457f-888a-ddae97af5328"},"effectiveDateTime":"2009-04-10T02:15:31-04:00","id":"1361757a-b259-4936-afc7-efa27fc912d4","issued":"2009-04-10T02:15:31.730-04:00","meta":{"lastUpdated":"2019-04-09T10:25:20.815246+00:00","versionId":"MTU1NDgwNTUyMDgxNTI0NjAwMA"},"resourceType":"Observation","status":"final","subject":{"reference":"Patient/00b8a693-5217-45fa-8e09-f60f93fe6ae9"},"valueQuantity":{"code":"g/dL","system":"http://unitsofmeasure.org","unit":"g/dL","value":14.833495659278451}}},{"resource":{"category":[{"coding":[{"code":"laboratory","display":"laboratory","system":"http://hl7.org/fhir/observation-category"}]}],"code":{"coding":[{"code":"2085-9","display":"High Density Lipoprotein Cholesterol","system":"http://loinc.org"}],"text":"High Density Lipoprotein Cholesterol"},"context":{"reference":"Encounter/dcb03c76-500c-428f-a34b-32a9661d62f3"},"effectiveDateTime":"2010-04-16T02:15:31-04:00","id":"154d68ba-5319-49ba-98aa-61ee04d45881","issued":"2010-04-16T02:15:31.730-04:00","meta":{"lastUpdated":"2019-04-09T10:25:21.822779+00:00","versionId":"MTU1NDgwNTUyMTgyMjc3OTAwMA"},"resourceType":"Observation","status":"final","subject":{"reference":"Patient/00b8a693-5217-45fa-8e09-f60f93fe6ae9"},"valueQuantity":{"code":"mg/dL","system":"http://unitsofmeasure.org","unit":"mg/dL","value":59.31537805971754}}},{"resource":{"category":[{"coding":[{"code":"laboratory","display":"laboratory","system":"http://hl7.org/fhir/observation-category"}]}],"code":{"coding":[{"code":"2947-0","display":"Sodium","system":"http://loinc.org"}],"text":"Sodium"},"context":{"reference":"Encounter/f908a71b-861e-4408-a044-76e932d5faee"},"effectiveDateTime":"2015-05-30T02:15:31-04:00","id":"15d44541-a423-477b-83b0-51d5998e26d7","issued":"2015-05-30T02:15:31.730-04:00","meta":{"lastUpdated":"2019-04-09T10:25:22.865270+00:00","versionId":"MTU1NDgwNTUyMjg2NTI3MDAwMA"},"resourceType":"Observation","status":"final","subject":{"reference":"Patient/00b8a693-5217-45fa-8e09-f60f93fe6ae9"},"valueQuantity":{"code":"mmol/L","system":"http://unitsofmeasure.org","unit":"mmol/L","value":140.64982193168933}}},{"resource":{"category":[{"coding":[{"code":"laboratory","display":"laboratory","system":"http://hl7.org/fhir/observation-category"}]}],"code":{"coding":[{"code":"38483-4","display":"Creatinine","system":"http://loinc.org"}],"text":"Creatinine"},"context":{"reference":"Encounter/03df893a-29c9-4a97-ba0c-bc8bb083e9d4"},"effectiveDateTime":"2015-05-15T02:15:31-04:00","id":"17048ea2-bf30-4628-b3fe-b0f90edd3d18","issued":"2015-05-15T02:15:31.730-04:00","meta":{"lastUpdated":"2019-04-09T10:25:22.869810+00:00","versionId":"MTU1NDgwNTUyMjg2OTgxMDAwMA"},"resourceType":"Observation","status":"final","subject":{"reference":"Patient/00b8a693-5217-45fa-8e09-f60f93fe6ae9"},"valueQuantity":{"code":"mg/dL","system":"http://unitsofmeasure.org","unit":"mg/dL","value":0.9084618793398375}}},{"resource":{"category":[{"coding":[{"code":"laboratory","display":"laboratory","system":"http://hl7.org/fhir/observation-category"}]}],"code":{"coding":[{"code":"38483-4","display":"Creatinine","system":"http://loinc.org"}],"text":"Creatinine"},"context":{"reference":"Encounter/e0d43b03-41e6-468b-993a-9d795c94420a"},"effectiveDateTime":"2018-05-29T02:15:31-04:00","id":"1807ea97-3a5b-4438-bbf4-b0d135aa2557","issued":"2018-05-29T02:15:31.730-04:00","meta":{"lastUpdated":"2019-04-09T10:25:24.925506+00:00","versionId":"MTU1NDgwNTUyNDkyNTUwNjAwMA"},"resourceType":"Observation","status":"final","subject":{"reference":"Patient/00b8a693-5217-45fa-8e09-f60f93fe6ae9"},"valueQuantity":{"code":"mg/dL","system":"http://unitsofmeasure.org","unit":"mg/dL","value":2.953028037281791}}},{"resource":{"category":[{"coding":[{"code":"laboratory","display":"laboratory","system":"http://hl7.org/fhir/observation-category"}]}],"code":{"coding":[{"code":"2947-0","display":"Sodium","system":"http://loinc.org"}],"text":"Sodium"},"context":{"reference":"Encounter/1a7038cd-8888-4b97-b3a2-83b13e6dc1c8"},"effectiveDateTime":"2017-05-26T02:15:31-04:00","id":"18fd64c6-70c2-4d1f-bf5b-9bad78f7e705","issued":"2017-05-26T02:15:31.730-04:00","meta":{"lastUpdated":"2019-04-09T10:25:23.876378+00:00","versionId":"MTU1NDgwNTUyMzg3NjM3ODAwMA"},"resourceType":"Observation","status":"final","subject":{"reference":"Patient/00b8a693-5217-45fa-8e09-f60f93fe6ae9"},"valueQuantity":{"code":"mmol/L","system":"http://unitsofmeasure.org","unit":"mmol/L","value":142.66829682633409}}},{"resource":{"category":[{"coding":[{"code":"vital-signs","display":"vital-signs","system":"http://hl7.org/fhir/observation-category"}]}],"code":{"coding":[{"code":"72514-3","display":"Pain severity - 0-10 verbal numeric rating [Score] - Reported","system":"http://loinc.org"}],"text":"Pain severity - 0-10 verbal numeric rating [Score] - Reported"},"context":{"reference":"Encounter/03df893a-29c9-4a97-ba0c-bc8bb083e9d4"},"effectiveDateTime":"2015-05-15T02:15:31-04:00","id":"194f18d5-fb91-4de7-8830-5f994e900407","issued":"2015-05-15T02:15:31.730-04:00","meta":{"lastUpdated":"2019-04-09T10:25:22.865578+00:00","versionId":"MTU1NDgwNTUyMjg2NTU3ODAwMA"},"resourceType":"Observation","status":"final","subject":{"reference":"Patient/00b8a693-5217-45fa-8e09-f60f93fe6ae9"},"valueQuantity":{"code":"{score}","system":"http://unitsofmeasure.org","unit":"{score}","value":0.6540211063501351}}},{"resource":{"category":[{"coding":[{"code":"vital-signs","display":"vital-signs","system":"http://hl7.org/fhir/observation-category"}]}],"code":{"coding":[{"code":"8302-2","display":"Body Height","system":"http://loinc.org"}],"text":"Body Height"},"context":{"reference":"Encounter/e5bf14d7-90f8-4165-9225-6588fa8f4ed5"},"effectiveDateTime":"2016-05-20T02:15:31-04:00","id":"1a40a60c-1b74-4c20-aed4-ae26504397bb","issued":"2016-05-20T02:15:31.730-04:00","meta":{"lastUpdated":"2019-04-09T10:25:23.870811+00:00","versionId":"MTU1NDgwNTUyMzg3MDgxMTAwMA"},"resourceType":"Observation","status":"final","subject":{"reference":"Patient/00b8a693-5217-45fa-8e09-f60f93fe6ae9"},"valueQuantity":{"code":"cm","system":"http://unitsofmeasure.org","unit":"cm","value":171.21303748330445}}},{"resource":{"category":[{"coding":[{"code":"laboratory","display":"laboratory","system":"http://hl7.org/fhir/observation-category"}]}],"code":{"coding":[{"code":"2069-3","display":"Chloride","system":"http://loinc.org"}],"text":"Chloride"},"context":{"reference":"Encounter/5914c664-5e5f-4396-844c-07a5c21e651a"},"effectiveDateTime":"2012-04-27T02:15:31-04:00","id":"1a92c1d7-7fdf-4a57-9545-0f5b26de2324","issued":"2012-04-27T02:15:31.730-04:00","meta":{"lastUpdated":"2019-04-09T10:25:21.828954+00:00","versionId":"MTU1NDgwNTUyMTgyODk1NDAwMA"},"resourceType":"Observation","status":"final","subject":{"reference":"Patient/00b8a693-5217-45fa-8e09-f60f93fe6ae9"},"valueQuantity":{"code":"mmol/L","system":"http://unitsofmeasure.org","unit":"mmol/L","value":101.01685367073989}}},{"resource":{"category":[{"coding":[{"code":"laboratory","display":"laboratory","system":"http://hl7.org/fhir/observation-category"}]}],"code":{"coding":[{"code":"2085-9","display":"High Density Lipoprotein Cholesterol","system":"http://loinc.org"}],"text":"High Density Lipoprotein Cholesterol"},"context":{"reference":"Encounter/e0d43b03-41e6-468b-993a-9d795c94420a"},"effectiveDateTime":"2018-05-29T02:15:31-04:00","id":"1ad2af36-cc4f-4d91-828c-a92f24ce2e25","issued":"2018-05-29T02:15:31.730-04:00","meta":{"lastUpdated":"2019-04-09T10:25:24.933145+00:00","versionId":"MTU1NDgwNTUyNDkzMzE0NTAwMA"},"resourceType":"Observation","status":"final","subject":{"reference":"Patient/00b8a693-5217-45fa-8e09-f60f93fe6ae9"},"valueQuantity":{"code":"mg/dL","system":"http://unitsofmeasure.org","unit":"mg/dL","value":61.07600655981075}}},{"resource":{"category":[{"coding":[{"code":"laboratory","display":"laboratory","system":"http://hl7.org/fhir/observation-category"}]}],"code":{"coding":[{"code":"6299-2","display":"Urea Nitrogen","system":"http://loinc.org"}],"text":"Urea Nitrogen"},"context":{"reference":"Encounter/13bfc110-a8bb-422a-9fa6-b03527f2d02c"},"effectiveDateTime":"2016-05-29T02:15:31-04:00","id":"1afe2aad-158e-4ba8-a1c0-a1c60bf51f31","issued":"2016-05-29T02:15:31.730-04:00","meta":{"lastUpdated":"2019-04-09T10:25:23.871745+00:00","versionId":"MTU1NDgwNTUyMzg3MTc0NTAwMA"},"resourceType":"Observation","status":"final","subject":{"reference":"Patient/00b8a693-5217-45fa-8e09-f60f93fe6ae9"},"valueQuantity":{"code":"mg/dL","system":"http://unitsofmeasure.org","unit":"mg/dL","value":19.17562289575052}}},{"resource":{"category":[{"coding":[{"code":"laboratory","display":"laboratory","system":"http://hl7.org/fhir/observation-category"}]}],"code":{"coding":[{"code":"1751-7","display":"Albumin [Mass/volume] in Serum or Plasma","system":"http://loinc.org"}],"text":"Albumin [Mass/volume] in Serum or Plasma"},"context":{"reference":"Encounter/f908a71b-861e-4408-a044-76e932d5faee"},"effectiveDateTime":"2015-05-30T02:15:31-04:00","id":"1b28d858-3d4e-41d7-8051-59ec60a1c956","issued":"2015-05-30T02:15:31.730-04:00","meta":{"lastUpdated":"2019-04-09T10:25:23.867306+00:00","versionId":"MTU1NDgwNTUyMzg2NzMwNjAwMA"},"resourceType":"Observation","status":"final","subject":{"reference":"Patient/00b8a693-5217-45fa-8e09-f60f93fe6ae9"},"valueQuantity":{"code":"g/dL","system":"http://unitsofmeasure.org","unit":"g/dL","value":4.375589878564654}}},{"resource":{"category":[{"coding":[{"code":"laboratory","display":"laboratory","system":"http://hl7.org/fhir/observation-category"}]}],"code":{"coding":[{"code":"49765-1","display":"Calcium","system":"http://loinc.org"}],"text":"Calcium"},"context":{"reference":"Encounter/bf5204aa-840f-457f-888a-ddae97af5328"},"effectiveDateTime":"2009-04-10T02:15:31-04:00","id":"1b899a24-8f5a-46e1-8ac2-feb438eeda42","issued":"2009-04-10T02:15:31.730-04:00","meta":{"lastUpdated":"2019-04-09T10:25:20.807658+00:00","versionId":"MTU1NDgwNTUyMDgwNzY1ODAwMA"},"resourceType":"Observation","status":"final","subject":{"reference":"Patient/00b8a693-5217-45fa-8e09-f60f93fe6ae9"},"valueQuantity":{"code":"mg/dL","system":"http://unitsofmeasure.org","unit":"mg/dL","value":8.872715789447852}}},{"resource":{"category":[{"coding":[{"code":"laboratory","display":"laboratory","system":"http://hl7.org/fhir/observation-category"}]}],"code":{"coding":[{"code":"4548-4","display":"Hemoglobin A1c/Hemoglobin.total in Blood","system":"http://loinc.org"}],"text":"Hemoglobin A1c/Hemoglobin.total in Blood"},"context":{"reference":"Encounter/5914c664-5e5f-4396-844c-07a5c21e651a"},"effectiveDateTime":"2012-04-27T02:15:31-04:00","id":"1d04c6ce-60bb-418c-adcd-dbc34afa5cd6","issued":"2012-04-27T02:15:31.730-04:00","meta":{"lastUpdated":"2019-04-09T10:25:21.818093+00:00","versionId":"MTU1NDgwNTUyMTgxODA5MzAwMA"},"resourceType":"Observation","status":"final","subject":{"reference":"Patient/00b8a693-5217-45fa-8e09-f60f93fe6ae9"},"valueQuantity":{"code":"%","system":"http://unitsofmeasure.org","unit":"%","value":6.254030756278803}}},{"resource":{"category":[{"coding":[{"code":"laboratory","display":"laboratory","system":"http://hl7.org/fhir/observation-category"}]}],"code":{"coding":[{"code":"20565-8","display":"Carbon Dioxide","system":"http://loinc.org"}],"text":"Carbon Dioxide"},"context":{"reference":"Encounter/01332d05-2e28-4d29-9b5f-a53e86b2554b"},"effectiveDateTime":"2014-05-09T02:15:31-04:00","id":"1f3b1362-673a-4862-9b99-9490032cfd14","issued":"2014-05-09T02:15:31.730-04:00","meta":{"lastUpdated":"2019-04-09T10:25:22.863283+00:00","versionId":"MTU1NDgwNTUyMjg2MzI4MzAwMA"},"resourceType":"Observation","status":"final","subject":{"reference":"Patient/00b8a693-5217-45fa-8e09-f60f93fe6ae9"},"valueQuantity":{"code":"mmol/L","system":"http://unitsofmeasure.org","unit":"mmol/L","value":28.754883017427066}}},{"resource":{"category":[{"coding":[{"code":"laboratory","display":"laboratory","system":"http://hl7.org/fhir/observation-category"}]}],"code":{"coding":[{"code":"4544-3","display":"Hematocrit [Volume Fraction] of Blood by Automated count","system":"http://loinc.org"}],"text":"Hematocrit [Volume Fraction] of Blood by Automated count"},"context":{"reference":"Encounter/bf5204aa-840f-457f-888a-ddae97af5328"},"effectiveDateTime":"2009-04-10T02:15:31-04:00","id":"2074a7c0-be66-4ed5-8cda-fda9f64d4a0c","issued":"2009-04-10T02:15:31.730-04:00","meta":{"lastUpdated":"2019-04-09T10:25:20.810723+00:00","versionId":"MTU1NDgwNTUyMDgxMDcyMzAwMA"},"resourceType":"Observation","status":"final","subject":{"reference":"Patient/00b8a693-5217-45fa-8e09-f60f93fe6ae9"},"valueQuantity":{"code":"%","system":"http://unitsofmeasure.org","unit":"%","value":38.364951967172225}}},{"resource":{"category":[{"coding":[{"code":"vital-signs","display":"vital-signs","system":"http://hl7.org/fhir/observation-category"}]}],"code":{"coding":[{"code":"72514-3","display":"Pain severity - 0-10 verbal numeric rating [Score] - Reported","system":"http://loinc.org"}],"text":"Pain severity - 0-10 verbal numeric rating [Score] - Reported"},"context":{"reference":"Encounter/c5f52d6c-5020-4f78-bd64-905afb2c2b7c"},"effectiveDateTime":"2011-04-22T02:15:31-04:00","id":"21666080-9b17-4e96-bb2d-7e05cb75af0a","issued":"2011-04-22T02:15:31.730-04:00","meta":{"lastUpdated":"2019-04-09T10:25:21.827471+00:00","versionId":"MTU1NDgwNTUyMTgyNzQ3MTAwMA"},"resourceType":"Observation","status":"final","subject":{"reference":"Patient/00b8a693-5217-45fa-8e09-f60f93fe6ae9"},"valueQuantity":{"code":"{score}","system":"http://unitsofmeasure.org","unit":"{score}","value":0.07993160571716729}}},{"resource":{"category":[{"coding":[{"code":"laboratory","display":"laboratory","system":"http://hl7.org/fhir/observation-category"}]}],"code":{"coding":[{"code":"789-8","display":"Erythrocytes [#/volume] in Blood by Automated count","system":"http://loinc.org"}],"text":"Erythrocytes [#/volume] in Blood by Automated count"},"context":{"reference":"Encounter/01332d05-2e28-4d29-9b5f-a53e86b2554b"},"effectiveDateTime":"2014-05-09T02:15:31-04:00","id":"21b5c3d7-bfd6-48fc-ac1c-7cc458ecd9b9","issued":"2014-05-09T02:15:31.730-04:00","meta":{"lastUpdated":"2019-04-09T10:25:22.869817+00:00","versionId":"MTU1NDgwNTUyMjg2OTgxNzAwMA"},"resourceType":"Observation","status":"final","subject":{"reference":"Patient/00b8a693-5217-45fa-8e09-f60f93fe6ae9"},"valueQuantity":{"code":"10*6/uL","system":"http://unitsofmeasure.org","unit":"10*6/uL","value":4.757969200074299}}},{"resource":{"category":[{"coding":[{"code":"vital-signs","display":"vital-signs","system":"http://hl7.org/fhir/observation-category"}]}],"code":{"coding":[{"code":"55284-4","display":"Blood Pressure","system":"http://loinc.org"}],"text":"Blood Pressure"},"component":[{"code":{"coding":[{"code":"8462-4","display":"Diastolic Blood Pressure","system":"http://loinc.org"}],"text":"Diastolic Blood Pressure"},"valueQuantity":{"code":"mmHg","system":"http://unitsofmeasure.org","unit":"mmHg","value":109.35553250664518}},{"code":{"coding":[{"code":"8480-6","display":"Systolic Blood Pressure","system":"http://loinc.org"}],"text":"Systolic Blood Pressure"},"valueQuantity":{"code":"mmHg","system":"http://unitsofmeasure.org","unit":"mmHg","value":192.54492701690071}}],"context":{"reference":"Encounter/1a7038cd-8888-4b97-b3a2-83b13e6dc1c8"},"effectiveDateTime":"2017-05-26T02:15:31-04:00","id":"23b32b58-b9e8-4b5c-9b6c-3df6149e8d7b","issued":"2017-05-26T02:15:31.730-04:00","meta":{"lastUpdated":"2019-04-09T10:25:23.875797+00:00","versionId":"MTU1NDgwNTUyMzg3NTc5NzAwMA"},"resourceType":"Observation","status":"final","subject":{"reference":"Patient/00b8a693-5217-45fa-8e09-f60f93fe6ae9"}}},{"resource":{"category":[{"coding":[{"code":"laboratory","display":"laboratory","system":"http://hl7.org/fhir/observation-category"}]}],"code":{"coding":[{"code":"2339-0","display":"Glucose","system":"http://loinc.org"}],"text":"Glucose"},"context":{"reference":"Encounter/f908a71b-861e-4408-a044-76e932d5faee"},"effectiveDateTime":"2015-05-30T02:15:31-04:00","id":"24c62dbb-78dc-4fc3-9ef4-c27cfaab9eb9","issued":"2015-05-30T02:15:31.730-04:00","meta":{"lastUpdated":"2019-04-09T10:25:22.862448+00:00","versionId":"MTU1NDgwNTUyMjg2MjQ0ODAwMA"},"resourceType":"Observation","status":"final","subject":{"reference":"Patient/00b8a693-5217-45fa-8e09-f60f93fe6ae9"},"valueQuantity":{"code":"mg/dL","system":"http://unitsofmeasure.org","unit":"mg/dL","value":79.84412175958377}}},{"resource":{"category":[{"coding":[{"code":"laboratory","display":"laboratory","system":"http://hl7.org/fhir/observation-category"}]}],"code":{"coding":[{"code":"20565-8","display":"Carbon Dioxide","system":"http://loinc.org"}],"text":"Carbon Dioxide"},"context":{"reference":"Encounter/c5f52d6c-5020-4f78-bd64-905afb2c2b7c"},"effectiveDateTime":"2011-04-22T02:15:31-04:00","id":"252e0e6b-82aa-4452-b5c4-40f52090a59a","issued":"2011-04-22T02:15:31.730-04:00","meta":{"lastUpdated":"2019-04-09T10:25:21.830333+00:00","versionId":"MTU1NDgwNTUyMTgzMDMzMzAwMA"},"resourceType":"Observation","status":"final","subject":{"reference":"Patient/00b8a693-5217-45fa-8e09-f60f93fe6ae9"},"valueQuantity":{"code":"mmol/L","system":"http://unitsofmeasure.org","unit":"mmol/L","value":23.751745190907265}}},{"resource":{"category":[{"coding":[{"code":"laboratory","display":"laboratory","system":"http://hl7.org/fhir/observation-category"}]}],"code":{"coding":[{"code":"6299-2","display":"Urea Nitrogen","system":"http://loinc.org"}],"text":"Urea Nitrogen"},"context":{"reference":"Encounter/5914c664-5e5f-4396-844c-07a5c21e651a"},"effectiveDateTime":"2012-04-27T02:15:31-04:00","id":"25373cb9-1360-464e-b884-786d52fc3cfb","issued":"2012-04-27T02:15:31.730-04:00","meta":{"lastUpdated":"2019-04-09T10:25:21.820362+00:00","versionId":"MTU1NDgwNTUyMTgyMDM2MjAwMA"},"resourceType":"Observation","status":"final","subject":{"reference":"Patient/00b8a693-5217-45fa-8e09-f60f93fe6ae9"},"valueQuantity":{"code":"mg/dL","system":"http://unitsofmeasure.org","unit":"mg/dL","value":18.748800532902777}}},{"resource":{"category":[{"coding":[{"code":"laboratory","display":"laboratory","system":"http://hl7.org/fhir/observation-category"}]}],"code":{"coding":[{"code":"38483-4","display":"Creatinine","system":"http://loinc.org"}],"text":"Creatinine"},"context":{"reference":"Encounter/dcb03c76-500c-428f-a34b-32a9661d62f3"},"effectiveDateTime":"2010-04-16T02:15:31-04:00","id":"29061842-b489-48a1-ac23-3e9152814e4b","issued":"2010-04-16T02:15:31.730-04:00","meta":{"lastUpdated":"2019-04-09T10:25:21.819517+00:00","versionId":"MTU1NDgwNTUyMTgxOTUxNzAwMA"},"resourceType":"Observation","status":"final","subject":{"reference":"Patient/00b8a693-5217-45fa-8e09-f60f93fe6ae9"},"valueQuantity":{"code":"mg/dL","system":"http://unitsofmeasure.org","unit":"mg/dL","value":1.0499429790994665}}},{"resource":{"category":[{"coding":[{"code":"laboratory","display":"laboratory","system":"http://hl7.org/fhir/observation-category"}]}],"code":{"coding":[{"code":"33914-3","display":"Glomerular filtration rate/1.73 sq M.predicted","system":"http://loinc.org"}],"text":"Glomerular filtration rate/1.73 sq M.predicted"},"context":{"reference":"Encounter/f908a71b-861e-4408-a044-76e932d5faee"},"effectiveDateTime":"2015-05-30T02:15:31-04:00","id":"2d1b7118-e93e-4bb9-accd-3a30bb9ee961","issued":"2015-05-30T02:15:31.730-04:00","meta":{"lastUpdated":"2019-04-09T10:25:23.863489+00:00","versionId":"MTU1NDgwNTUyMzg2MzQ4OTAwMA"},"resourceType":"Observation","status":"final","subject":{"reference":"Patient/00b8a693-5217-45fa-8e09-f60f93fe6ae9"},"valueQuantity":{"code":"mL/min","system":"http://unitsofmeasure.org","unit":"mL/min","value":69.50248193971679}}},{"resource":{"category":[{"coding":[{"code":"laboratory","display":"laboratory","system":"http://hl7.org/fhir/observation-category"}]}],"code":{"coding":[{"code":"2947-0","display":"Sodium","system":"http://loinc.org"}],"text":"Sodium"},"context":{"reference":"Encounter/d69f9b88-691d-4381-9c2a-8f4729505768"},"effectiveDateTime":"2018-06-01T02:15:31-04:00","id":"2e07291a-c559-4b49-a22d-d3afa1d94834","issued":"2018-06-01T02:15:31.730-04:00","meta":{"lastUpdated":"2019-04-09T10:25:24.910084+00:00","versionId":"MTU1NDgwNTUyNDkxMDA4NDAwMA"},"resourceType":"Observation","status":"final","subject":{"reference":"Patient/00b8a693-5217-45fa-8e09-f60f93fe6ae9"},"valueQuantity":{"code":"mmol/L","system":"http://unitsofmeasure.org","unit":"mmol/L","value":139.955707412561}}},{"resource":{"category":[{"coding":[{"code":"laboratory","display":"laboratory","system":"http://hl7.org/fhir/observation-category"}]}],"code":{"coding":[{"code":"18262-6","display":"Low Density Lipoprotein Cholesterol","system":"http://loinc.org"}],"text":"Low Density Lipoprotein Cholesterol"},"context":{"reference":"Encounter/01332d05-2e28-4d29-9b5f-a53e86b2554b"},"effectiveDateTime":"2014-05-09T02:15:31-04:00","id":"2e481121-ba25-45de-b91c-5485e231a0b5","issued":"2014-05-09T02:15:31.730-04:00","meta":{"lastUpdated":"2019-04-09T10:25:22.878253+00:00","versionId":"MTU1NDgwNTUyMjg3ODI1MzAwMA"},"resourceType":"Observation","status":"final","subject":{"reference":"Patient/00b8a693-5217-45fa-8e09-f60f93fe6ae9"},"valueQuantity":{"code":"mg/dL","system":"http://unitsofmeasure.org","unit":"mg/dL","value":104.15402971513944}}},{"resource":{"category":[{"coding":[{"code":"laboratory","display":"laboratory","system":"http://hl7.org/fhir/observation-category"}]}],"code":{"coding":[{"code":"49765-1","display":"Calcium","system":"http://loinc.org"}],"text":"Calcium"},"context":{"reference":"Encounter/0be9f9db-9855-49b7-b5cb-7c92b2eb3963"},"effectiveDateTime":"2013-05-03T02:15:31-04:00","id":"2fbb0cab-7786-47cc-b3dd-4b99304d9c6c","issued":"2013-05-03T02:15:31.730-04:00","meta":{"lastUpdated":"2019-04-09T10:25:21.823873+00:00","versionId":"MTU1NDgwNTUyMTgyMzg3MzAwMA"},"resourceType":"Observation","status":"final","subject":{"reference":"Patient/00b8a693-5217-45fa-8e09-f60f93fe6ae9"},"valueQuantity":{"code":"mg/dL","system":"http://unitsofmeasure.org","unit":"mg/dL","value":9.254555093327284}}},{"resource":{"category":[{"coding":[{"code":"laboratory","display":"laboratory","system":"http://hl7.org/fhir/observation-category"}]}],"code":{"coding":[{"code":"2947-0","display":"Sodium","system":"http://loinc.org"}],"text":"Sodium"},"context":{"reference":"Encounter/03df893a-29c9-4a97-ba0c-bc8bb083e9d4"},"effectiveDateTime":"2015-05-15T02:15:31-04:00","id":"30aed8e5-eb81-4cb4-85f2-b555507fbf1b","issued":"2015-05-15T02:15:31.730-04:00","meta":{"lastUpdated":"2019-04-09T10:25:22.865128+00:00","versionId":"MTU1NDgwNTUyMjg2NTEyODAwMA"},"resourceType":"Observation","status":"final","subject":{"reference":"Patient/00b8a693-5217-45fa-8e09-f60f93fe6ae9"},"valueQuantity":{"code":"mmol/L","system":"http://unitsofmeasure.org","unit":"mmol/L","value":138.81709933356152}}},{"resource":{"category":[{"coding":[{"code":"laboratory","display":"laboratory","system":"http://hl7.org/fhir/observation-category"}]}],"code":{"coding":[{"code":"1975-2","display":"Bilirubin.total [Mass/volume] in Serum or Plasma","system":"http://loinc.org"}],"text":"Bilirubin.total [Mass/volume] in Serum or Plasma"},"context":{"reference":"Encounter/13bfc110-a8bb-422a-9fa6-b03527f2d02c"},"effectiveDateTime":"2016-05-29T02:15:31-04:00","id":"31103456-7f15-4b03-9677-ba64bc15c182","issued":"2016-05-29T02:15:31.730-04:00","meta":{"lastUpdated":"2019-04-09T10:25:23.875804+00:00","versionId":"MTU1NDgwNTUyMzg3NTgwNDAwMA"},"resourceType":"Observation","status":"final","subject":{"reference":"Patient/00b8a693-5217-45fa-8e09-f60f93fe6ae9"},"valueQuantity":{"code":"mg/dL","system":"http://unitsofmeasure.org","unit":"mg/dL","value":0.13988461098139843}}},{"resource":{"category":[{"coding":[{"code":"laboratory","display":"laboratory","system":"http://hl7.org/fhir/observation-category"}]}],"code":{"coding":[{"code":"787-2","display":"MCV [Entitic volume] by Automated count","system":"http://loinc.org"}],"text":"MCV [Entitic volume] by Automated count"},"context":{"reference":"Encounter/bf5204aa-840f-457f-888a-ddae97af5328"},"effectiveDateTime":"2009-04-10T02:15:31-04:00","id":"316fbe93-cd6a-4d33-b164-d9e1f17f43aa","issued":"2009-04-10T02:15:31.730-04:00","meta":{"lastUpdated":"2019-04-09T10:25:20.807654+00:00","versionId":"MTU1NDgwNTUyMDgwNzY1NDAwMA"},"resourceType":"Observation","status":"final","subject":{"reference":"Patient/00b8a693-5217-45fa-8e09-f60f93fe6ae9"},"valueQuantity":{"code":"fL","system":"http://unitsofmeasure.org","unit":"fL","value":90.80246135865534}}},{"resource":{"category":[{"coding":[{"code":"laboratory","display":"laboratory","system":"http://hl7.org/fhir/observation-category"}]}],"code":{"coding":[{"code":"49765-1","display":"Calcium","system":"http://loinc.org"}],"text":"Calcium"},"context":{"reference":"Encounter/e5bf14d7-90f8-4165-9225-6588fa8f4ed5"},"effectiveDateTime":"2016-05-20T02:15:31-04:00","id":"3190fed5-393f-41a6-88a3-c455a79239d8","issued":"2016-05-20T02:15:31.730-04:00","meta":{"lastUpdated":"2019-04-09T10:25:23.871108+00:00","versionId":"MTU1NDgwNTUyMzg3MTEwODAwMA"},"resourceType":"Observation","status":"final","subject":{"reference":"Patient/00b8a693-5217-45fa-8e09-f60f93fe6ae9"},"valueQuantity":{"code":"mg/dL","system":"http://unitsofmeasure.org","unit":"mg/dL","value":9.70603332953802}}},{"resource":{"category":[{"coding":[{"code":"laboratory","display":"laboratory","system":"http://hl7.org/fhir/observation-category"}]}],"code":{"coding":[{"code":"2339-0","display":"Glucose","system":"http://loinc.org"}],"text":"Glucose"},"context":{"reference":"Encounter/1a7038cd-8888-4b97-b3a2-83b13e6dc1c8"},"effectiveDateTime":"2017-05-26T02:15:31-04:00","id":"320c01ab-f9f5-4e84-a11f-81f8b71bd156","issued":"2017-05-26T02:15:31.730-04:00","meta":{"lastUpdated":"2019-04-09T10:25:23.876384+00:00","versionId":"MTU1NDgwNTUyMzg3NjM4NDAwMA"},"resourceType":"Observation","status":"final","subject":{"reference":"Patient/00b8a693-5217-45fa-8e09-f60f93fe6ae9"},"valueQuantity":{"code":"mg/dL","system":"http://unitsofmeasure.org","unit":"mg/dL","value":82.22952769910643}}},{"resource":{"category":[{"coding":[{"code":"laboratory","display":"laboratory","system":"http://hl7.org/fhir/observation-category"}]}],"code":{"coding":[{"code":"2069-3","display":"Chloride","system":"http://loinc.org"}],"text":"Chloride"},"context":{"reference":"Encounter/e5bf14d7-90f8-4165-9225-6588fa8f4ed5"},"effectiveDateTime":"2016-05-20T02:15:31-04:00","id":"322909cf-e710-4edf-9b21-d2cc2ac8fae4","issued":"2016-05-20T02:15:31.730-04:00","meta":{"lastUpdated":"2019-04-09T10:25:23.870863+00:00","versionId":"MTU1NDgwNTUyMzg3MDg2MzAwMA"},"resourceType":"Observation","status":"final","subject":{"reference":"Patient/00b8a693-5217-45fa-8e09-f60f93fe6ae9"},"valueQuantity":{"code":"mmol/L","system":"http://unitsofmeasure.org","unit":"mmol/L","value":104.53144567357616}}},{"resource":{"category":[{"coding":[{"code":"laboratory","display":"laboratory","system":"http://hl7.org/fhir/observation-category"}]}],"code":{"coding":[{"code":"49765-1","display":"Calcium","system":"http://loinc.org"}],"text":"Calcium"},"context":{"reference":"Encounter/01332d05-2e28-4d29-9b5f-a53e86b2554b"},"effectiveDateTime":"2014-05-09T02:15:31-04:00","id":"32630d57-118b-4ca6-af09-6231f5190194","issued":"2014-05-09T02:15:31.730-04:00","meta":{"lastUpdated":"2019-04-09T10:25:22.866603+00:00","versionId":"MTU1NDgwNTUyMjg2NjYwMzAwMA"},"resourceType":"Observation","status":"final","subject":{"reference":"Patient/00b8a693-5217-45fa-8e09-f60f93fe6ae9"},"valueQuantity":{"code":"mg/dL","system":"http://unitsofmeasure.org","unit":"mg/dL","value":9.409909307275086}}},{"resource":{"category":[{"coding":[{"code":"vital-signs","display":"vital-signs","system":"http://hl7.org/fhir/observation-category"}]}],"code":{"coding":[{"code":"72514-3","display":"Pain severity - 0-10 verbal numeric rating [Score] - Reported","system":"http://loinc.org"}],"text":"Pain severity - 0-10 verbal numeric rating [Score] - Reported"},"context":{"reference":"Encounter/dcb03c76-500c-428f-a34b-32a9661d62f3"},"effectiveDateTime":"2010-04-16T02:15:31-04:00","id":"32c4477c-1467-449a-b068-c9faec0772bc","issued":"2010-04-16T02:15:31.730-04:00","meta":{"lastUpdated":"2019-04-09T10:25:21.822770+00:00","versionId":"MTU1NDgwNTUyMTgyMjc3MDAwMA"},"resourceType":"Observation","status":"final","subject":{"reference":"Patient/00b8a693-5217-45fa-8e09-f60f93fe6ae9"},"valueQuantity":{"code":"{score}","system":"http://unitsofmeasure.org","unit":"{score}","value":2.303414492230744}}},{"resource":{"category":[{"coding":[{"code":"laboratory","display":"laboratory","system":"http://hl7.org/fhir/observation-category"}]}],"code":{"coding":[{"code":"6299-2","display":"Urea Nitrogen","system":"http://loinc.org"}],"text":"Urea Nitrogen"},"context":{"reference":"Encounter/c5f52d6c-5020-4f78-bd64-905afb2c2b7c"},"effectiveDateTime":"2011-04-22T02:15:31-04:00","id":"3323f8b2-972e-4254-b17f-c7b60ae51073","issued":"2011-04-22T02:15:31.730-04:00","meta":{"lastUpdated":"2019-04-09T10:25:21.827473+00:00","versionId":"MTU1NDgwNTUyMTgyNzQ3MzAwMA"},"resourceType":"Observation","status":"final","subject":{"reference":"Patient/00b8a693-5217-45fa-8e09-f60f93fe6ae9"},"valueQuantity":{"code":"mg/dL","system":"http://unitsofmeasure.org","unit":"mg/dL","value":17.45804229880519}}},{"resource":{"category":[{"coding":[{"code":"vital-signs","display":"vital-signs","system":"http://hl7.org/fhir/observation-category"}]}],"code":{"coding":[{"code":"39156-5","display":"Body Mass Index","system":"http://loinc.org"}],"text":"Body Mass Index"},"context":{"reference":"Encounter/bf5204aa-840f-457f-888a-ddae97af5328"},"effectiveDateTime":"2009-04-10T02:15:31-04:00","id":"342fa428-8747-40d6-af94-ef1ca3a50801","issued":"2009-04-10T02:15:31.730-04:00","meta":{"lastUpdated":"2019-04-09T10:25:20.810556+00:00","versionId":"MTU1NDgwNTUyMDgxMDU1NjAwMA"},"resourceType":"Observation","status":"final","subject":{"reference":"Patient/00b8a693-5217-45fa-8e09-f60f93fe6ae9"},"valueQuantity":{"code":"kg/m2","system":"http://unitsofmeasure.org","unit":"kg/m2","value":36.1613044462428}}},{"resource":{"category":[{"coding":[{"code":"vital-signs","display":"vital-signs","system":"http://hl7.org/fhir/observation-category"}]}],"code":{"coding":[{"code":"55284-4","display":"Blood Pressure","system":"http://loinc.org"}],"text":"Blood Pressure"},"component":[{"code":{"coding":[{"code":"8462-4","display":"Diastolic Blood Pressure","system":"http://loinc.org"}],"text":"Diastolic Blood Pressure"},"valueQuantity":{"code":"mmHg","system":"http://unitsofmeasure.org","unit":"mmHg","value":104.06127568663487}},{"code":{"coding":[{"code":"8480-6","display":"Systolic Blood Pressure","system":"http://loinc.org"}],"text":"Systolic Blood Pressure"},"valueQuantity":{"code":"mmHg","system":"http://unitsofmeasure.org","unit":"mmHg","value":149.17250938829991}}],"context":{"reference":"Encounter/bf5204aa-840f-457f-888a-ddae97af5328"},"effectiveDateTime":"2009-04-10T02:15:31-04:00","id":"3493c6b4-138b-4d5d-a1a0-bf684400fc8e","issued":"2009-04-10T02:15:31.730-04:00","meta":{"lastUpdated":"2019-04-09T10:25:20.838047+00:00","versionId":"MTU1NDgwNTUyMDgzODA0NzAwMA"},"resourceType":"Observation","status":"final","subject":{"reference":"Patient/00b8a693-5217-45fa-8e09-f60f93fe6ae9"}}},{"resource":{"category":[{"coding":[{"code":"laboratory","display":"laboratory","system":"http://hl7.org/fhir/observation-category"}]}],"code":{"coding":[{"code":"10834-0","display":"Globulin [Mass/volume] in Serum by calculation","system":"http://loinc.org"}],"text":"Globulin [Mass/volume] in Serum by calculation"},"context":{"reference":"Encounter/13bfc110-a8bb-422a-9fa6-b03527f2d02c"},"effectiveDateTime":"2016-05-29T02:15:31-04:00","id":"35832af2-ef70-4eab-9f44-892625a06ea3","issued":"2016-05-29T02:15:31.730-04:00","meta":{"lastUpdated":"2019-04-09T10:25:23.876386+00:00","versionId":"MTU1NDgwNTUyMzg3NjM4NjAwMA"},"resourceType":"Observation","status":"final","subject":{"reference":"Patient/00b8a693-5217-45fa-8e09-f60f93fe6ae9"},"valueQuantity":{"code":"g/L","system":"http://unitsofmeasure.org","unit":"g/L","value":2.757821916857389}}},{"resource":{"category":[{"coding":[{"code":"laboratory","display":"laboratory","system":"http://hl7.org/fhir/observation-category"}]}],"code":{"coding":[{"code":"33914-3","display":"Estimated Glomerular Filtration Rate","system":"http://loinc.org"}],"text":"Estimated Glomerular Filtration Rate"},"context":{"reference":"Encounter/bf5204aa-840f-457f-888a-ddae97af5328"},"effectiveDateTime":"2009-04-10T02:15:31-04:00","id":"36af0e5f-958b-424a-a1d3-8693640318e1","issued":"2009-04-10T02:15:31.730-04:00","meta":{"lastUpdated":"2019-04-09T10:25:21.817843+00:00","versionId":"MTU1NDgwNTUyMTgxNzg0MzAwMA"},"resourceType":"Observation","status":"final","subject":{"reference":"Patient/00b8a693-5217-45fa-8e09-f60f93fe6ae9"},"valueQuantity":{"code":"mL/min/{1.73_m2}","system":"http://unitsofmeasure.org","unit":"mL/min/{1.73_m2}","value":84.8296564406}}},{"resource":{"category":[{"coding":[{"code":"laboratory","display":"laboratory","system":"http://hl7.org/fhir/observation-category"}]}],"code":{"coding":[{"code":"6299-2","display":"Urea Nitrogen","system":"http://loinc.org"}],"text":"Urea Nitrogen"},"context":{"reference":"Encounter/dcb03c76-500c-428f-a34b-32a9661d62f3"},"effectiveDateTime":"2010-04-16T02:15:31-04:00","id":"3713dd54-9008-4ef3-8efe-4b30ef4fdaec","issued":"2010-04-16T02:15:31.730-04:00","meta":{"lastUpdated":"2019-04-09T10:25:21.818422+00:00","versionId":"MTU1NDgwNTUyMTgxODQyMjAwMA"},"resourceType":"Observation","status":"final","subject":{"reference":"Patient/00b8a693-5217-45fa-8e09-f60f93fe6ae9"},"valueQuantity":{"code":"mg/dL","system":"http://unitsofmeasure.org","unit":"mg/dL","value":17.577201040647402}}}],"link":[{"url":"https://syntheticmass.mitre.org/v1/fhir/Patient/00b8a693-5217-45fa-8e09-f60f93fe6ae9/$everything?_count=100&page_token=CoIBcHJvamVjdHMvc3ludGhlYS9sb2NhdGlvbnMvdXMtY2VudHJhbDEvZGF0YXNldHMvMjAxOTAyL2ZoaXJTdG9yZXMvc3ludGhldGljLW1hc3MvZmhpci9QYXRpZW50LzAwYjhhNjkzLTUyMTctNDVmYS04ZTA5LWY2MGY5M2ZlNmFlOQ%3D%3D","relation":"previous"},{"url":"https://syntheticmass.mitre.org/v1/fhir/Patient/00b8a693-5217-45fa-8e09-f60f93fe6ae9/$everything?_count=100&page_token=CoIBcHJvamVjdHMvc3ludGhlYS9sb2NhdGlvbnMvdXMtY2VudHJhbDEvZGF0YXNldHMvMjAxOTAyL2ZoaXJTdG9yZXMvc3ludGhldGljLW1hc3MvZmhpci9QYXRpZW50LzAwYjhhNjkzLTUyMTctNDVmYS04ZTA5LWY2MGY5M2ZlNmFlOSDIAQ%3D%3D","relation":"next"}],"total":445}
