{"resourceType":"Bundle","type":"searchset","entry":[{"resource":{"billablePeriod":{"end":"1983-06-05T21:45:50-04:00","start":"1983-06-04T18:45:50-04:00"},"id":"a3d1a674-e21a-44ba-b924-fcb7d33c11db","item":[{"encounter":[{"reference":"Encounter/0869787f-5489-4fd1-b500-db6e87395748"}],"sequence":1},{"net":{"code":"USD","system":"urn:iso:std:iso:4217","value":7651.72},"procedureLinkId":[1],"sequence":2,"service":{"coding":[{"code":"703423002","system":"http://snomed.info/sct","version":"v1"}]}}],"meta":{"lastUpdated":"2019-04-09T11:37:51.321016+00:00","versionId":"MTU1NDgwOTg3MTMyMTAxNjAwMA"},"organization":{"reference":"Organization/a12765b6-0551-4d37-9dd5-8c35098a0fe0"},"patient":{"reference":"Patient/00aca144-58fe-4518-839b-ea14ddfd3e74"},"procedure":[{"procedureReference":{"reference":"Procedure/8896a8da-fe8b-40b3-bf39-ae8c6a751594"},"sequence":1}],"resourceType":"Claim","status":"active","total":{"code":"USD","system":"urn:iso:std:iso:4217","value":7726.72},"use":"complete"}},{"resource":{"billablePeriod":{"end":"1924-04-10T19:57:50-05:00","start":"1924-04-10T17:45:50-05:00"},"id":"a80213af-268a-4075-9b82-bf19def95bdc","item":[{"encounter":[{"reference":"Encounter/4e89629e-e153-49e0-869e-9a3dbd2ebfb2"}],"sequence":1}],"meta":{"lastUpdated":"2019-04-09T11:37:37.751084+00:00","versionId":"MTU1NDgwOTg1Nzc1MTA4NDAwMA"},"organization":{"reference":"Organization/a12765b6-0551-4d37-9dd5-8c35098a0fe0"},"patient":{"reference":"Patient/00aca144-58fe-4518-839b-ea14ddfd3e74"},"prescription":{"reference":"MedicationRequest/e33544de-f5f2-4214-92fa-fe5ade2144d7"},"resourceType":"Claim","status":"active","total":{"code":"USD","system":"urn:iso:std:iso:4217","value":255},"use":"complete"}},{"resource":{"billablePeriod":{"end":"1973-01-28T18:00:50-05:00","start":"1973-01-28T17:45:50-05:00"},"id":"aad990e1-1298-4813-8c75-59349518d3be","item":[{"encounter":[{"reference":"Encounter/3d96fa4e-c45c-4c4f-92f9-10a9aee40dd9"}],"sequence":1}],"meta":{"lastUpdated":"2019-04-09T11:37:38.871487+00:00","versionId":"MTU1NDgwOTg1ODg3MTQ4NzAwMA"},"organization":{"reference":"Organization/a12765b6-0551-4d37-9dd5-8c35098a0fe0"},"patient":{"reference":"Patient/00aca144-58fe-4518-839b-ea14ddfd3e74"},"prescription":{"reference":"MedicationRequest/3ea4ba30-49c3-4ac1-8f9e-ea81842c90de"},"resourceType":"Claim","status":"active","total":{"code":"USD","system":"urn:iso:std:iso:4217","value":255},"use":"complete"}},{"resource":{"billablePeriod":{"end":"1980-11-18T18:45:50-05:00","start":"1980-11-17T17:45:50-05:00"},"id":"aaf7fde1-f821-4034-94ec-7428a9259cfa","item":[{"encounter":[{"reference":"Encounter/36fb461c-052a-46c6-a3f4-e7865a49b7c5"}],"sequence":1}],"meta":{"lastUpdated":"2019-04-09T11:37:44.084630+00:00","versionId":"MTU1NDgwOTg2NDA4NDYzMDAwMA"},"organization":{"reference":"Organization/a12765b6-0551-4d37-9dd5-8c35098a0fe0"},"patient":{"reference":"Patient/00aca144-58fe-4518-839b-ea14ddfd3e74"},"prescription":{"reference":"MedicationRequest/1cf8a68a-c631-46f2-9180-b47a99c99dd5"},"resourceType":"Claim","status":"active","total":{"code":"USD","system":"urn:iso:std:iso:4217","value":255},"use":"complete"}},{"resource":{"billablePeriod":{"end":"1939-03-27T18:00:50-05:00","start":"1939-03-27T17:45:50-05:00"},"diagnosis":[{"diagnosisReference":{"reference":"Condition/ce61f8b7-7659-44a1-8e50-b4887d8abdaa"},"sequence":1}],"id":"ac9e541a-aecb-43a3-8160-255614c295ca","item":[{"encounter":[{"reference":"Encounter/ce6f927f-15f1-49c3-941e-916f1e6d5c3e"}],"sequence":1},{"diagnosisLinkId":[1],"sequence":2}],"meta":{"lastUpdated":"2019-04-09T11:37:38.877272+00:00","versionId":"MTU1NDgwOTg1ODg3NzI3MjAwMA"},"organization":{"reference":"Organization/a12765b6-0551-4d37-9dd5-8c35098a0fe0"},"patient":{"reference":"Patient/00aca144-58fe-4518-839b-ea14ddfd3e74"},"resourceType":"Claim","status":"active","total":{"code":"USD","system":"urn:iso:std:iso:4217","value":125},"use":"complete"}},{"resource":{"billablePeriod":{"end":"1975-07-16T19:00:50-04:00","start":"1975-07-16T18:45:50-04:00"},"id":"ae4ea634-fdc6-4ce4-84ef-8052a51f4d72","item":[{"encounter":[{"reference":"Encounter/b166b1dc-0cbf-434f-892a-e6d04854be72"}],"sequence":1}],"meta":{"lastUpdated":"2019-04-09T11:37:39.942688+00:00","versionId":"MTU1NDgwOTg1OTk0MjY4ODAwMA"},"organization":{"reference":"Organization/a12765b6-0551-4d37-9dd5-8c35098a0fe0"},"patient":{"reference":"Patient/00aca144-58fe-4518-839b-ea14ddfd3e74"},"prescription":{"reference":"MedicationRequest/a666a462-1d4f-467d-aff1-6b0bd6078a32"},"resourceType":"Claim","status":"active","total":{"code":"USD","system":"urn:iso:std:iso:4217","value":255},"use":"complete"}},{"resource":{"billablePeriod":{"end":"1983-05-08T21:45:50-04:00","start":"1983-05-07T18:45:50-04:00"},"id":"af30262c-0d91-4a2d-b8d3-7878f9acf686","item":[{"encounter":[{"reference":"Encounter/f1b6fc75-dfd4-4704-bfee-4c1bde0d7257"}],"sequence":1}],"meta":{"lastUpdated":"2019-04-09T11:37:51.312135+00:00","versionId":"MTU1NDgwOTg3MTMxMjEzNTAwMA"},"organization":{"reference":"Organization/a12765b6-0551-4d37-9dd5-8c35098a0fe0"},"patient":{"reference":"Patient/00aca144-58fe-4518-839b-ea14ddfd3e74"},"prescription":{"reference":"MedicationRequest/173c4b6d-535d-4c96-b088-66a910d80745"},"resourceType":"Claim","status":"active","total":{"code":"USD","system":"urn:iso:std:iso:4217","value":255},"use":"complete"}},{"resource":{"billablePeriod":{"end":"1981-09-21T21:45:50-04:00","start":"1981-09-20T18:45:50-04:00"},"id":"b2dcc626-97d5-4c2e-8044-74e79f1d9f82","item":[{"encounter":[{"reference":"Encounter/ec65b88f-acd5-4dd0-ab0b-43a93d45d5e8"}],"sequence":1}],"meta":{"lastUpdated":"2019-04-09T11:37:46.256326+00:00","versionId":"MTU1NDgwOTg2NjI1NjMyNjAwMA"},"organization":{"reference":"Organization/a12765b6-0551-4d37-9dd5-8c35098a0fe0"},"patient":{"reference":"Patient/00aca144-58fe-4518-839b-ea14ddfd3e74"},"prescription":{"reference":"MedicationRequest/814fb538-50d9-4180-8376-531db1f67af8"},"resourceType":"Claim","status":"active","total":{"code":"USD","system":"urn:iso:std:iso:4217","value":255},"use":"complete"}},{"resource":{"billablePeriod":{"end":"1980-08-14T18:45:50-04:00","start":"1980-08-13T18:45:50-04:00"},"id":"b3520e10-73b3-40b1-9cd3-f64394e558fd","item":[{"encounter":[{"reference":"Encounter/ebf3369f-1b76-4310-854d-1b4a8732f2c9"}],"sequence":1},{"net":{"code":"USD","system":"urn:iso:std:iso:4217","value":13294.25},"procedureLinkId":[1],"sequence":2,"service":{"coding":[{"code":"703423002","system":"http://snomed.info/sct","version":"v1"}]}}],"meta":{"lastUpdated":"2019-04-09T11:37:44.080310+00:00","versionId":"MTU1NDgwOTg2NDA4MDMxMDAwMA"},"organization":{"reference":"Organization/a12765b6-0551-4d37-9dd5-8c35098a0fe0"},"patient":{"reference":"Patient/00aca144-58fe-4518-839b-ea14ddfd3e74"},"procedure":[{"procedureReference":{"reference":"Procedure/37949245-c05d-4d86-93ed-336ff44057f2"},"sequence":1}],"resourceType":"Claim","status":"active","total":{"code":"USD","system":"urn:iso:std:iso:4217","value":13369.25},"use":"complete"}},{"resource":{"billablePeriod":{"end":"1981-05-22T20:45:50-04:00","start":"1981-05-21T18:45:50-04:00"},"id":"b4d6e18c-48cb-4da3-ab40-32016ac7b09c","item":[{"encounter":[{"reference":"Encounter/afac706f-df4c-4799-adba-2d7d7726c148"}],"sequence":1}],"meta":{"lastUpdated":"2019-04-09T11:37:46.259541+00:00","versionId":"MTU1NDgwOTg2NjI1OTU0MTAwMA"},"organization":{"reference":"Organization/a12765b6-0551-4d37-9dd5-8c35098a0fe0"},"patient":{"reference":"Patient/00aca144-58fe-4518-839b-ea14ddfd3e74"},"prescription":{"reference":"MedicationRequest/51b125a3-c5a7-4e63-a7b3-4af0c71177eb"},"resourceType":"Claim","status":"active","total":{"code":"USD","system":"urn:iso:std:iso:4217","value":255},"use":"complete"}},{"resource":{"billablePeriod":{"end":"1983-05-08T21:45:50-04:00","start":"1983-05-07T18:45:50-04:00"},"id":"b70fdfc3-caa7-4bf3-9313-06c4599c77b0","item":[{"encounter":[{"reference":"Encounter/f1b6fc75-dfd4-4704-bfee-4c1bde0d7257"}],"sequence":1}],"meta":{"lastUpdated":"2019-04-09T11:37:51.310975+00:00","versionId":"MTU1NDgwOTg3MTMxMDk3NTAwMA"},"organization":{"reference":"Organization/a12765b6-0551-4d37-9dd5-8c35098a0fe0"},"patient":{"reference":"Patient/00aca144-58fe-4518-839b-ea14ddfd3e74"},"prescription":{"reference":"MedicationRequest/31c93d70-6a33-4404-b5d0-469fa49fadff"},"resourceType":"Claim","status":"active","total":{"code":"USD","system":"urn:iso:std:iso:4217","value":255},"use":"complete"}},{"resource":{"billablePeriod":{"end":"1981-09-21T21:45:50-04:00","start":"1981-09-20T18:45:50-04:00"},"id":"b7f89275-497f-4128-b07e-ba8a2f10f508","item":[{"encounter":[{"reference":"Encounter/ec65b88f-acd5-4dd0-ab0b-43a93d45d5e8"}],"sequence":1},{"net":{"code":"USD","system":"urn:iso:std:iso:4217","value":17012.08},"procedureLinkId":[1],"sequence":2,"service":{"coding":[{"code":"703423002","system":"http://snomed.info/sct","version":"v1"}]}}],"meta":{"lastUpdated":"2019-04-09T11:37:46.258119+00:00","versionId":"MTU1NDgwOTg2NjI1ODExOTAwMA"},"organization":{"reference":"Organization/a12765b6-0551-4d37-9dd5-8c35098a0fe0"},"patient":{"reference":"Patient/00aca144-58fe-4518-839b-ea14ddfd3e74"},"procedure":[{"procedureReference":{"reference":"Procedure/157649c6-3c9f-4693-92a5-8db3b16ff755"},"sequence":1}],"resourceType":"Claim","status":"active","total":{"code":"USD","system":"urn:iso:std:iso:4217","value":17087.08},"use":"complete"}},{"resource":{"billablePeriod":{"end":"1980-11-18T18:45:50-05:00","start":"1980-11-17T17:45:50-05:00"},"id":"b99a8af9-94b3-446f-8f79-fe6b738f96de","item":[{"encounter":[{"reference":"Encounter/36fb461c-052a-46c6-a3f4-e7865a49b7c5"}],"sequence":1}],"meta":{"lastUpdated":"2019-04-09T11:37:44.086712+00:00","versionId":"MTU1NDgwOTg2NDA4NjcxMjAwMA"},"organization":{"reference":"Organization/a12765b6-0551-4d37-9dd5-8c35098a0fe0"},"patient":{"reference":"Patient/00aca144-58fe-4518-839b-ea14ddfd3e74"},"prescription":{"reference":"MedicationRequest/0760d9d0-75ed-4e7e-95ee-724967c48f51"},"resourceType":"Claim","status":"active","total":{"code":"USD","system":"urn:iso:std:iso:4217","value":255},"use":"complete"}},{"resource":{"billablePeriod":{"end":"1981-07-19T19:45:50-04:00","start":"1981-07-18T18:45:50-04:00"},"id":"bc40f726-5c56-4d8b-aabe-a6306e64370e","item":[{"encounter":[{"reference":"Encounter/678d4104-542b-40de-a9c6-8a9a4731314e"}],"sequence":1}],"meta":{"lastUpdated":"2019-04-09T11:37:46.258116+00:00","versionId":"MTU1NDgwOTg2NjI1ODExNjAwMA"},"organization":{"reference":"Organization/a12765b6-0551-4d37-9dd5-8c35098a0fe0"},"patient":{"reference":"Patient/00aca144-58fe-4518-839b-ea14ddfd3e74"},"prescription":{"reference":"MedicationRequest/39445900-48be-44fc-b7af-9ceabe48b583"},"resourceType":"Claim","status":"active","total":{"code":"USD","system":"urn:iso:std:iso:4217","value":255},"use":"complete"}},{"resource":{"billablePeriod":{"end":"1982-04-25T18:45:50-04:00","start":"1982-04-24T17:45:50-05:00"},"id":"bf259ce5-3354-4173-88c4-d9ca29c79ac1","item":[{"encounter":[{"reference":"Encounter/532cfcf1-bedc-4ae5-b930-457f996d7e5a"}],"sequence":1}],"meta":{"lastUpdated":"2019-04-09T11:37:48.279134+00:00","versionId":"MTU1NDgwOTg2ODI3OTEzNDAwMA"},"organization":{"reference":"Organization/a12765b6-0551-4d37-9dd5-8c35098a0fe0"},"patient":{"reference":"Patient/00aca144-58fe-4518-839b-ea14ddfd3e74"},"prescription":{"reference":"MedicationRequest/921ef08f-6c8b-45ce-85cc-a2d7ba1060d1"},"resourceType":"Claim","status":"active","total":{"code":"USD","system":"urn:iso:std:iso:4217","value":255},"use":"complete"}},{"resource":{"billablePeriod":{"end":"1983-05-08T21:45:50-04:00","start":"1983-05-07T18:45:50-04:00"},"id":"c08f0690-a904-48a6-9664-ee6fafa773fd","item":[{"encounter":[{"reference":"Encounter/f1b6fc75-dfd4-4704-bfee-4c1bde0d7257"}],"sequence":1},{"net":{"code":"USD","system":"urn:iso:std:iso:4217","value":21009.78},"procedureLinkId":[1],"sequence":2,"service":{"coding":[{"code":"703423002","system":"http://snomed.info/sct","version":"v1"}]}}],"meta":{"lastUpdated":"2019-04-09T11:37:51.320730+00:00","versionId":"MTU1NDgwOTg3MTMyMDczMDAwMA"},"organization":{"reference":"Organization/a12765b6-0551-4d37-9dd5-8c35098a0fe0"},"patient":{"reference":"Patient/00aca144-58fe-4518-839b-ea14ddfd3e74"},"procedure":[{"procedureReference":{"reference":"Procedure/108f3f5e-1e8e-4cdc-8ca9-c8555b982769"},"sequence":1}],"resourceType":"Claim","status":"active","total":{"code":"USD","system":"urn:iso:std:iso:4217","value":21084.78},"use":"complete"}},{"resource":{"billablePeriod":{"end":"1981-01-19T18:45:50-05:00","start":"1981-01-18T17:45:50-05:00"},"id":"c0eafe54-e6e8-40ff-8b0a-8ce5563fd3b2","item":[{"encounter":[{"reference":"Encounter/82763d9d-1494-48ee-8abc-e6f912c6bfac"}],"sequence":1}],"meta":{"lastUpdated":"2019-04-09T11:37:44.080572+00:00","versionId":"MTU1NDgwOTg2NDA4MDU3MjAwMA"},"organization":{"reference":"Organization/a12765b6-0551-4d37-9dd5-8c35098a0fe0"},"patient":{"reference":"Patient/00aca144-58fe-4518-839b-ea14ddfd3e74"},"prescription":{"reference":"MedicationRequest/e384c420-1298-4c3f-b584-bcb72ca91a57"},"resourceType":"Claim","status":"active","total":{"code":"USD","system":"urn:iso:std:iso:4217","value":255},"use":"complete"}},{"resource":{"billablePeriod":{"end":"1982-05-26T19:45:50-04:00","start":"1982-05-25T18:45:50-04:00"},"id":"c48bba6c-85d0-4575-a467-2a4fef6c339e","item":[{"encounter":[{"reference":"Encounter/017cbb54-1fb2-4eef-a681-b0abc57e1d37"}],"sequence":1}],"meta":{"lastUpdated":"2019-04-09T11:37:48.281369+00:00","versionId":"MTU1NDgwOTg2ODI4MTM2OTAwMA"},"organization":{"reference":"Organization/a12765b6-0551-4d37-9dd5-8c35098a0fe0"},"patient":{"reference":"Patient/00aca144-58fe-4518-839b-ea14ddfd3e74"},"prescription":{"reference":"MedicationRequest/dd277288-fd5d-4620-9b73-006fe90817c3"},"resourceType":"Claim","status":"active","total":{"code":"USD","system":"urn:iso:std:iso:4217","value":255},"use":"complete"}},{"resource":{"billablePeriod":{"end":"1981-11-23T18:45:50-05:00","start":"1981-11-22T17:45:50-05:00"},"id":"c545c7d0-70f9-4200-8137-58d7134e7fa0","item":[{"encounter":[{"reference":"Encounter/c6f3da5c-97dd-4c05-90f7-4a871a74e065"}],"sequence":1}],"meta":{"lastUpdated":"2019-04-09T11:37:47.273846+00:00","versionId":"MTU1NDgwOTg2NzI3Mzg0NjAwMA"},"organization":{"reference":"Organization/a12765b6-0551-4d37-9dd5-8c35098a0fe0"},"patient":{"reference":"Patient/00aca144-58fe-4518-839b-ea14ddfd3e74"},"prescription":{"reference":"MedicationRequest/05a83ab2-6f28-43e3-9084-fb0288b28aab"},"resourceType":"Claim","status":"active","total":{"code":"USD","system":"urn:iso:std:iso:4217","value":255},"use":"complete"}},{"resource":{"billablePeriod":{"end":"1980-06-05T19:55:50-04:00","start":"1980-06-05T18:45:50-04:00"},"diagnosis":[{"diagnosisReference":{"reference":"Condition/c7eea793-821e-4e87-84a7-bf7584ef003e"},"sequence":1}],"id":"c6e16d4f-0f23-485a-978a-d127a2131e7a","item":[{"encounter":[{"reference":"Encounter/79ff095d-c631-49b9-8c61-55e1a1abd5d2"}],"sequence":1},{"diagnosisLinkId":[1],"sequence":2},{"net":{"code":"USD","system":"urn:iso:std:iso:4217","value":13606.98},"procedureLinkId":[1],"sequence":3,"service":{"coding":[{"code":"399208008","system":"http://snomed.info/sct","version":"v1"}]}}],"meta":{"lastUpdated":"2019-04-09T11:37:42.998364+00:00","versionId":"MTU1NDgwOTg2Mjk5ODM2NDAwMA"},"organization":{"reference":"Organization/a12765b6-0551-4d37-9dd5-8c35098a0fe0"},"patient":{"reference":"Patient/00aca144-58fe-4518-839b-ea14ddfd3e74"},"procedure":[{"procedureReference":{"reference":"Procedure/af9192f8-84b7-4d5b-9eff-b20f1d23860f"},"sequence":1}],"resourceType":"Claim","status":"active","total":{"code":"USD","system":"urn:iso:std:iso:4217","value":13731.98},"use":"complete"}},{"resource":{"billablePeriod":{"end":"1982-04-05T18:17:50-05:00","start":"1982-04-05T17:45:50-05:00"},"id":"c7fe32bb-5b3e-40ed-b9c3-79b912ac3407","information":[{"category":{"coding":[{"code":"info","system":"http://hl7.org/fhir/claiminformationcategory"}]},"sequence":1,"valueReference":{"reference":"Immunization/29658719-9831-4093-b1c8-8a305cb09e68"}}],"item":[{"encounter":[{"reference":"Encounter/643decf6-e5c6-400a-9fd9-d3bfafd12b44"}],"sequence":1},{"informationLinkId":[1],"net":{"code":"USD","system":"urn:iso:std:iso:4217","value":140.52},"sequence":2},{"net":{"code":"USD","system":"urn:iso:std:iso:4217","value":526.94},"procedureLinkId":[1],"sequence":3,"service":{"coding":[{"code":"428191000124101","system":"http://snomed.info/sct","version":"v1"}]}},{"net":{"code":"USD","system":"urn:iso:std:iso:4217","value":516.65},"procedureLinkId":[2],"sequence":4,"service":{"coding":[{"code":"410006001","system":"http://snomed.info/sct","version":"v1"}]}}],"meta":{"lastUpdated":"2019-04-09T11:37:48.277805+00:00","versionId":"MTU1NDgwOTg2ODI3NzgwNTAwMA"},"organization":{"reference":"Organization/a12765b6-0551-4d37-9dd5-8c35098a0fe0"},"patient":{"reference":"Patient/00aca144-58fe-4518-839b-ea14ddfd3e74"},"procedure":[{"procedureReference":{"reference":"Procedure/2bcbcf5e-97ac-47ab-bd05-0a5c8aa6a159"},"sequence":1},{"procedureReference":{"reference":"Procedure/2ea163d5-5bee-4161-aa25-33b95c22334e"},"sequence":2}],"resourceType":"Claim","status":"active","total":{"code":"USD","system":"urn:iso:std:iso:4217","value":1309.11},"use":"complete"}},{"resource":{"billablePeriod":{"end":"1980-12-18T18:45:50-05:00","start":"1980-12-17T17:45:50-05:00"},"id":"c9c19ccd-719c-4405-b938-36c276ab4874","item":[{"encounter":[{"reference":"Encounter/a90d2073-1fca-42e2-8893-eed9704ee060"}],"sequence":1}],"meta":{"lastUpdated":"2019-04-09T11:37:44.084629+00:00","versionId":"MTU1NDgwOTg2NDA4NDYyOTAwMA"},"organization":{"reference":"Organization/a12765b6-0551-4d37-9dd5-8c35098a0fe0"},"patient":{"reference":"Patient/00aca144-58fe-4518-839b-ea14ddfd3e74"},"prescription":{"reference":"MedicationRequest/24314303-5a21-4523-bee4-d1b7b3388f7c"},"resourceType":"Claim","status":"active","total":{"code":"USD","system":"urn:iso:std:iso:4217","value":255},"use":"complete"}},{"resource":{"billablePeriod":{"end":"1983-04-04T17:45:50-05:00","start":"1983-04-03T17:45:50-05:00"},"id":"ca1e91f2-89f2-4d39-b5c7-9b64f2a520c9","item":[{"encounter":[{"reference":"Encounter/e62ab5ff-aea9-4cde-926f-952eee90e38d"}],"sequence":1},{"net":{"code":"USD","system":"urn:iso:std:iso:4217","value":8514.21},"procedureLinkId":[1],"sequence":2,"service":{"coding":[{"code":"703423002","system":"http://snomed.info/sct","version":"v1"}]}}],"meta":{"lastUpdated":"2019-04-09T11:37:51.320732+00:00","versionId":"MTU1NDgwOTg3MTMyMDczMjAwMA"},"organization":{"reference":"Organization/a12765b6-0551-4d37-9dd5-8c35098a0fe0"},"patient":{"reference":"Patient/00aca144-58fe-4518-839b-ea14ddfd3e74"},"procedure":[{"procedureReference":{"reference":"Procedure/eec02f9c-8dec-4906-975a-8cb6c887cc5f"},"sequence":1}],"resourceType":"Claim","status":"active","total":{"code":"USD","system":"urn:iso:std:iso:4217","value":8589.21},"use":"complete"}},{"resource":{"billablePeriod":{"end":"1982-02-21T17:45:50-05:00","start":"1982-02-20T17:45:50-05:00"},"id":"cc7e8eb2-ce29-4904-9b06-36cb8e20a274","item":[{"encounter":[{"reference":"Encounter/f629681f-fe0a-4185-a263-7904ac7758ec"}],"sequence":1}],"meta":{"lastUpdated":"2019-04-09T11:37:47.282764+00:00","versionId":"MTU1NDgwOTg2NzI4Mjc2NDAwMA"},"organization":{"reference":"Organization/a12765b6-0551-4d37-9dd5-8c35098a0fe0"},"patient":{"reference":"Patient/00aca144-58fe-4518-839b-ea14ddfd3e74"},"prescription":{"reference":"MedicationRequest/daf020fc-5e96-4b42-a866-d3675363643d"},"resourceType":"Claim","status":"active","total":{"code":"USD","system":"urn:iso:std:iso:4217","value":255},"use":"complete"}},{"resource":{"billablePeriod":{"end":"1982-08-28T19:45:50-04:00","start":"1982-08-27T18:45:50-04:00"},"id":"d12d9f0e-fd25-4f9b-a927-1a4c058eeb3f","item":[{"encounter":[{"reference":"Encounter/70e2f632-d847-4cec-993a-1358bc7dcc55"}],"sequence":1}],"meta":{"lastUpdated":"2019-04-09T11:37:49.285359+00:00","versionId":"MTU1NDgwOTg2OTI4NTM1OTAwMA"},"organization":{"reference":"Organization/a12765b6-0551-4d37-9dd5-8c35098a0fe0"},"patient":{"reference":"Patient/00aca144-58fe-4518-839b-ea14ddfd3e74"},"prescription":{"reference":"MedicationRequest/028d13e6-1a1f-4bee-8632-92365b95c838"},"resourceType":"Claim","status":"active","total":{"code":"USD","system":"urn:iso:std:iso:4217","value":255},"use":"complete"}},{"resource":{"billablePeriod":{"end":"1981-04-20T19:45:50-05:00","start":"1981-04-19T17:45:50-05:00"},"id":"d1536a4a-5b89-41cf-b275-da0494d83f03","item":[{"encounter":[{"reference":"Encounter/04ff931b-a5a1-4c2c-878a-989d90affd44"}],"sequence":1},{"net":{"code":"USD","system":"urn:iso:std:iso:4217","value":17576.62},"procedureLinkId":[1],"sequence":2,"service":{"coding":[{"code":"703423002","system":"http://snomed.info/sct","version":"v1"}]}}],"meta":{"lastUpdated":"2019-04-09T11:37:45.229556+00:00","versionId":"MTU1NDgwOTg2NTIyOTU1NjAwMA"},"organization":{"reference":"Organization/a12765b6-0551-4d37-9dd5-8c35098a0fe0"},"patient":{"reference":"Patient/00aca144-58fe-4518-839b-ea14ddfd3e74"},"procedure":[{"procedureReference":{"reference":"Procedure/6d22b107-7504-4d04-8ed5-2cb55648a9b2"},"sequence":1}],"resourceType":"Claim","status":"active","total":{"code":"USD","system":"urn:iso:std:iso:4217","value":17651.62},"use":"complete"}},{"resource":{"billablePeriod":{"end":"1980-12-18T18:45:50-05:00","start":"1980-12-17T17:45:50-05:00"},"id":"d20c65a2-0628-435d-a3d5-6a1cb7b063e0","item":[{"encounter":[{"reference":"Encounter/a90d2073-1fca-42e2-8893-eed9704ee060"}],"sequence":1}],"meta":{"lastUpdated":"2019-04-09T11:37:44.084620+00:00","versionId":"MTU1NDgwOTg2NDA4NDYyMDAwMA"},"organization":{"reference":"Organization/a12765b6-0551-4d37-9dd5-8c35098a0fe0"},"patient":{"reference":"Patient/00aca144-58fe-4518-839b-ea14ddfd3e74"},"prescription":{"reference":"MedicationRequest/8ea5c828-80e5-4069-b729-7dd57a6a7bc7"},"resourceType":"Claim","status":"active","total":{"code":"USD","system":"urn:iso:std:iso:4217","value":255},"use":"complete"}},{"resource":{"billablePeriod":{"end":"1982-06-29T19:45:50-04:00","start":"1982-06-28T18:45:50-04:00"},"id":"d2d66051-4c2e-4245-a391-f3c18835927a","item":[{"encounter":[{"reference":"Encounter/4eed09f0-e0a8-4ee3-913f-8a3130b338dc"}],"sequence":1}],"meta":{"lastUpdated":"2019-04-09T11:37:48.283402+00:00","versionId":"MTU1NDgwOTg2ODI4MzQwMjAwMA"},"organization":{"reference":"Organization/a12765b6-0551-4d37-9dd5-8c35098a0fe0"},"patient":{"reference":"Patient/00aca144-58fe-4518-839b-ea14ddfd3e74"},"prescription":{"reference":"MedicationRequest/86be5eec-e512-4882-a076-6e4c329d29b6"},"resourceType":"Claim","status":"active","total":{"code":"USD","system":"urn:iso:std:iso:4217","value":255},"use":"complete"}},{"resource":{"billablePeriod":{"end":"1983-03-01T20:45:50-05:00","start":"1983-02-28T17:45:50-05:00"},"id":"d4f62466-2f34-4f68-aa27-b8d297c51df4","item":[{"encounter":[{"reference":"Encounter/11cf5f25-e5f2-43d2-83e6-9e829427a58a"}],"sequence":1}],"meta":{"lastUpdated":"2019-04-09T11:37:50.294898+00:00","versionId":"MTU1NDgwOTg3MDI5NDg5ODAwMA"},"organization":{"reference":"Organization/a12765b6-0551-4d37-9dd5-8c35098a0fe0"},"patient":{"reference":"Patient/00aca144-58fe-4518-839b-ea14ddfd3e74"},"prescription":{"reference":"MedicationRequest/777ea071-271c-4daf-a85a-f19cbb368fd7"},"resourceType":"Claim","status":"active","total":{"code":"USD","system":"urn:iso:std:iso:4217","value":255},"use":"complete"}},{"resource":{"billablePeriod":{"end":"1983-04-04T17:45:50-05:00","start":"1983-04-03T17:45:50-05:00"},"id":"daad12c6-c5d1-476e-b6a9-2b6c33e317dc","item":[{"encounter":[{"reference":"Encounter/e62ab5ff-aea9-4cde-926f-952eee90e38d"}],"sequence":1}],"meta":{"lastUpdated":"2019-04-09T11:37:50.294899+00:00","versionId":"MTU1NDgwOTg3MDI5NDg5OTAwMA"},"organization":{"reference":"Organization/a12765b6-0551-4d37-9dd5-8c35098a0fe0"},"patient":{"reference":"Patient/00aca144-58fe-4518-839b-ea14ddfd3e74"},"prescription":{"reference":"MedicationRequest/913c2b5b-78a7-411a-a128-787121dfea1c"},"resourceType":"Claim","status":"active","total":{"code":"USD","system":"urn:iso:std:iso:4217","value":255},"use":"complete"}},{"resource":{"billablePeriod":{"end":"1982-08-28T19:45:50-04:00","start":"1982-08-27T18:45:50-04:00"},"id":"dacf1c22-2a06-43b0-9a84-4ac915b0d2d6","item":[{"encounter":[{"reference":"Encounter/70e2f632-d847-4cec-993a-1358bc7dcc55"}],"sequence":1},{"net":{"code":"USD","system":"urn:iso:std:iso:4217","value":14076.33},"procedureLinkId":[1],"sequence":2,"service":{"coding":[{"code":"703423002","system":"http://snomed.info/sct","version":"v1"}]}}],"meta":{"lastUpdated":"2019-04-09T11:37:49.276112+00:00","versionId":"MTU1NDgwOTg2OTI3NjExMjAwMA"},"organization":{"reference":"Organization/a12765b6-0551-4d37-9dd5-8c35098a0fe0"},"patient":{"reference":"Patient/00aca144-58fe-4518-839b-ea14ddfd3e74"},"procedure":[{"procedureReference":{"reference":"Procedure/983a78d6-5c84-4ba4-837e-0b1dedb5f8db"},"sequence":1}],"resourceType":"Claim","status":"active","total":{"code":"USD","system":"urn:iso:std:iso:4217","value":14151.33},"use":"complete"}},{"resource":{"billablePeriod":{"end":"1982-10-28T21:45:50-04:00","start":"1982-10-27T18:45:50-04:00"},"id":"dc193319-b609-4468-a696-f50f1c63fc31","item":[{"encounter":[{"reference":"Encounter/92918ab1-fd06-46b5-b249-d7342d295b01"}],"sequence":1},{"net":{"code":"USD","system":"urn:iso:std:iso:4217","value":12291.09},"procedureLinkId":[1],"sequence":2,"service":{"coding":[{"code":"703423002","system":"http://snomed.info/sct","version":"v1"}]}}],"meta":{"lastUpdated":"2019-04-09T11:37:49.284211+00:00","versionId":"MTU1NDgwOTg2OTI4NDIxMTAwMA"},"organization":{"reference":"Organization/a12765b6-0551-4d37-9dd5-8c35098a0fe0"},"patient":{"reference":"Patient/00aca144-58fe-4518-839b-ea14ddfd3e74"},"procedure":[{"procedureReference":{"reference":"Procedure/1ec918b6-6107-4b7d-9818-2569abd6ea91"},"sequence":1}],"resourceType":"Claim","status":"active","total":{"code":"USD","system":"urn:iso:std:iso:4217","value":12366.09},"use":"complete"}},{"resource":{"billablePeriod":{"end":"1983-06-05T21:45:50-04:00","start":"1983-06-04T18:45:50-04:00"},"id":"dd96fc62-85f8-471c-ad87-bce4e8637d3a","item":[{"encounter":[{"reference":"Encounter/0869787f-5489-4fd1-b500-db6e87395748"}],"sequence":1}],"meta":{"lastUpdated":"2019-04-09T11:37:51.311579+00:00","versionId":"MTU1NDgwOTg3MTMxMTU3OTAwMA"},"organization":{"reference":"Organization/a12765b6-0551-4d37-9dd5-8c35098a0fe0"},"patient":{"reference":"Patient/00aca144-58fe-4518-839b-ea14ddfd3e74"},"prescription":{"reference":"MedicationRequest/6655d212-9f3e-4142-8152-7dc47ddb23f3"},"resourceType":"Claim","status":"active","total":{"code":"USD","system":"urn:iso:std:iso:4217","value":255},"use":"complete"}},{"resource":{"billablePeriod":{"end":"1981-11-23T18:45:50-05:00","start":"1981-11-22T17:45:50-05:00"},"id":"de86831e-1fa7-4707-892e-0bec0cc91edb","item":[{"encounter":[{"reference":"Encounter/c6f3da5c-97dd-4c05-90f7-4a871a74e065"}],"sequence":1}],"meta":{"lastUpdated":"2019-04-09T11:37:47.282765+00:00","versionId":"MTU1NDgwOTg2NzI4Mjc2NTAwMA"},"organization":{"reference":"Organization/a12765b6-0551-4d37-9dd5-8c35098a0fe0"},"patient":{"reference":"Patient/00aca144-58fe-4518-839b-ea14ddfd3e74"},"prescription":{"reference":"MedicationRequest/97e4ea30-7f5f-4889-b760-8da4c093fccc"},"resourceType":"Claim","status":"active","total":{"code":"USD","system":"urn:iso:std:iso:4217","value":255},"use":"complete"}},{"resource":{"billablePeriod":{"end":"1982-05-26T19:45:50-04:00","start":"1982-05-25T18:45:50-04:00"},"id":"df45e24c-9e40-4c5b-818e-eac267ec8c5f","item":[{"encounter":[{"reference":"Encounter/017cbb54-1fb2-4eef-a681-b0abc57e1d37"}],"sequence":1},{"net":{"code":"USD","system":"urn:iso:std:iso:4217","value":11252.48},"procedureLinkId":[1],"sequence":2,"service":{"coding":[{"code":"703423002","system":"http://snomed.info/sct","version":"v1"}]}}],"meta":{"lastUpdated":"2019-04-09T11:37:48.282844+00:00","versionId":"MTU1NDgwOTg2ODI4Mjg0NDAwMA"},"organization":{"reference":"Organization/a12765b6-0551-4d37-9dd5-8c35098a0fe0"},"patient":{"reference":"Patient/00aca144-58fe-4518-839b-ea14ddfd3e74"},"procedure":[{"procedureReference":{"reference":"Procedure/dabe98f5-2153-465e-94b5-851a2687408c"},"sequence":1}],"resourceType":"Claim","status":"active","total":{"code":"USD","system":"urn:iso:std:iso:4217","value":11327.48},"use":"complete"}},{"resource":{"billablePeriod":{"end":"1981-12-22T20:45:50-05:00","start":"1981-12-21T17:45:50-05:00"},"id":"e0b1a494-c471-4199-8260-981c16c43ee2","item":[{"encounter":[{"reference":"Encounter/2ff57236-4f20-4cea-82ce-26d44fd27dba"}],"sequence":1}],"meta":{"lastUpdated":"2019-04-09T11:37:47.273850+00:00","versionId":"MTU1NDgwOTg2NzI3Mzg1MDAwMA"},"organization":{"reference":"Organization/a12765b6-0551-4d37-9dd5-8c35098a0fe0"},"patient":{"reference":"Patient/00aca144-58fe-4518-839b-ea14ddfd3e74"},"prescription":{"reference":"MedicationRequest/c8476608-db83-4847-b709-5da842b75de6"},"resourceType":"Claim","status":"active","total":{"code":"USD","system":"urn:iso:std:iso:4217","value":255},"use":"complete"}},{"resource":{"billablePeriod":{"end":"1981-07-19T19:45:50-04:00","start":"1981-07-18T18:45:50-04:00"},"id":"e18c84b3-9db3-4118-81bc-3021c1a5272d","item":[{"encounter":[{"reference":"Encounter/678d4104-542b-40de-a9c6-8a9a4731314e"}],"sequence":1},{"net":{"code":"USD","system":"urn:iso:std:iso:4217","value":16838.14},"procedureLinkId":[1],"sequence":2,"service":{"coding":[{"code":"703423002","system":"http://snomed.info/sct","version":"v1"}]}}],"meta":{"lastUpdated":"2019-04-09T11:37:46.255449+00:00","versionId":"MTU1NDgwOTg2NjI1NTQ0OTAwMA"},"organization":{"reference":"Organization/a12765b6-0551-4d37-9dd5-8c35098a0fe0"},"patient":{"reference":"Patient/00aca144-58fe-4518-839b-ea14ddfd3e74"},"procedure":[{"procedureReference":{"reference":"Procedure/9b8cc918-d8ac-4717-9e88-86f1f5a56e08"},"sequence":1}],"resourceType":"Claim","status":"active","total":{"code":"USD","system":"urn:iso:std:iso:4217","value":16913.14},"use":"complete"}},{"resource":{"billablePeriod":{"end":"1980-06-10T19:47:50-04:00","start":"1980-06-10T18:45:50-04:00"},"id":"e5148096-96b4-4890-bbe4-b6885a24ba92","item":[{"encounter":[{"reference":"Encounter/bc955ef4-c757-4742-8132-a6e9b29be7e4"}],"sequence":1},{"net":{"code":"USD","system":"urn:iso:std:iso:4217","value":16221.85},"procedureLinkId":[1],"sequence":2,"service":{"coding":[{"code":"418891003","system":"http://snomed.info/sct","version":"v1"}],"extension":[{"url":"https://bluebutton.cms.gov/assets/ig/StructureDefinition-bluebutton-outpatient-rev-cntr-ide-ndc-upc-num-extension","valueCoding":{"code":"0624","display":"Dummy","system":"https://www.accessdata.fda.gov/scripts/cder/ndc"}}]}}],"meta":{"lastUpdated":"2019-04-09T11:37:42.974796+00:00","versionId":"MTU1NDgwOTg2Mjk3NDc5NjAwMA"},"organization":{"reference":"Organization/a12765b6-0551-4d37-9dd5-8c35098a0fe0"},"patient":{"reference":"Patient/00aca144-58fe-4518-839b-ea14ddfd3e74"},"procedure":[{"procedureReference":{"reference":"Procedure/1fb9e2c1-db0e-4305-9d7b-818b58f9d1e9"},"sequence":1}],"resourceType":"Claim","status":"active","total":{"code":"USD","system":"urn:iso:std:iso:4217","value":16346.85},"use":"complete"}},{"resource":{"billablePeriod":{"end":"1983-03-01T20:45:50-05:00","start":"1983-02-28T17:45:50-05:00"},"id":"e6bdac2c-da49-4ebe-98eb-722af9bbef32","item":[{"encounter":[{"reference":"Encounter/11cf5f25-e5f2-43d2-83e6-9e829427a58a"}],"sequence":1},{"net":{"code":"USD","system":"urn:iso:std:iso:4217","value":20377.59},"procedureLinkId":[1],"sequence":2,"service":{"coding":[{"code":"703423002","system":"http://snomed.info/sct","version":"v1"}]}}],"meta":{"lastUpdated":"2019-04-09T11:37:50.288461+00:00","versionId":"MTU1NDgwOTg3MDI4ODQ2MTAwMA"},"organization":{"reference":"Organization/a12765b6-0551-4d37-9dd5-8c35098a0fe0"},"patient":{"reference":"Patient/00aca144-58fe-4518-839b-ea14ddfd3e74"},"procedure":[{"procedureReference":{"reference":"Procedure/ba03c48f-df72-4121-8092-9f4635d74c23"},"sequence":1}],"resourceType":"Claim","status":"active","total":{"code":"USD","system":"urn:iso:std:iso:4217","value":20452.59},"use":"complete"}},{"resource":{"billablePeriod":{"end":"1981-08-22T20:45:50-04:00","start":"1981-08-21T18:45:50-04:00"},"id":"eb88aa64-787b-402c-82bc-e97991e341f6","item":[{"encounter":[{"reference":"Encounter/9c756add-aa6d-4f65-8b9d-1217cb77d6e3"}],"sequence":1}],"meta":{"lastUpdated":"2019-04-09T11:37:46.260034+00:00","versionId":"MTU1NDgwOTg2NjI2MDAzNDAwMA"},"organization":{"reference":"Organization/a12765b6-0551-4d37-9dd5-8c35098a0fe0"},"patient":{"reference":"Patient/00aca144-58fe-4518-839b-ea14ddfd3e74"},"prescription":{"reference":"MedicationRequest/041cf7af-1df1-4fc9-bb42-63fd46e63099"},"resourceType":"Claim","status":"active","total":{"code":"USD","system":"urn:iso:std:iso:4217","value":255},"use":"complete"}},{"resource":{"billablePeriod":{"end":"1982-04-25T18:45:50-04:00","start":"1982-04-24T17:45:50-05:00"},"id":"ec3883bd-1fae-4bd1-a876-08113c6bebe7","item":[{"encounter":[{"reference":"Encounter/532cfcf1-bedc-4ae5-b930-457f996d7e5a"}],"sequence":1}],"meta":{"lastUpdated":"2019-04-09T11:37:48.282847+00:00","versionId":"MTU1NDgwOTg2ODI4Mjg0NzAwMA"},"organization":{"reference":"Organization/a12765b6-0551-4d37-9dd5-8c35098a0fe0"},"patient":{"reference":"Patient/00aca144-58fe-4518-839b-ea14ddfd3e74"},"prescription":{"reference":"MedicationRequest/5550d693-a799-41e0-93d0-4f124e06429e"},"resourceType":"Claim","status":"active","total":{"code":"USD","system":"urn:iso:std:iso:4217","value":255},"use":"complete"}},{"resource":{"billablePeriod":{"end":"1982-04-25T18:45:50-04:00","start":"1982-04-24T17:45:50-05:00"},"id":"ed08bcf4-b30c-4670-bcd6-9c3f15b3e0ad","item":[{"encounter":[{"reference":"Encounter/532cfcf1-bedc-4ae5-b930-457f996d7e5a"}],"sequence":1},{"net":{"code":"USD","system":"urn:iso:std:iso:4217","value":9687.57},"procedureLinkId":[1],"sequence":2,"service":{"coding":[{"code":"703423002","system":"http://snomed.info/sct","version":"v1"}]}}],"meta":{"lastUpdated":"2019-04-09T11:37:48.286514+00:00","versionId":"MTU1NDgwOTg2ODI4NjUxNDAwMA"},"organization":{"reference":"Organization/a12765b6-0551-4d37-9dd5-8c35098a0fe0"},"patient":{"reference":"Patient/00aca144-58fe-4518-839b-ea14ddfd3e74"},"procedure":[{"procedureReference":{"reference":"Procedure/9d4163af-2377-4e0c-89f8-d1563453d92e"},"sequence":1}],"resourceType":"Claim","status":"active","total":{"code":"USD","system":"urn:iso:std:iso:4217","value":9762.57},"use":"complete"}},{"resource":{"billablePeriod":{"end":"1981-01-19T18:45:50-05:00","start":"1981-01-18T17:45:50-05:00"},"id":"ed87454d-8102-4ae5-813b-1bb126f585d8","item":[{"encounter":[{"reference":"Encounter/82763d9d-1494-48ee-8abc-e6f912c6bfac"}],"sequence":1}],"meta":{"lastUpdated":"2019-04-09T11:37:45.224851+00:00","versionId":"MTU1NDgwOTg2NTIyNDg1MTAwMA"},"organization":{"reference":"Organization/a12765b6-0551-4d37-9dd5-8c35098a0fe0"},"patient":{"reference":"Patient/00aca144-58fe-4518-839b-ea14ddfd3e74"},"prescription":{"reference":"MedicationRequest/edd239fc-94fb-4ff0-9dfe-49d63c808424"},"resourceType":"Claim","status":"active","total":{"code":"USD","system":"urn:iso:std:iso:4217","value":255},"use":"complete"}},{"resource":{"billablePeriod":{"end":"1981-12-22T20:45:50-05:00","start":"1981-12-21T17:45:50-05:00"},"id":"ee00a724-42f9-4b03-b3dc-6c3cfe5edc26","item":[{"encounter":[{"reference":"Encounter/2ff57236-4f20-4cea-82ce-26d44fd27dba"}],"sequence":1},{"net":{"code":"USD","system":"urn:iso:std:iso:4217","value":11394.96},"procedureLinkId":[1],"sequence":2,"service":{"coding":[{"code":"703423002","system":"http://snomed.info/sct","version":"v1"}]}}],"meta":{"lastUpdated":"2019-04-09T11:37:47.282769+00:00","versionId":"MTU1NDgwOTg2NzI4Mjc2OTAwMA"},"organization":{"reference":"Organization/a12765b6-0551-4d37-9dd5-8c35098a0fe0"},"patient":{"reference":"Patient/00aca144-58fe-4518-839b-ea14ddfd3e74"},"procedure":[{"procedureReference":{"reference":"Procedure/7ee6b0f8-3e7c-490e-8265-ea7098d4b673"},"sequence":1}],"resourceType":"Claim","status":"active","total":{"code":"USD","system":"urn:iso:std:iso:4217","value":11469.96},"use":"complete"}},{"resource":{"billablePeriod":{"end":"1936-03-23T18:00:50-05:00","start":"1936-03-23T17:45:50-05:00"},"id":"f45bed99-a69c-4f77-b1c7-686fb91024b5","item":[{"encounter":[{"reference":"Encounter/ed156db2-6c36-4f39-9bf1-2fca0ac35abf"}],"sequence":1}],"meta":{"lastUpdated":"2019-04-09T11:37:38.871070+00:00","versionId":"MTU1NDgwOTg1ODg3MTA3MDAwMA"},"organization":{"reference":"Organization/a12765b6-0551-4d37-9dd5-8c35098a0fe0"},"patient":{"reference":"Patient/00aca144-58fe-4518-839b-ea14ddfd3e74"},"resourceType":"Claim","status":"active","total":{"code":"USD","system":"urn:iso:std:iso:4217","value":125},"use":"complete"}},{"resource":{"billablePeriod":{"end":"1980-03-24T18:02:50-05:00","start":"1980-03-24T17:45:50-05:00"},"id":"f4b34c93-5818-441a-ab76-649182e938d2","information":[{"category":{"coding":[{"code":"info","system":"http://hl7.org/fhir/claiminformationcategory"}]},"sequence":1,"valueReference":{"reference":"Immunization/5884b771-dbc0-4f36-9a06-423b44101433"}}],"item":[{"encounter":[{"reference":"Encounter/2e99cdb2-5775-4cf9-a953-d47728ce2996"}],"sequence":1},{"informationLinkId":[1],"net":{"code":"USD","system":"urn:iso:std:iso:4217","value":140.52},"sequence":2},{"net":{"code":"USD","system":"urn:iso:std:iso:4217","value":516.65},"procedureLinkId":[1],"sequence":3,"service":{"coding":[{"code":"410006001","system":"http://snomed.info/sct","version":"v1"}]}}],"meta":{"lastUpdated":"2019-04-09T11:37:41.961445+00:00","versionId":"MTU1NDgwOTg2MTk2MTQ0NTAwMA"},"organization":{"reference":"Organization/a12765b6-0551-4d37-9dd5-8c35098a0fe0"},"patient":{"reference":"Patient/00aca144-58fe-4518-839b-ea14ddfd3e74"},"procedure":[{"procedureReference":{"reference":"Procedure/00c7e59a-1486-4303-aea8-c2389c8f1230"},"sequence":1}],"resourceType":"Claim","status":"active","total":{"code":"USD","system":"urn:iso:std:iso:4217","value":782.17},"use":"complete"}},{"resource":{"billablePeriod":{"end":"1983-06-05T21:45:50-04:00","start":"1983-06-04T18:45:50-04:00"},"id":"f56ccf52-b76b-49b4-8043-9a2fd58a1676","item":[{"encounter":[{"reference":"Encounter/0869787f-5489-4fd1-b500-db6e87395748"}],"sequence":1}],"meta":{"lastUpdated":"2019-04-09T11:37:51.323463+00:00","versionId":"MTU1NDgwOTg3MTMyMzQ2MzAwMA"},"organization":{"reference":"Organization/a12765b6-0551-4d37-9dd5-8c35098a0fe0"},"patient":{"reference":"Patient/00aca144-58fe-4518-839b-ea14ddfd3e74"},"prescription":{"reference":"MedicationRequest/265f17f5-21e2-4bfc-b37d-5cd85a7b9e6f"},"resourceType":"Claim","status":"active","total":{"code":"USD","system":"urn:iso:std:iso:4217","value":255},"use":"complete"}},{"resource":{"billablePeriod":{"end":"1982-11-30T20:45:50-05:00","start":"1982-11-29T17:45:50-05:00"},"id":"f59d2645-0de5-4f83-9489-7f5fa4d0af38","item":[{"encounter":[{"reference":"Encounter/75cf2809-638b-4994-b49d-b1217d49f3ec"}],"sequence":1}],"meta":{"lastUpdated":"2019-04-09T11:37:50.292271+00:00","versionId":"MTU1NDgwOTg3MDI5MjI3MTAwMA"},"organization":{"reference":"Organization/a12765b6-0551-4d37-9dd5-8c35098a0fe0"},"patient":{"reference":"Patient/00aca144-58fe-4518-839b-ea14ddfd3e74"},"prescription":{"reference":"MedicationRequest/7309b876-8198-456f-a32a-79ae26cdb768"},"resourceType":"Claim","status":"active","total":{"code":"USD","system":"urn:iso:std:iso:4217","value":255},"use":"complete"}},{"resource":{"billablePeriod":{"end":"1936-03-23T18:00:50-05:00","start":"1936-03-23T17:45:50-05:00"},"id":"f815394e-360c-4f0e-aa4e-5a83e810a5c5","item":[{"encounter":[{"reference":"Encounter/ed156db2-6c36-4f39-9bf1-2fca0ac35abf"}],"sequence":1}],"meta":{"lastUpdated":"2019-04-09T11:37:38.877390+00:00","versionId":"MTU1NDgwOTg1ODg3NzM5MDAwMA"},"organization":{"reference":"Organization/a12765b6-0551-4d37-9dd5-8c35098a0fe0"},"patient":{"reference":"Patient/00aca144-58fe-4518-839b-ea14ddfd3e74"},"prescription":{"reference":"MedicationRequest/d1bbbec3-44dd-4cd0-8bb6-f68c046fc724"},"resourceType":"Claim","status":"active","total":{"code":"USD","system":"urn:iso:std:iso:4217","value":255},"use":"complete"}},{"resource":{"billablePeriod":{"end":"1982-09-29T18:45:50-04:00","start":"1982-09-28T18:45:50-04:00"},"id":"f926f461-a0ca-4461-ab78-e3c911549b93","item":[{"encounter":[{"reference":"Encounter/6024bc52-7989-49a4-b3c1-ced98730dd6f"}],"sequence":1}],"meta":{"lastUpdated":"2019-04-09T11:37:49.285358+00:00","versionId":"MTU1NDgwOTg2OTI4NTM1ODAwMA"},"organization":{"reference":"Organization/a12765b6-0551-4d37-9dd5-8c35098a0fe0"},"patient":{"reference":"Patient/00aca144-58fe-4518-839b-ea14ddfd3e74"},"prescription":{"reference":"MedicationRequest/e2897ab1-40d4-4852-ad8c-afcd6a68a706"},"resourceType":"Claim","status":"active","total":{"code":"USD","system":"urn:iso:std:iso:4217","value":255},"use":"complete"}},{"resource":{"billablePeriod":{"end":"1924-04-10T19:57:50-05:00","start":"1924-04-10T17:45:50-05:00"},"id":"f9cf69d3-43ee-4d38-bb33-42d80c5a71f5","item":[{"encounter":[{"reference":"Encounter/4e89629e-e153-49e0-869e-9a3dbd2ebfb2"}],"sequence":1}],"meta":{"lastUpdated":"2019-04-09T11:37:37.786703+00:00","versionId":"MTU1NDgwOTg1Nzc4NjcwMzAwMA"},"organization":{"reference":"Organization/a12765b6-0551-4d37-9dd5-8c35098a0fe0"},"patient":{"reference":"Patient/00aca144-58fe-4518-839b-ea14ddfd3e74"},"resourceType":"Claim","status":"active","total":{"code":"USD","system":"urn:iso:std:iso:4217","value":125},"use":"complete"}},{"resource":{"billablePeriod":{"end":"1983-02-07T18:00:50-05:00","start":"1983-02-07T17:45:50-05:00"},"id":"fce24266-552f-4624-839d-6592d5b86194","information":[{"category":{"coding":[{"code":"info","system":"http://hl7.org/fhir/claiminformationcategory"}]},"sequence":1,"valueReference":{"reference":"Immunization/9bf7b057-7852-4b5c-8dc0-d98f34356dba"}}],"item":[{"encounter":[{"reference":"Encounter/a2bccfb2-8981-4727-a9df-5558c699c033"}],"sequence":1},{"informationLinkId":[1],"net":{"code":"USD","system":"urn:iso:std:iso:4217","value":140.52},"sequence":2}],"meta":{"lastUpdated":"2019-04-09T11:37:50.296997+00:00","versionId":"MTU1NDgwOTg3MDI5Njk5NzAwMA"},"organization":{"reference":"Organization/eb6d2f03-b7a7-4cd4-9c79-f25cd61b8992"},"patient":{"reference":"Patient/00aca144-58fe-4518-839b-ea14ddfd3e74"},"resourceType":"Claim","status":"active","total":{"code":"USD","system":"urn:iso:std:iso:4217","value":265.52},"use":"complete"}},{"resource":{"billablePeriod":{"end":"1983-01-31T19:45:50-05:00","start":"1983-01-30T17:45:50-05:00"},"id":"fdf84f40-97ba-462c-b40f-e9418f2d54d9","item":[{"encounter":[{"reference":"Encounter/231e1d6d-c314-4cf8-bf5c-f6bc56d783c2"}],"sequence":1}],"meta":{"lastUpdated":"2019-04-09T11:37:50.289428+00:00","versionId":"MTU1NDgwOTg3MDI4OTQyODAwMA"},"organization":{"reference":"Organization/a12765b6-0551-4d37-9dd5-8c35098a0fe0"},"patient":{"reference":"Patient/00aca144-58fe-4518-839b-ea14ddfd3e74"},"prescription":{"reference":"MedicationRequest/258d5f46-e01f-49e3-b120-31bff266016b"},"resourceType":"Claim","status":"active","total":{"code":"USD","system":"urn:iso:std:iso:4217","value":255},"use":"complete"}},{"resource":{"billablePeriod":{"end":"1981-06-21T20:45:50-04:00","start":"1981-06-20T18:45:50-04:00"},"id":"fe81b8b3-b775-4a07-ae2f-3b91b2428f22","item":[{"encounter":[{"reference":"Encounter/8ad3b91d-296f-4e84-a6be-2e2894662e31"}],"sequence":1}],"meta":{"lastUpdated":"2019-04-09T11:37:46.260620+00:00","versionId":"MTU1NDgwOTg2NjI2MDYyMDAwMA"},"organization":{"reference":"Organization/a12765b6-0551-4d37-9dd5-8c35098a0fe0"},"patient":{"reference":"Patient/00aca144-58fe-4518-839b-ea14ddfd3e74"},"prescription":{"reference":"MedicationRequest/4a8219f4-6ad8-49d0-8f2d-299e181f34e5"},"resourceType":"Claim","status":"active","total":{"code":"USD","system":"urn:iso:std:iso:4217","value":255},"use":"complete"}},{"resource":{"abatementDateTime":"1983-02-15T17:45:50-05:00","assertedDate":"1983-02-01T17:45:50-05:00","clinicalStatus":"resolved","code":{"coding":[{"code":"444814009","display":"Viral sinusitis (disorder)","system":"http://snomed.info/sct"}],"text":"Viral sinusitis (disorder)"},"context":{"reference":"Encounter/45d3954b-6291-46a5-9647-37495a36ad08"},"id":"1ce98bda-d51f-4761-a817-67cc6bd4d496","meta":{"lastUpdated":"2019-04-09T11:37:50.294894+00:00","versionId":"MTU1NDgwOTg3MDI5NDg5NDAwMA"},"onsetDateTime":"1983-02-01T17:45:50-05:00","resourceType":"Condition","subject":{"reference":"Patient/00aca144-58fe-4518-839b-ea14ddfd3e74"},"verificationStatus":"confirmed"}},{"resource":{"assertedDate":"1983-05-13T18:45:50-04:00","clinicalStatus":"active","code":{"coding":[{"code":"33737001","display":"Fracture of rib","system":"http://snomed.info/sct"}],"text":"Fracture of rib"},"context":{"reference":"Encounter/ebc37a1a-c96b-4a34-b77b-d5b454116a9c"},"id":"225a9126-aab3-433b-bef5-8dda4e061194","meta":{"lastUpdated":"2019-04-09T11:37:51.319545+00:00","versionId":"MTU1NDgwOTg3MTMxOTU0NTAwMA"},"onsetDateTime":"1983-05-13T18:45:50-04:00","resourceType":"Condition","subject":{"reference":"Patient/00aca144-58fe-4518-839b-ea14ddfd3e74"},"verificationStatus":"confirmed"}},{"resource":{"assertedDate":"1980-06-11T18:45:50-04:00","clinicalStatus":"active","code":{"coding":[{"code":"254637007","display":"Non-small cell lung cancer (disorder)","system":"http://snomed.info/sct"}],"text":"Non-small cell lung cancer (disorder)"},"context":{"reference":"Encounter/6ade0142-a373-4f84-ac6b-c3bee774cf44"},"id":"27b77c5c-a3a5-47b5-ad84-2050f4abaf71","meta":{"lastUpdated":"2019-04-09T11:37:42.970962+00:00","versionId":"MTU1NDgwOTg2Mjk3MDk2MjAwMA"},"onsetDateTime":"1980-06-11T18:45:50-04:00","resourceType":"Condition","subject":{"reference":"Patient/00aca144-58fe-4518-839b-ea14ddfd3e74"},"verificationStatus":"confirmed"}},{"resource":{"assertedDate":"1973-01-28T17:45:50-05:00","clinicalStatus":"active","code":{"coding":[{"code":"201834006","display":"Localized, primary osteoarthritis of the hand","system":"http://snomed.info/sct"}],"text":"Localized, primary osteoarthritis of the hand"},"context":{"reference":"Encounter/3d96fa4e-c45c-4c4f-92f9-10a9aee40dd9"},"id":"676e7987-310a-42cb-b636-4083a6f655bc","meta":{"lastUpdated":"2019-04-09T11:37:38.874359+00:00","versionId":"MTU1NDgwOTg1ODg3NDM1OTAwMA"},"onsetDateTime":"1973-01-28T17:45:50-05:00","resourceType":"Condition","subject":{"reference":"Patient/00aca144-58fe-4518-839b-ea14ddfd3e74"},"verificationStatus":"confirmed"}},{"resource":{"abatementDateTime":"1975-08-06T18:45:50-04:00","assertedDate":"1975-07-16T18:45:50-04:00","clinicalStatus":"resolved","code":{"coding":[{"code":"444814009","display":"Viral sinusitis (disorder)","system":"http://snomed.info/sct"}],"text":"Viral sinusitis (disorder)"},"context":{"reference":"Encounter/b166b1dc-0cbf-434f-892a-e6d04854be72"},"id":"be3fb7be-b6f6-41ad-ac2a-a3f4efd4bda1","meta":{"lastUpdated":"2019-04-09T11:37:39.946304+00:00","versionId":"MTU1NDgwOTg1OTk0NjMwNDAwMA"},"onsetDateTime":"1975-07-16T18:45:50-04:00","resourceType":"Condition","subject":{"reference":"Patient/00aca144-58fe-4518-839b-ea14ddfd3e74"},"verificationStatus":"confirmed"}},{"resource":{"assertedDate":"1980-06-05T18:45:50-04:00","clinicalStatus":"active","code":{"coding":[{"code":"162573006","display":"Suspected lung cancer (situation)","system":"http://snomed.info/sct"}],"text":"Suspected lung cancer (situation)"},"context":{"reference":"Encounter/79ff095d-c631-49b9-8c61-55e1a1abd5d2"},"id":"c7eea793-821e-4e87-84a7-bf7584ef003e","meta":{"lastUpdated":"2019-04-09T11:37:42.977977+00:00","versionId":"MTU1NDgwOTg2Mjk3Nzk3NzAwMA"},"onsetDateTime":"1980-06-05T18:45:50-04:00","resourceType":"Condition","subject":{"reference":"Patient/00aca144-58fe-4518-839b-ea14ddfd3e74"},"verificationStatus":"confirmed"}},{"resource":{"assertedDate":"1939-03-27T17:45:50-05:00","clinicalStatus":"active","code":{"coding":[{"code":"449868002","display":"Smokes tobacco daily","system":"http://snomed.info/sct"}],"text":"Smokes tobacco daily"},"context":{"reference":"Encounter/ce6f927f-15f1-49c3-941e-916f1e6d5c3e"},"id":"ce61f8b7-7659-44a1-8e50-b4887d8abdaa","meta":{"lastUpdated":"2019-04-09T11:37:38.869336+00:00","versionId":"MTU1NDgwOTg1ODg2OTMzNjAwMA"},"onsetDateTime":"1939-03-27T17:45:50-05:00","resourceType":"Condition","subject":{"reference":"Patient/00aca144-58fe-4518-839b-ea14ddfd3e74"},"verificationStatus":"confirmed"}},{"resource":{"assertedDate":"1980-06-12T18:45:50-04:00","clinicalStatus":"active","code":{"coding":[{"code":"424132000","display":"Non-small cell carcinoma of lung, TNM stage 1 (disorder)","system":"http://snomed.info/sct"}],"text":"Non-small cell carcinoma of lung, TNM stage 1 (disorder)"},"context":{"reference":"Encounter/107cf727-a4e0-4bc2-80eb-bcbe3f64ea6c"},"id":"deff3377-3c54-428f-afa0-e23eca55139d","meta":{"lastUpdated":"2019-04-09T11:37:42.990537+00:00","versionId":"MTU1NDgwOTg2Mjk5MDUzNzAwMA"},"onsetDateTime":"1980-06-12T18:45:50-04:00","resourceType":"Condition","subject":{"reference":"Patient/00aca144-58fe-4518-839b-ea14ddfd3e74"},"verificationStatus":"confirmed"}},{"resource":{"assertedDate":"1942-03-30T18:45:50-04:00","clinicalStatus":"active","code":{"coding":[{"code":"162864005","display":"Body mass index 30+ - obesity (finding)","system":"http://snomed.info/sct"}],"text":"Body mass index 30+ - obesity (finding)"},"context":{"reference":"Encounter/def24a1b-48bd-4bf4-8ea0-b78046c04807"},"id":"ecf1c6e5-c92c-4af3-a210-5143dd27efeb","meta":{"lastUpdated":"2019-04-09T11:37:38.869335+00:00","versionId":"MTU1NDgwOTg1ODg2OTMzNTAwMA"},"onsetDateTime":"1942-03-30T18:45:50-04:00","resourceType":"Condition","subject":{"reference":"Patient/00aca144-58fe-4518-839b-ea14ddfd3e74"},"verificationStatus":"confirmed"}},{"resource":{"code":{"coding":[{"code":"58410-2","display":"Complete blood count (hemogram) panel - Blood by Automated count","system":"http://loinc.org"}],"text":"Complete blood count (hemogram) panel - Blood by Automated count"},"context":{"reference":"Encounter/fe1db606-5fc8-4a62-a61c-98e9bb2b2c14"},"effectiveDateTime":"1979-03-19T17:45:50-05:00","id":"26f5cf90-d65f-43ff-9dd0-8e02b06bb642","issued":"1979-03-19T17:45:50.243-05:00","meta":{"lastUpdated":"2019-04-09T11:37:41.968119+00:00","versionId":"MTU1NDgwOTg2MTk2ODExOTAwMA"},"resourceType":"DiagnosticReport","result":[{"display":"Leukocytes [#/volume] in Blood by Automated count","reference":"Observation/66149938-1e34-4688-88d2-5e9d2194ad82"},{"display":"Erythrocytes [#/volume] in Blood by Automated count","reference":"Observation/8eaf7fb8-22dc-436d-9ddb-8c30114e45ed"},{"display":"Hemoglobin [Mass/volume] in Blood","reference":"Observation/7300b10f-b184-4659-be86-bb0441c5d88a"},{"display":"Hematocrit [Volume Fraction] of Blood by Automated count","reference":"Observation/ab91e528-d895-4cbb-9d3e-47c690e6765c"},{"display":"MCV [Entitic volume] by Automated count","reference":"Observation/f3d0ae19-2146-4eb7-8d8b-c01e4a0d5600"},{"display":"MCH [Entitic mass] by Automated count","reference":"Observation/4ef7aa44-0ac6-44e1-934f-2d50446b064b"},{"display":"MCHC [Mass/volume] by Automated count","reference":"Observation/f0fe7aaa-ce51-42e6-9d43-fb2c092e23fe"},{"display":"Erythrocyte distribution width [Entitic volume] by Automated count","reference":"Observation/45ec9f37-a75e-4a44-a632-8886bc600062"},{"display":"Platelets [#/volume] in Blood by Automated count","reference":"Observation/a8a6d4ab-ace6-40b2-9595-499d59e36fe8"},{"display":"Platelet distribution width [Entitic volume] in Blood by Automated count","reference":"Observation/8b9cbd0b-03fa-45d0-808a-abb5355a06e2"},{"display":"Platelet mean volume [Entitic volume] in Blood by Automated count","reference":"Observation/9755e91d-2c6c-4e93-b2eb-c5ad0b4dbba2"}],"status":"final","subject":{"reference":"Patient/00aca144-58fe-4518-839b-ea14ddfd3e74"}}},{"resource":{"code":{"coding":[{"code":"57698-3","display":"Lipid Panel","system":"http://loinc.org"}],"text":"Lipid Panel"},"context":{"reference":"Encounter/d1807bc2-4f2b-4379-99d9-d86fcdd23bc2"},"effectiveDateTime":"1974-02-18T18:45:50-04:00","id":"65fa79f6-f32c-421a-bbe9-8f443584f22b","issued":"1974-02-18T18:45:50.243-04:00","meta":{"lastUpdated":"2019-04-09T11:37:39.937896+00:00","versionId":"MTU1NDgwOTg1OTkzNzg5NjAwMA"},"resourceType":"DiagnosticReport","result":[{"display":"Total Cholesterol","reference":"Observation/4159a52f-78a4-4b33-83c5-e78c56525771"},{"display":"Triglycerides","reference":"Observation/807d9919-571c-4e4c-be73-3a84bfeafb79"},{"display":"Low Density Lipoprotein Cholesterol","reference":"Observation/be003981-d414-4091-8c47-23d9be553397"},{"display":"High Density Lipoprotein Cholesterol","reference":"Observation/c63b69af-87f2-4f8f-a2ac-b02eb0af5ba8"}],"status":"final","subject":{"reference":"Patient/00aca144-58fe-4518-839b-ea14ddfd3e74"}}},{"resource":{"code":{"coding":[{"code":"58410-2","display":"Complete blood count (hemogram) panel - Blood by Automated count","system":"http://loinc.org"}],"text":"Complete blood count (hemogram) panel - Blood by Automated count"},"context":{"reference":"Encounter/d1807bc2-4f2b-4379-99d9-d86fcdd23bc2"},"effectiveDateTime":"1974-02-18T18:45:50-04:00","id":"83a1470b-5b10-46a6-b044-5ea942bbc2f2","issued":"1974-02-18T18:45:50.243-04:00","meta":{"lastUpdated":"2019-04-09T11:37:39.949385+00:00","versionId":"MTU1NDgwOTg1OTk0OTM4NTAwMA"},"resourceType":"DiagnosticReport","result":[{"display":"Leukocytes [#/volume] in Blood by Automated count","reference":"Observation/c1f5618a-13fa-4884-9b9f-5dfd5b1ee901"},{"display":"Erythrocytes [#/volume] in Blood by Automated count","reference":"Observation/64637f98-4e1d-48e0-a2fd-b2619fc33b70"},{"display":"Hemoglobin [Mass/volume] in Blood","reference":"Observation/e84bdbfa-6508-4e0f-8fb8-4cc56a1639e8"},{"display":"Hematocrit [Volume Fraction] of Blood by Automated count","reference":"Observation/b36eae5d-d539-45d5-b5ad-fee85c06e8c9"},{"display":"MCV [Entitic volume] by Automated count","reference":"Observation/be48c4ed-4035-4c2f-b330-64f6590fcde2"},{"display":"MCH [Entitic mass] by Automated count","reference":"Observation/123b91f7-955c-4191-bcf7-8eb5c974d293"},{"display":"MCHC [Mass/volume] by Automated count","reference":"Observation/816cd57b-96e0-4391-9007-ad4fb4f3de67"},{"display":"Erythrocyte distribution width [Entitic volume] by Automated count","reference":"Observation/f4a13be3-5c28-483d-b294-b78d393c5cf6"},{"display":"Platelets [#/volume] in Blood by Automated count","reference":"Observation/300887c3-12c1-4b06-983d-d1051def7c32"},{"display":"Platelet distribution width [Entitic volume] in Blood by Automated count","reference":"Observation/b21ce62f-eb71-4c41-a592-6c0d8a51f34d"},{"display":"Platelet mean volume [Entitic volume] in Blood by Automated count","reference":"Observation/0221a0c4-fd16-4bc6-a620-a42e15acc00a"}],"status":"final","subject":{"reference":"Patient/00aca144-58fe-4518-839b-ea14ddfd3e74"}}},{"resource":{"code":{"coding":[{"code":"69409-1","display":"U.S. standard certificate of death - 2003 revision","system":"http://loinc.org"}],"text":"U.S. standard certificate of death - 2003 revision"},"context":{"reference":"Encounter/f8303302-7d7d-456c-8012-72ccfbfba2e2"},"effectiveDateTime":"1983-06-13T18:45:50-04:00","id":"8a565312-30b6-468a-8722-9c7c37f3537b","issued":"1983-06-13T18:45:50.243-04:00","meta":{"lastUpdated":"2019-04-09T11:37:51.324187+00:00","versionId":"MTU1NDgwOTg3MTMyNDE4NzAwMA"},"resourceType":"DiagnosticReport","result":[{"display":"Cause of Death [US Standard Certificate of Death]","reference":"Observation/c41b7548-cea4-4758-b305-1fc0d0b4532e"}],"status":"final","subject":{"reference":"Patient/00aca144-58fe-4518-839b-ea14ddfd3e74"}}},{"resource":{"code":{"coding":[{"code":"57698-3","display":"Lipid Panel","system":"http://loinc.org"}],"text":"Lipid Panel"},"context":{"reference":"Encounter/2e99cdb2-5775-4cf9-a953-d47728ce2996"},"effectiveDateTime":"1980-03-24T17:45:50-05:00","id":"bf723f55-752a-4ed4-8257-a207fa77288d","issued":"1980-03-24T17:45:50.243-05:00","meta":{"lastUpdated":"2019-04-09T11:37:41.963123+00:00","versionId":"MTU1NDgwOTg2MTk2MzEyMzAwMA"},"resourceType":"DiagnosticReport","result":[{"display":"Total Cholesterol","reference":"Observation/5197e04b-9acf-458b-8d38-4830bde0a26f"},{"display":"Triglycerides","reference":"Observation/e56bf271-8d04-40e1-8a48-fbd32c4f0d71"},{"display":"Low Density Lipoprotein Cholesterol","reference":"Observation/47c341e6-ca6b-4bf0-9a36-2b7f3305c6f6"},{"display":"High Density Lipoprotein Cholesterol","reference":"Observation/f963790c-4a72-41bc-a2e5-52d802953f41"}],"status":"final","subject":{"reference":"Patient/00aca144-58fe-4518-839b-ea14ddfd3e74"}}},{"resource":{"code":{"coding":[{"code":"57698-3","display":"Lipid Panel","system":"http://loinc.org"}],"text":"Lipid Panel"},"context":{"reference":"Encounter/8aae80e8-e7d0-4971-a4fe-4fd6fe416597"},"effectiveDateTime":"1977-03-07T17:45:50-05:00","id":"feddea9a-161c-4e6d-95fc-5cdc34aa4488","issued":"1977-03-07T17:45:50.243-05:00","meta":{"lastUpdated":"2019-04-09T11:37:40.951694+00:00","versionId":"MTU1NDgwOTg2MDk1MTY5NDAwMA"},"resourceType":"DiagnosticReport","result":[{"display":"Total Cholesterol","reference":"Observation/0ce18f88-7932-4483-82d5-38e666c38c44"},{"display":"Triglycerides","reference":"Observation/9a6aca43-8875-4dc8-954f-6c4f172cbe62"},{"display":"Low Density Lipoprotein Cholesterol","reference":"Observation/aded08fa-d14b-4136-8d2e-dbab5adf0aed"},{"display":"High Density Lipoprotein Cholesterol","reference":"Observation/85407f92-af66-4b76-a88f-34658c8648bc"}],"status":"final","subject":{"reference":"Patient/00aca144-58fe-4518-839b-ea14ddfd3e74"}}},{"resource":{"class":{"code":"inpatient"},"id":"017cbb54-1fb2-4eef-a681-b0abc57e1d37","meta":{"lastUpdated":"2019-04-09T11:37:48.283400+00:00","versionId":"MTU1NDgwOTg2ODI4MzQwMDAwMA"},"participant":[{"individual":{"reference":"Practitioner/057a6b50-d4e9-4039-a28b-c1e7a5248a0f"}}],"period":{"end":"1982-05-26T19:45:50-04:00","start":"1982-05-25T18:45:50-04:00"},"resourceType":"Encounter","serviceProvider":{"reference":"Organization/a12765b6-0551-4d37-9dd5-8c35098a0fe0"},"status":"finished","subject":{"reference":"Patient/00aca144-58fe-4518-839b-ea14ddfd3e74"},"type":[{"coding":[{"code":"185347001","display":"Encounter for problem","system":"http://snomed.info/sct"}],"text":"Encounter for problem"}]}},{"resource":{"class":{"code":"WELLNESS"},"id":"01b937bb-5add-4ab7-9165-f110405ade3f","meta":{"lastUpdated":"2019-04-09T11:37:40.951690+00:00","versionId":"MTU1NDgwOTg2MDk1MTY5MDAwMA"},"participant":[{"individual":{"reference":"Practitioner/057a6b50-d4e9-4039-a28b-c1e7a5248a0f"}}],"period":{"end":"1978-03-13T18:03:50-05:00","start":"1978-03-13T17:45:50-05:00"},"resourceType":"Encounter","serviceProvider":{"reference":"Organization/a12765b6-0551-4d37-9dd5-8c35098a0fe0"},"status":"finished","subject":{"reference":"Patient/00aca144-58fe-4518-839b-ea14ddfd3e74"},"type":[{"coding":[{"code":"185349003","display":"Encounter for check up (procedure)","system":"http://snomed.info/sct"}],"text":"Encounter for check up (procedure)"}]}},{"resource":{"class":{"code":"inpatient"},"id":"04ff931b-a5a1-4c2c-878a-989d90affd44","meta":{"lastUpdated":"2019-04-09T11:37:45.231188+00:00","versionId":"MTU1NDgwOTg2NTIzMTE4ODAwMA"},"participant":[{"individual":{"reference":"Practitioner/057a6b50-d4e9-4039-a28b-c1e7a5248a0f"}}],"period":{"end":"1981-04-20T19:45:50-05:00","start":"1981-04-19T17:45:50-05:00"},"resourceType":"Encounter","serviceProvider":{"reference":"Organization/a12765b6-0551-4d37-9dd5-8c35098a0fe0"},"status":"finished","subject":{"reference":"Patient/00aca144-58fe-4518-839b-ea14ddfd3e74"},"type":[{"coding":[{"code":"185347001","display":"Encounter for problem","system":"http://snomed.info/sct"}],"text":"Encounter for problem"}]}},{"resource":{"class":{"code":"inpatient"},"id":"0869787f-5489-4fd1-b500-db6e87395748","meta":{"lastUpdated":"2019-04-09T11:37:51.311702+00:00","versionId":"MTU1NDgwOTg3MTMxMTcwMjAwMA"},"participant":[{"individual":{"reference":"Practitioner/057a6b50-d4e9-4039-a28b-c1e7a5248a0f"}}],"period":{"end":"1983-06-05T21:45:50-04:00","start":"1983-06-04T18:45:50-04:00"},"resourceType":"Encounter","serviceProvider":{"reference":"Organization/a12765b6-0551-4d37-9dd5-8c35098a0fe0"},"status":"finished","subject":{"reference":"Patient/00aca144-58fe-4518-839b-ea14ddfd3e74"},"type":[{"coding":[{"code":"185347001","display":"Encounter for problem","system":"http://snomed.info/sct"}],"text":"Encounter for problem"}]}},{"resource":{"class":{"code":"outpatient"},"id":"107cf727-a4e0-4bc2-80eb-bcbe3f64ea6c","meta":{"lastUpdated":"2019-04-09T11:37:42.978579+00:00","versionId":"MTU1NDgwOTg2Mjk3ODU3OTAwMA"},"participant":[{"individual":{"reference":"Practitioner/057a6b50-d4e9-4039-a28b-c1e7a5248a0f"}}],"period":{"end":"1980-06-12T20:52:50-04:00","start":"1980-06-12T18:45:50-04:00"},"reason":[{"coding":[{"code":"424132000","display":"Non-small cell carcinoma of lung, TNM stage 1 (disorder)","system":"http://snomed.info/sct"}]}],"resourceType":"Encounter","serviceProvider":{"reference":"Organization/a12765b6-0551-4d37-9dd5-8c35098a0fe0"},"status":"finished","subject":{"reference":"Patient/00aca144-58fe-4518-839b-ea14ddfd3e74"},"type":[{"coding":[{"code":"185347001","display":"Encounter for problem","system":"http://snomed.info/sct"}],"text":"Encounter for problem"}]}},{"resource":{"class":{"code":"inpatient"},"id":"11cf5f25-e5f2-43d2-83e6-9e829427a58a","meta":{"lastUpdated":"2019-04-09T11:37:50.290512+00:00","versionId":"MTU1NDgwOTg3MDI5MDUxMjAwMA"},"participant":[{"individual":{"reference":"Practitioner/057a6b50-d4e9-4039-a28b-c1e7a5248a0f"}}],"period":{"end":"1983-03-01T20:45:50-05:00","start":"1983-02-28T17:45:50-05:00"},"resourceType":"Encounter","serviceProvider":{"reference":"Organization/a12765b6-0551-4d37-9dd5-8c35098a0fe0"},"status":"finished","subject":{"reference":"Patient/00aca144-58fe-4518-839b-ea14ddfd3e74"},"type":[{"coding":[{"code":"185347001","display":"Encounter for problem","system":"http://snomed.info/sct"}],"text":"Encounter for problem"}]}},{"resource":{"class":{"code":"inpatient"},"id":"1dc1cd0d-0488-4142-92ed-0b565b8542c5","meta":{"lastUpdated":"2019-04-09T11:37:42.971432+00:00","versionId":"MTU1NDgwOTg2Mjk3MTQzMjAwMA"},"participant":[{"individual":{"reference":"Practitioner/057a6b50-d4e9-4039-a28b-c1e7a5248a0f"}}],"period":{"end":"1980-06-13T18:45:50-04:00","start":"1980-06-12T18:45:50-04:00"},"resourceType":"Encounter","serviceProvider":{"reference":"Organization/a12765b6-0551-4d37-9dd5-8c35098a0fe0"},"status":"finished","subject":{"reference":"Patient/00aca144-58fe-4518-839b-ea14ddfd3e74"},"type":[{"coding":[{"code":"185347001","display":"Encounter for problem","system":"http://snomed.info/sct"}],"text":"Encounter for problem"}]}},{"resource":{"class":{"code":"emergency"},"id":"1e08c825-67c1-4ad2-8d24-e96c6239b50f","meta":{"lastUpdated":"2019-04-09T11:37:38.871285+00:00","versionId":"MTU1NDgwOTg1ODg3MTI4NTAwMA"},"participant":[{"individual":{"reference":"Practitioner/057a6b50-d4e9-4039-a28b-c1e7a5248a0f"}}],"period":{"end":"1956-01-21T19:15:50-05:00","start":"1956-01-21T17:45:50-05:00"},"resourceType":"Encounter","serviceProvider":{"reference":"Organization/a12765b6-0551-4d37-9dd5-8c35098a0fe0"},"status":"finished","subject":{"reference":"Patient/00aca144-58fe-4518-839b-ea14ddfd3e74"},"type":[{"coding":[{"code":"50849002","display":"Emergency room admission (procedure)","system":"http://snomed.info/sct"}],"text":"Emergency room admission (procedure)"}]}},{"resource":{"class":{"code":"WELLNESS"},"id":"20b05d99-0572-425e-8f6f-31cb67577083","meta":{"lastUpdated":"2019-04-09T11:37:50.290510+00:00","versionId":"MTU1NDgwOTg3MDI5MDUxMDAwMA"},"participant":[{"individual":{"reference":"Practitioner/057a6b50-d4e9-4039-a28b-c1e7a5248a0f"}}],"period":{"end":"1983-02-14T18:15:50-05:00","start":"1983-02-14T17:45:50-05:00"},"resourceType":"Encounter","serviceProvider":{"reference":"Organization/a12765b6-0551-4d37-9dd5-8c35098a0fe0"},"status":"finished","subject":{"reference":"Patient/00aca144-58fe-4518-839b-ea14ddfd3e74"},"type":[{"coding":[{"code":"185349003","display":"Encounter for check up (procedure)","system":"http://snomed.info/sct"}],"text":"Encounter for check up (procedure)"}]}},{"resource":{"class":{"code":"ambulatory"},"hospitalization":{"dischargeDisposition":{"coding":[{"code":"01","display":"Discharged home safe","system":"http://www.nubc.org/patient-discharge"}],"text":"Discharged home safe"}},"id":"21f40688-528a-4073-9f73-1bcea1660625","meta":{"lastUpdated":"2019-04-09T11:37:38.877394+00:00","versionId":"MTU1NDgwOTg1ODg3NzM5NDAwMA"},"participant":[{"individual":{"reference":"Practitioner/057a6b50-d4e9-4039-a28b-c1e7a5248a0f"}}],"period":{"end":"1952-02-03T19:08:50-05:00","start":"1952-02-03T17:45:50-05:00"},"reason":[{"coding":[{"code":"47505003","display":"Posttraumatic stress disorder","system":"http://snomed.info/sct"}]}],"resourceType":"Encounter","serviceProvider":{"reference":"Organization/a12765b6-0551-4d37-9dd5-8c35098a0fe0"},"status":"finished","subject":{"reference":"Patient/00aca144-58fe-4518-839b-ea14ddfd3e74"},"type":[{"coding":[{"code":"185345009","display":"Encounter for symptom","system":"http://snomed.info/sct"}],"text":"Encounter for symptom"}]}},{"resource":{"class":{"code":"inpatient"},"id":"231e1d6d-c314-4cf8-bf5c-f6bc56d783c2","meta":{"lastUpdated":"2019-04-09T11:37:50.288065+00:00","versionId":"MTU1NDgwOTg3MDI4ODA2NTAwMA"},"participant":[{"individual":{"reference":"Practitioner/057a6b50-d4e9-4039-a28b-c1e7a5248a0f"}}],"period":{"end":"1983-01-31T19:45:50-05:00","start":"1983-01-30T17:45:50-05:00"},"resourceType":"Encounter","serviceProvider":{"reference":"Organization/a12765b6-0551-4d37-9dd5-8c35098a0fe0"},"status":"finished","subject":{"reference":"Patient/00aca144-58fe-4518-839b-ea14ddfd3e74"},"type":[{"coding":[{"code":"185347001","display":"Encounter for problem","system":"http://snomed.info/sct"}],"text":"Encounter for problem"}]}},{"resource":{"class":{"code":"WELLNESS"},"id":"2e99cdb2-5775-4cf9-a953-d47728ce2996","meta":{"lastUpdated":"2019-04-09T11:37:41.961136+00:00","versionId":"MTU1NDgwOTg2MTk2MTEzNjAwMA"},"participant":[{"individual":{"reference":"Practitioner/057a6b50-d4e9-4039-a28b-c1e7a5248a0f"}}],"period":{"end":"1980-03-24T18:02:50-05:00","start":"1980-03-24T17:45:50-05:00"},"resourceType":"Encounter","serviceProvider":{"reference":"Organization/a12765b6-0551-4d37-9dd5-8c35098a0fe0"},"status":"finished","subject":{"reference":"Patient/00aca144-58fe-4518-839b-ea14ddfd3e74"},"type":[{"coding":[{"code":"185349003","display":"Encounter for check up (procedure)","system":"http://snomed.info/sct"}],"text":"Encounter for check up (procedure)"}]}},{"resource":{"class":{"code":"inpatient"},"id":"2fdbfc0e-dd60-494b-a9b2-ef3a3bdf8753","meta":{"lastUpdated":"2019-04-09T11:37:45.239494+00:00","versionId":"MTU1NDgwOTg2NTIzOTQ5NDAwMA"},"participant":[{"individual":{"reference":"Practitioner/057a6b50-d4e9-4039-a28b-c1e7a5248a0f"}}],"period":{"end":"1981-02-21T19:45:50-05:00","start":"1981-02-20T17:45:50-05:00"},"resourceType":"Encounter","serviceProvider":{"reference":"Organization/a12765b6-0551-4d37-9dd5-8c35098a0fe0"},"status":"finished","subject":{"reference":"Patient/00aca144-58fe-4518-839b-ea14ddfd3e74"},"type":[{"coding":[{"code":"185347001","display":"Encounter for problem","system":"http://snomed.info/sct"}],"text":"Encounter for problem"}]}},{"resource":{"class":{"code":"inpatient"},"id":"2ff57236-4f20-4cea-82ce-26d44fd27dba","meta":{"lastUpdated":"2019-04-09T11:37:47.273740+00:00","versionId":"MTU1NDgwOTg2NzI3Mzc0MDAwMA"},"participant":[{"individual":{"reference":"Practitioner/057a6b50-d4e9-4039-a28b-c1e7a5248a0f"}}],"period":{"end":"1981-12-22T20:45:50-05:00","start":"1981-12-21T17:45:50-05:00"},"resourceType":"Encounter","serviceProvider":{"reference":"Organization/a12765b6-0551-4d37-9dd5-8c35098a0fe0"},"status":"finished","subject":{"reference":"Patient/00aca144-58fe-4518-839b-ea14ddfd3e74"},"type":[{"coding":[{"code":"185347001","display":"Encounter for problem","system":"http://snomed.info/sct"}],"text":"Encounter for problem"}]}},{"resource":{"class":{"code":"inpatient"},"id":"331eafda-59d7-4bc1-be6b-15a16877040a","meta":{"lastUpdated":"2019-04-09T11:37:50.287655+00:00","versionId":"MTU1NDgwOTg3MDI4NzY1NTAwMA"},"participant":[{"individual":{"reference":"Practitioner/057a6b50-d4e9-4039-a28b-c1e7a5248a0f"}}],"period":{"end":"1982-12-30T18:45:50-05:00","start":"1982-12-29T17:45:50-05:00"},"resourceType":"Encounter","serviceProvider":{"reference":"Organization/a12765b6-0551-4d37-9dd5-8c35098a0fe0"},"status":"finished","subject":{"reference":"Patient/00aca144-58fe-4518-839b-ea14ddfd3e74"},"type":[{"coding":[{"code":"185347001","display":"Encounter for problem","system":"http://snomed.info/sct"}],"text":"Encounter for problem"}]}},{"resource":{"class":{"code":"inpatient"},"id":"3682f589-1f41-4bdc-a1af-30bc178f7316","meta":{"lastUpdated":"2019-04-09T11:37:42.999256+00:00","versionId":"MTU1NDgwOTg2Mjk5OTI1NjAwMA"},"participant":[{"individual":{"reference":"Practitioner/057a6b50-d4e9-4039-a28b-c1e7a5248a0f"}}],"period":{"end":"1980-07-13T18:45:50-04:00","start":"1980-07-12T18:45:50-04:00"},"resourceType":"Encounter","serviceProvider":{"reference":"Organization/a12765b6-0551-4d37-9dd5-8c35098a0fe0"},"status":"finished","subject":{"reference":"Patient/00aca144-58fe-4518-839b-ea14ddfd3e74"},"type":[{"coding":[{"code":"185347001","display":"Encounter for problem","system":"http://snomed.info/sct"}],"text":"Encounter for problem"}]}},{"resource":{"class":{"code":"inpatient"},"id":"36fb461c-052a-46c6-a3f4-e7865a49b7c5","meta":{"lastUpdated":"2019-04-09T11:37:44.080568+00:00","versionId":"MTU1NDgwOTg2NDA4MDU2ODAwMA"},"participant":[{"individual":{"reference":"Practitioner/057a6b50-d4e9-4039-a28b-c1e7a5248a0f"}}],"period":{"end":"1980-11-18T18:45:50-05:00","start":"1980-11-17T17:45:50-05:00"},"resourceType":"Encounter","serviceProvider":{"reference":"Organization/a12765b6-0551-4d37-9dd5-8c35098a0fe0"},"status":"finished","subject":{"reference":"Patient/00aca144-58fe-4518-839b-ea14ddfd3e74"},"type":[{"coding":[{"code":"185347001","display":"Encounter for problem","system":"http://snomed.info/sct"}],"text":"Encounter for problem"}]}},{"resource":{"class":{"code":"ambulatory"},"id":"3c422adc-0041-4794-9a1e-c6ab4cb07545","meta":{"lastUpdated":"2019-04-09T11:37:48.283398+00:00","versionId":"MTU1NDgwOTg2ODI4MzM5ODAwMA"},"participant":[{"individual":{"reference":"Practitioner/057a6b50-d4e9-4039-a28b-c1e7a5248a0f"}}],"period":{"end":"1982-04-05T18:30:50-05:00","start":"1982-04-05T17:45:50-05:00"},"resourceType":"Encounter","serviceProvider":{"reference":"Organization/a12765b6-0551-4d37-9dd5-8c35098a0fe0"},"status":"finished","subject":{"reference":"Patient/00aca144-58fe-4518-839b-ea14ddfd3e74"},"type":[{"coding":[{"code":"185345009","display":"Encounter for symptom","system":"http://snomed.info/sct"}],"text":"Encounter for symptom"}]}},{"resource":{"class":{"code":"ambulatory"},"id":"3d7c00f0-e6ce-4493-b684-9246cebaf952","meta":{"lastUpdated":"2019-04-09T11:37:38.877395+00:00","versionId":"MTU1NDgwOTg1ODg3NzM5NTAwMA"},"participant":[{"individual":{"reference":"Practitioner/057a6b50-d4e9-4039-a28b-c1e7a5248a0f"}}],"period":{"end":"1947-02-04T18:13:50-05:00","start":"1947-02-04T17:45:50-05:00"},"reason":[{"coding":[{"code":"10509002","display":"Acute bronchitis (disorder)","system":"http://snomed.info/sct"}]}],"resourceType":"Encounter","serviceProvider":{"reference":"Organization/a12765b6-0551-4d37-9dd5-8c35098a0fe0"},"status":"finished","subject":{"reference":"Patient/00aca144-58fe-4518-839b-ea14ddfd3e74"},"type":[{"coding":[{"code":"185345009","display":"Encounter for symptom","system":"http://snomed.info/sct"}],"text":"Encounter for symptom"}]}},{"resource":{"class":{"code":"ambulatory"},"id":"3d96fa4e-c45c-4c4f-92f9-10a9aee40dd9","meta":{"lastUpdated":"2019-04-09T11:37:38.871287+00:00","versionId":"MTU1NDgwOTg1ODg3MTI4NzAwMA"},"participant":[{"individual":{"reference":"Practitioner/057a6b50-d4e9-4039-a28b-c1e7a5248a0f"}}],"period":{"end":"1973-01-28T18:00:50-05:00","start":"1973-01-28T17:45:50-05:00"},"reason":[{"coding":[{"code":"201834006","display":"Localized, primary osteoarthritis of the hand","system":"http://snomed.info/sct"}]}],"resourceType":"Encounter","serviceProvider":{"reference":"Organization/a12765b6-0551-4d37-9dd5-8c35098a0fe0"},"status":"finished","subject":{"reference":"Patient/00aca144-58fe-4518-839b-ea14ddfd3e74"},"type":[{"coding":[{"code":"185347001","display":"Encounter for problem","system":"http://snomed.info/sct"}],"text":"Encounter for problem"}]}},{"resource":{"class":{"code":"ambulatory"},"id":"420e9208-e573-4753-93b1-ca0f69533e1c","meta":{"lastUpdated":"2019-04-09T11:37:37.786692+00:00","versionId":"MTU1NDgwOTg1Nzc4NjY5MjAwMA"},"participant":[{"individual":{"reference":"Practitioner/057a6b50-d4e9-4039-a28b-c1e7a5248a0f"}}],"period":{"end":"1925-02-08T18:19:50-05:00","start":"1925-02-08T17:45:50-05:00"},"reason":[{"coding":[{"code":"10509002","display":"Acute bronchitis (disorder)","system":"http://snomed.info/sct"}]}],"resourceType":"Encounter","serviceProvider":{"reference":"Organization/a12765b6-0551-4d37-9dd5-8c35098a0fe0"},"status":"finished","subject":{"reference":"Patient/00aca144-58fe-4518-839b-ea14ddfd3e74"},"type":[{"coding":[{"code":"185345009","display":"Encounter for symptom","system":"http://snomed.info/sct"}],"text":"Encounter for symptom"}]}},{"resource":{"class":{"code":"ambulatory"},"id":"45d3954b-6291-46a5-9647-37495a36ad08","meta":{"lastUpdated":"2019-04-09T11:37:50.294890+00:00","versionId":"MTU1NDgwOTg3MDI5NDg5MDAwMA"},"participant":[{"individual":{"reference":"Practitioner/057a6b50-d4e9-4039-a28b-c1e7a5248a0f"}}],"period":{"end":"1983-02-01T18:00:50-05:00","start":"1983-02-01T17:45:50-05:00"},"reason":[{"coding":[{"code":"444814009","display":"Viral sinusitis (disorder)","system":"http://snomed.info/sct"}]}],"resourceType":"Encounter","serviceProvider":{"reference":"Organization/a12765b6-0551-4d37-9dd5-8c35098a0fe0"},"status":"finished","subject":{"reference":"Patient/00aca144-58fe-4518-839b-ea14ddfd3e74"},"type":[{"coding":[{"code":"185345009","display":"Encounter for symptom","system":"http://snomed.info/sct"}],"text":"Encounter for symptom"}]}},{"resource":{"class":{"code":"emergency"},"id":"4e89629e-e153-49e0-869e-9a3dbd2ebfb2","meta":{"lastUpdated":"2019-04-09T11:37:37.785875+00:00","versionId":"MTU1NDgwOTg1Nzc4NTg3NTAwMA"},"participant":[{"individual":{"reference":"Practitioner/057a6b50-d4e9-4039-a28b-c1e7a5248a0f"}}],"period":{"end":"1924-04-10T19:57:50-05:00","start":"1924-04-10T17:45:50-05:00"},"resourceType":"Encounter","serviceProvider":{"reference":"Organization/a12765b6-0551-4d37-9dd5-8c35098a0fe0"},"status":"finished","subject":{"reference":"Patient/00aca144-58fe-4518-839b-ea14ddfd3e74"},"type":[{"coding":[{"code":"50849002","display":"Emergency room admission (procedure)","system":"http://snomed.info/sct"}],"text":"Emergency room admission (procedure)"}]}},{"resource":{"class":{"code":"inpatient"},"id":"4eed09f0-e0a8-4ee3-913f-8a3130b338dc","meta":{"lastUpdated":"2019-04-09T11:37:48.282845+00:00","versionId":"MTU1NDgwOTg2ODI4Mjg0NTAwMA"},"participant":[{"individual":{"reference":"Practitioner/057a6b50-d4e9-4039-a28b-c1e7a5248a0f"}}],"period":{"end":"1982-06-29T19:45:50-04:00","start":"1982-06-28T18:45:50-04:00"},"resourceType":"Encounter","serviceProvider":{"reference":"Organization/a12765b6-0551-4d37-9dd5-8c35098a0fe0"},"status":"finished","subject":{"reference":"Patient/00aca144-58fe-4518-839b-ea14ddfd3e74"},"type":[{"coding":[{"code":"185347001","display":"Encounter for problem","system":"http://snomed.info/sct"}],"text":"Encounter for problem"}]}},{"resource":{"class":{"code":"inpatient"},"id":"532cfcf1-bedc-4ae5-b930-457f996d7e5a","meta":{"lastUpdated":"2019-04-09T11:37:48.282842+00:00","versionId":"MTU1NDgwOTg2ODI4Mjg0MjAwMA"},"participant":[{"individual":{"reference":"Practitioner/057a6b50-d4e9-4039-a28b-c1e7a5248a0f"}}],"period":{"end":"1982-04-25T18:45:50-04:00","start":"1982-04-24T17:45:50-05:00"},"resourceType":"Encounter","serviceProvider":{"reference":"Organization/a12765b6-0551-4d37-9dd5-8c35098a0fe0"},"status":"finished","subject":{"reference":"Patient/00aca144-58fe-4518-839b-ea14ddfd3e74"},"type":[{"coding":[{"code":"185347001","display":"Encounter for problem","system":"http://snomed.info/sct"}],"text":"Encounter for problem"}]}},{"resource":{"class":{"code":"inpatient"},"id":"55c723a2-3679-42dc-94c5-c07347136de5","meta":{"lastUpdated":"2019-04-09T11:37:47.273742+00:00","versionId":"MTU1NDgwOTg2NzI3Mzc0MjAwMA"},"participant":[{"individual":{"reference":"Practitioner/057a6b50-d4e9-4039-a28b-c1e7a5248a0f"}}],"period":{"end":"1982-01-21T18:45:50-05:00","start":"1982-01-20T17:45:50-05:00"},"resourceType":"Encounter","serviceProvider":{"reference":"Organization/a12765b6-0551-4d37-9dd5-8c35098a0fe0"},"status":"finished","subject":{"reference":"Patient/00aca144-58fe-4518-839b-ea14ddfd3e74"},"type":[{"coding":[{"code":"185347001","display":"Encounter for problem","system":"http://snomed.info/sct"}],"text":"Encounter for problem"}]}},{"resource":{"class":{"code":"inpatient"},"id":"6024bc52-7989-49a4-b3c1-ced98730dd6f","meta":{"lastUpdated":"2019-04-09T11:37:49.275207+00:00","versionId":"MTU1NDgwOTg2OTI3NTIwNzAwMA"},"participant":[{"individual":{"reference":"Practitioner/057a6b50-d4e9-4039-a28b-c1e7a5248a0f"}}],"period":{"end":"1982-09-29T18:45:50-04:00","start":"1982-09-28T18:45:50-04:00"},"resourceType":"Encounter","serviceProvider":{"reference":"Organization/a12765b6-0551-4d37-9dd5-8c35098a0fe0"},"status":"finished","subject":{"reference":"Patient/00aca144-58fe-4518-839b-ea14ddfd3e74"},"type":[{"coding":[{"code":"185347001","display":"Encounter for problem","system":"http://snomed.info/sct"}],"text":"Encounter for problem"}]}},{"resource":{"class":{"code":"WELLNESS"},"id":"643decf6-e5c6-400a-9fd9-d3bfafd12b44","meta":{"lastUpdated":"2019-04-09T11:37:47.273752+00:00","versionId":"MTU1NDgwOTg2NzI3Mzc1MjAwMA"},"participant":[{"individual":{"reference":"Practitioner/057a6b50-d4e9-4039-a28b-c1e7a5248a0f"}}],"period":{"end":"1982-04-05T18:17:50-05:00","start":"1982-04-05T17:45:50-05:00"},"resourceType":"Encounter","serviceProvider":{"reference":"Organization/a12765b6-0551-4d37-9dd5-8c35098a0fe0"},"status":"finished","subject":{"reference":"Patient/00aca144-58fe-4518-839b-ea14ddfd3e74"},"type":[{"coding":[{"code":"185349003","display":"Encounter for check up (procedure)","system":"http://snomed.info/sct"}],"text":"Encounter for check up (procedure)"}]}},{"resource":{"class":{"code":"inpatient"},"id":"678d4104-542b-40de-a9c6-8a9a4731314e","meta":{"lastUpdated":"2019-04-09T11:37:46.253104+00:00","versionId":"MTU1NDgwOTg2NjI1MzEwNDAwMA"},"participant":[{"individual":{"reference":"Practitioner/057a6b50-d4e9-4039-a28b-c1e7a5248a0f"}}],"period":{"end":"1981-07-19T19:45:50-04:00","start":"1981-07-18T18:45:50-04:00"},"resourceType":"Encounter","serviceProvider":{"reference":"Organization/a12765b6-0551-4d37-9dd5-8c35098a0fe0"},"status":"finished","subject":{"reference":"Patient/00aca144-58fe-4518-839b-ea14ddfd3e74"},"type":[{"coding":[{"code":"185347001","display":"Encounter for problem","system":"http://snomed.info/sct"}],"text":"Encounter for problem"}]}},{"resource":{"class":{"code":"outpatient"},"id":"6ade0142-a373-4f84-ac6b-c3bee774cf44","meta":{"lastUpdated":"2019-04-09T11:37:42.988156+00:00","versionId":"MTU1NDgwOTg2Mjk4ODE1NjAwMA"},"participant":[{"individual":{"reference":"Practitioner/057a6b50-d4e9-4039-a28b-c1e7a5248a0f"}}],"period":{"end":"1980-06-11T19:15:50-04:00","start":"1980-06-11T18:45:50-04:00"},"reason":[{"coding":[{"code":"254637007","display":"Non-small cell lung cancer (disorder)","system":"http://snomed.info/sct"}]}],"resourceType":"Encounter","serviceProvider":{"reference":"Organization/a12765b6-0551-4d37-9dd5-8c35098a0fe0"},"status":"finished","subject":{"reference":"Patient/00aca144-58fe-4518-839b-ea14ddfd3e74"},"type":[{"coding":[{"code":"185347001","display":"Encounter for problem","system":"http://snomed.info/sct"}],"text":"Encounter for problem"}]}},{"resource":{"class":{"code":"inpatient"},"id":"6e204a90-8bd6-4e97-870e-180dadffda50","meta":{"lastUpdated":"2019-04-09T11:37:44.087295+00:00","versionId":"MTU1NDgwOTg2NDA4NzI5NTAwMA"},"participant":[{"individual":{"reference":"Practitioner/057a6b50-d4e9-4039-a28b-c1e7a5248a0f"}}],"period":{"end":"1980-09-13T18:45:50-04:00","start":"1980-09-12T18:45:50-04:00"},"resourceType":"Encounter","serviceProvider":{"reference":"Organization/a12765b6-0551-4d37-9dd5-8c35098a0fe0"},"status":"finished","subject":{"reference":"Patient/00aca144-58fe-4518-839b-ea14ddfd3e74"},"type":[{"coding":[{"code":"185347001","display":"Encounter for problem","system":"http://snomed.info/sct"}],"text":"Encounter for problem"}]}}],"link":[{"url":"https://syntheticmass.mitre.org/v1/fhir/Patient/00aca144-58fe-4518-839b-ea14ddfd3e74/$everything?_count=100&page_token=CoIBcHJvamVjdHMvc3ludGhlYS9sb2NhdGlvbnMvdXMtY2VudHJhbDEvZGF0YXNldHMvMjAxOTAyL2ZoaXJTdG9yZXMvc3ludGhldGljLW1hc3MvZmhpci9QYXRpZW50LzAwYWNhMTQ0LTU4ZmUtNDUxOC04MzliLWVhMTRkZGZkM2U3NA%3D%3D","relation":"previous"},{"url":"https://syntheticmass.mitre.org/v1/fhir/Patient/00aca144-58fe-4518-839b-ea14ddfd3e74/$everything?_count=100&page_token=CoIBcHJvamVjdHMvc3ludGhlYS9sb2NhdGlvbnMvdXMtY2VudHJhbDEvZGF0YXNldHMvMjAxOTAyL2ZoaXJTdG9yZXMvc3ludGhldGljLW1hc3MvZmhpci9QYXRpZW50LzAwYWNhMTQ0LTU4ZmUtNDUxOC04MzliLWVhMTRkZGZkM2U3NCDIAQ%3D%3D","relation":"next"}],"total":568}
