{"resourceType":"Bundle","type":"searchset","entry":[{"resource":{"billablePeriod":{"end":"2017-01-22T17:16:57-05:00","extension":[{"url":"https://bluebutton.cms.gov/assets/ig/StructureDefinition-bluebutton-inpatient-claim-query-cd-extension","valueCoding":{"code":"3","display":"Final Bill","system":"https://bluebutton.cms.gov/assets/ig/ValueSet-claim-query-cd"}}],"start":"2016-01-22T17:16:57-05:00"},"careTeam":[{"provider":{"identifier":{"system":"http://hl7.org/fhir/sid/us-npi","value":"99999999"}},"role":{"coding":[{"code":"primary","display":"Primary Care Practitioner","system":"http://hl7.org/fhir/claimcareteamrole"}]},"sequence":1}],"contained":[{"id":"coverage","resourceType":"Coverage","type":{"text":"medicare"}}],"extension":[{"url":"https://bluebutton.cms.gov/assets/ig/StructureDefinition-bluebutton-inpatient-ime-op-clm-val-amt-extension","valueMoney":{"code":"USD","system":"urn:iso:std:iso:4217","value":400}},{"url":"https://bluebutton.cms.gov/assets/ig/StructureDefinition-bluebutton-inpatient-dsh-op-clm-val-amt-extension","valueMoney":{"code":"USD","system":"urn:iso:std:iso:4217","value":0}},{"url":"https://bluebutton.cms.gov/assets/ig/StructureDefinition-bluebutton-inpatient-clm-pass-thru-per-diem-amt-extension","valueMoney":{"code":"USD","system":"urn:iso:std:iso:4217","value":0}},{"url":"https://bluebutton.cms.gov/assets/ig/StructureDefinition-bluebutton-inpatient-nch-profnl-cmpnt-chrg-amt-extension","valueMoney":{"code":"USD","system":"urn:iso:std:iso:4217","value":0}},{"url":"https://bluebutton.cms.gov/assets/ig/StructureDefinition-bluebutton-inpatient-clm-tot-pps-cptl-amt-extension","valueMoney":{"code":"USD","system":"urn:iso:std:iso:4217","value":0}},{"url":"https://bluebutton.cms.gov/assets/ig/StructureDefinition-bluebutton-inpatient-nch-bene-ip-ddctbl-amt-extension","valueMoney":{"code":"USD","system":"urn:iso:std:iso:4217","value":0}},{"url":"https://bluebutton.cms.gov/assets/ig/StructureDefinition-bluebutton-inpatient-nch-bene-pta-coinsrnc-lblty-amt-extension","valueMoney":{"code":"USD","system":"urn:iso:std:iso:4217","value":0}},{"url":"https://bluebutton.cms.gov/assets/ig/StructureDefinition-bluebutton-inpatient-nch-ip-ncvrd-chrg-amt-extension","valueMoney":{"code":"USD","system":"urn:iso:std:iso:4217","value":0}},{"url":"https://bluebutton.cms.gov/assets/ig/StructureDefinition-bluebutton-inpatient-nch-ip-tot-ddctn-amt-extension","valueMoney":{"code":"USD","system":"urn:iso:std:iso:4217","value":0}},{"url":"https://bluebutton.cms.gov/assets/ig/StructureDefinition-bluebutton-inpatient-clm-pps-cptl-dsprprtnt-shr-amt-extension","valueMoney":{"code":"USD","system":"urn:iso:std:iso:4217","value":0}},{"url":"https://bluebutton.cms.gov/assets/ig/StructureDefinition-bluebutton-inpatient-clm-pps-cptl-excptn-amt-extension","valueMoney":{"code":"USD","system":"urn:iso:std:iso:4217","value":0}},{"url":"https://bluebutton.cms.gov/assets/ig/StructureDefinition-bluebutton-inpatient-clm-pps-cptl-fsp-amt-extension","valueMoney":{"code":"USD","system":"urn:iso:std:iso:4217","value":0}},{"url":"https://bluebutton.cms.gov/assets/ig/StructureDefinition-bluebutton-inpatient-clm-pps-cptl-ime-amt-extension","valueMoney":{"code":"USD","system":"urn:iso:std:iso:4217","value":400}},{"url":"https://bluebutton.cms.gov/assets/ig/StructureDefinition-bluebutton-inpatient-clm-pps-cptl-outlier-amt-extension","valueMoney":{"code":"USD","system":"urn:iso:std:iso:4217","value":0}},{"url":"https://bluebutton.cms.gov/assets/ig/StructureDefinition-bluebutton-inpatient-clm-pps-old-cptl-hld-hrmls-amt-extension","valueMoney":{"code":"USD","system":"urn:iso:std:iso:4217","value":0}},{"url":"https://bluebutton.cms.gov/assets/ig/StructureDefinition-bluebutton-inpatient-nch-drg-outlier-aprvd-pmt-amt-extension","valueMoney":{"code":"USD","system":"urn:iso:std:iso:4217","value":0}},{"url":"https://bluebutton.cms.gov/assets/ig/StructureDefinition-bluebutton-inpatient-nch-bene-blood-ddctbl-lblty-am-extension","valueMoney":{"code":"USD","system":"urn:iso:std:iso:4217","value":0}},{"url":"https://bluebutton.cms.gov/assets/ig/StructureDefinition-bluebutton-inpatient-clm-mdcr-non-pmt-rsn-cd-extension","valueCoding":{"code":"N","display":"All other reasons for non-payment","system":"https://bluebutton.cms.gov/assets/ig/CodeSystem-clm-mdcr-non-pmt-rsn-cd"}},{"url":"https://bluebutton.cms.gov/assets/ig/StructureDefinition-bluebutton-inpatient-prpayamt-extension","valueMoney":{"code":"USD","system":"urn:iso:std:iso:4217","value":0}},{"url":"https://bluebutton.cms.gov/assets/ig/StructureDefinition-bluebutton-inpatient-fi-num-extension","valueIdentifier":{"system":"https://bluebutton.cms.gov/assets/ig/CodeSystem-fi-num","value":"002000"}}],"id":"b448b709-b78c-4000-bf4d-235243851882","identifier":[{"system":"https://bluebutton.cms.gov/resources/variables/clm_id","value":"d9ec3253-07b7-4654-97a0-02293b57286e"},{"system":"https://bluebutton.cms.gov/resources/identifier/claim-group","value":"99999999999"}],"insurance":{"coverage":{"reference":"#coverage"}},"item":[{"extension":[{"url":"https://bluebutton.cms.gov/assets/ig/StructureDefinition-bluebutton-inpatient-rev-cntr-ndc-qty-extension","valueQuantity":{"value":0}}],"locationCodeableConcept":{"coding":[{"code":"21","display":"Inpatient Hospital","system":"https://bluebutton.cms.gov/resources/variables/line_place_of_srvc_cd"}]},"sequence":1}],"meta":{"lastUpdated":"2019-04-09T09:54:01.503320+00:00","profile":["https://bluebutton.cms.gov/assets/ig/StructureDefinition-bluebutton-inpatient-claim"],"versionId":"MTU1NDgwMzY0MTUwMzMyMDAwMA"},"organization":{"identifier":{"value":"36a03348-cac3-4284-b8c1-ffff7032af72"}},"patient":{"reference":"Patient/00a9d331-c53d-4152-aa6d-5dbceb2d1418"},"payment":{"amount":{"code":"USD","system":"urn:iso:std:iso:4217","value":0}},"provider":{"identifier":{"value":"80e8e6bd-5973-4681-bb2a-74927c72d003"}},"resourceType":"ExplanationOfBenefit","status":"active","totalCost":{"code":"USD","system":"urn:iso:std:iso:4217","value":125},"type":{"coding":[{"code":"71","display":"Local carrier non-durable medical equipment, prosthetics, orthotics, and supplies (DMEPOS) claim","system":"https://bluebutton.cms.gov/resources/variables/nch_clm_type_cd"},{"code":"CARRIER","display":"EOB Type","system":"https://bluebutton.cms.gov/resources/codesystem/eob-type"},{"code":"professional","display":"Claim Type","system":"http://hl7.org/fhir/ex-claimtype"},{"code":"O","display":"Part B physician/supplier claim record (processed by local carriers; can include DMEPOS services)","system":"https://bluebutton.cms.gov/resources/variables/nch_near_line_rec_ident_cd"}]}}},{"resource":{"billablePeriod":{"end":"2018-01-04T17:16:57-05:00","start":"2017-01-04T17:16:57-05:00"},"careTeam":[{"provider":{"identifier":{"system":"http://hl7.org/fhir/sid/us-npi","value":"99999999"}},"role":{"coding":[{"code":"primary","display":"Primary Care Practitioner","system":"http://hl7.org/fhir/claimcareteamrole"}]},"sequence":1}],"claim":{"reference":"Claim/66edb768-0843-4e42-819e-fb4a1f4313c1"},"contained":[{"id":"1","intent":"order","recipient":[{"identifier":{"system":"http://hl7.org/fhir/sid/us-npi","value":"99999999"}}],"requester":{"agent":{"identifier":{"system":"http://hl7.org/fhir/sid/us-npi","value":"99999999"}}},"resourceType":"ReferralRequest","status":"completed","subject":{"reference":"Patient/00a9d331-c53d-4152-aa6d-5dbceb2d1418"}},{"id":"coverage","resourceType":"Coverage","type":{"text":"medicare"}}],"created":"2017-01-04T17:16:57-05:00","id":"b524c53b-7880-4822-90e5-ff148e221037","identifier":[{"system":"https://bluebutton.cms.gov/resources/variables/clm_id","value":"66edb768-0843-4e42-819e-fb4a1f4313c1"},{"system":"https://bluebutton.cms.gov/resources/identifier/claim-group","value":"99999999999"}],"insurance":{"coverage":{"reference":"#coverage"}},"item":[{"category":{"coding":[{"code":"1","display":"Medical care","system":"https://bluebutton.cms.gov/resources/variables/line_cms_type_srvc_cd"}]},"encounter":[{"reference":"Encounter/3c075c96-c2a2-4e1d-8cfb-a1dd83c43295"}],"locationCodeableConcept":{"coding":[{"code":"21","display":"Inpatient Hospital","system":"https://bluebutton.cms.gov/resources/variables/line_place_of_srvc_cd"}]},"sequence":1,"servicedPeriod":{"end":"2017-01-04T17:16:57-05:00","start":"2017-01-04T17:01:57-05:00"}},{"adjudication":[{"amount":{"code":"USD","system":"urn:iso:std:iso:4217","value":28.104000000000003},"category":{"coding":[{"code":"https://bluebutton.cms.gov/resources/variables/line_coinsrnc_amt","display":"Line Beneficiary Coinsurance Amount","system":"https://bluebutton.cms.gov/resources/codesystem/adjudication"}]}},{"amount":{"code":"USD","system":"urn:iso:std:iso:4217","value":112.41600000000001},"category":{"coding":[{"code":"https://bluebutton.cms.gov/resources/variables/line_prvdr_pmt_amt","display":"Line Provider Payment Amount","system":"https://bluebutton.cms.gov/resources/codesystem/adjudication"}]}},{"amount":{"code":"USD","system":"urn:iso:std:iso:4217","value":140.52},"category":{"coding":[{"code":"https://bluebutton.cms.gov/resources/variables/line_sbmtd_chrg_amt","display":"Line Submitted Charge Amount","system":"https://bluebutton.cms.gov/resources/codesystem/adjudication"}]}},{"amount":{"code":"USD","system":"urn:iso:std:iso:4217","value":140.52},"category":{"coding":[{"code":"https://bluebutton.cms.gov/resources/variables/line_alowd_chrg_amt","display":"Line Allowed Charge Amount","system":"https://bluebutton.cms.gov/resources/codesystem/adjudication"}]}},{"amount":{"code":"USD","system":"urn:iso:std:iso:4217","value":0},"category":{"coding":[{"code":"https://bluebutton.cms.gov/resources/variables/line_bene_ptb_ddctbl_amt","display":"Line Beneficiary Part B Deductible Amount","system":"https://bluebutton.cms.gov/resources/codesystem/adjudication"}]}},{"category":{"coding":[{"code":"https://bluebutton.cms.gov/resources/variables/line_prcsg_ind_cd","display":"Line Processing Indicator Code","system":"https://bluebutton.cms.gov/resources/codesystem/adjudication"}]},"reason":{"coding":[{"code":"A","display":"Allowed","system":"https://bluebutton.cms.gov/resources/variables/line_prcsg_ind_cd"}]}}],"category":{"coding":[{"code":"1","display":"Medical care","system":"https://bluebutton.cms.gov/resources/variables/line_cms_type_srvc_cd"}]},"informationLinkId":[1],"locationCodeableConcept":{"coding":[{"code":"21","display":"Inpatient Hospital","system":"https://bluebutton.cms.gov/resources/variables/line_place_of_srvc_cd"}]},"net":{"code":"USD","system":"urn:iso:std:iso:4217","value":140.52},"sequence":2,"servicedPeriod":{"end":"2017-01-04T17:16:57-05:00","start":"2017-01-04T17:01:57-05:00"}}],"meta":{"lastUpdated":"2019-04-09T09:54:01.511176+00:00","versionId":"MTU1NDgwMzY0MTUxMTE3NjAwMA"},"organization":{"identifier":{"value":"36a03348-cac3-4284-b8c1-ffff7032af72"}},"patient":{"reference":"Patient/00a9d331-c53d-4152-aa6d-5dbceb2d1418"},"payment":{"amount":{"code":"USD","system":"urn:iso:std:iso:4217","value":112.41600000000001}},"provider":{"identifier":{"value":"80e8e6bd-5973-4681-bb2a-74927c72d003"}},"referral":{"reference":"#1"},"resourceType":"ExplanationOfBenefit","status":"active","totalCost":{"code":"USD","system":"urn:iso:std:iso:4217","value":265.52},"type":{"coding":[{"code":"71","display":"Local carrier non-durable medical equipment, prosthetics, orthotics, and supplies (DMEPOS) claim","system":"https://bluebutton.cms.gov/resources/variables/nch_clm_type_cd"},{"code":"CARRIER","display":"EOB Type","system":"https://bluebutton.cms.gov/resources/codesystem/eob-type"},{"code":"professional","display":"Claim Type","system":"http://hl7.org/fhir/ex-claimtype"},{"code":"O","display":"Part B physician/supplier claim record (processed by local carriers; can include DMEPOS services)","system":"https://bluebutton.cms.gov/resources/variables/nch_near_line_rec_ident_cd"}]}}},{"resource":{"billablePeriod":{"end":"2012-06-20T18:16:57-04:00","extension":[{"url":"https://bluebutton.cms.gov/assets/ig/StructureDefinition-bluebutton-inpatient-claim-query-cd-extension","valueCoding":{"code":"3","display":"Final Bill","system":"https://bluebutton.cms.gov/assets/ig/ValueSet-claim-query-cd"}}],"start":"2011-06-20T18:16:57-04:00"},"careTeam":[{"provider":{"identifier":{"system":"http://hl7.org/fhir/sid/us-npi","value":"99999999"}},"role":{"coding":[{"code":"primary","display":"Primary Care Practitioner","system":"http://hl7.org/fhir/claimcareteamrole"}]},"sequence":1}],"contained":[{"id":"coverage","resourceType":"Coverage","type":{"text":"medicare"}}],"diagnosis":[{"diagnosisReference":{"reference":"Condition/e1e51e67-508b-4185-8b20-df28383e122a"},"extension":[{"url":"https://bluebutton.cms.gov/assets/ig/StructureDefinition-bluebutton-inpatient-clm-poa-ind-sw1-extension","valueCoding":{"code":"Y","display":"Diagnosis present at time of admission","system":"https://bluebutton.cms.gov/assets/ig/CodeSystem-clm-poa-ind-sw1"}}],"sequence":1,"type":[{"coding":[{"code":"principal","system":"https://bluebutton.cms.gov/resources/codesystem/diagnosis-type"}]}]}],"extension":[{"url":"https://bluebutton.cms.gov/assets/ig/StructureDefinition-bluebutton-inpatient-ime-op-clm-val-amt-extension","valueMoney":{"code":"USD","system":"urn:iso:std:iso:4217","value":400}},{"url":"https://bluebutton.cms.gov/assets/ig/StructureDefinition-bluebutton-inpatient-dsh-op-clm-val-amt-extension","valueMoney":{"code":"USD","system":"urn:iso:std:iso:4217","value":0}},{"url":"https://bluebutton.cms.gov/assets/ig/StructureDefinition-bluebutton-inpatient-clm-pass-thru-per-diem-amt-extension","valueMoney":{"code":"USD","system":"urn:iso:std:iso:4217","value":0}},{"url":"https://bluebutton.cms.gov/assets/ig/StructureDefinition-bluebutton-inpatient-nch-profnl-cmpnt-chrg-amt-extension","valueMoney":{"code":"USD","system":"urn:iso:std:iso:4217","value":0}},{"url":"https://bluebutton.cms.gov/assets/ig/StructureDefinition-bluebutton-inpatient-clm-tot-pps-cptl-amt-extension","valueMoney":{"code":"USD","system":"urn:iso:std:iso:4217","value":0}},{"url":"https://bluebutton.cms.gov/assets/ig/StructureDefinition-bluebutton-inpatient-nch-bene-ip-ddctbl-amt-extension","valueMoney":{"code":"USD","system":"urn:iso:std:iso:4217","value":0}},{"url":"https://bluebutton.cms.gov/assets/ig/StructureDefinition-bluebutton-inpatient-nch-bene-pta-coinsrnc-lblty-amt-extension","valueMoney":{"code":"USD","system":"urn:iso:std:iso:4217","value":0}},{"url":"https://bluebutton.cms.gov/assets/ig/StructureDefinition-bluebutton-inpatient-nch-ip-ncvrd-chrg-amt-extension","valueMoney":{"code":"USD","system":"urn:iso:std:iso:4217","value":0}},{"url":"https://bluebutton.cms.gov/assets/ig/StructureDefinition-bluebutton-inpatient-nch-ip-tot-ddctn-amt-extension","valueMoney":{"code":"USD","system":"urn:iso:std:iso:4217","value":0}},{"url":"https://bluebutton.cms.gov/assets/ig/StructureDefinition-bluebutton-inpatient-clm-pps-cptl-dsprprtnt-shr-amt-extension","valueMoney":{"code":"USD","system":"urn:iso:std:iso:4217","value":0}},{"url":"https://bluebutton.cms.gov/assets/ig/StructureDefinition-bluebutton-inpatient-clm-pps-cptl-excptn-amt-extension","valueMoney":{"code":"USD","system":"urn:iso:std:iso:4217","value":0}},{"url":"https://bluebutton.cms.gov/assets/ig/StructureDefinition-bluebutton-inpatient-clm-pps-cptl-fsp-amt-extension","valueMoney":{"code":"USD","system":"urn:iso:std:iso:4217","value":0}},{"url":"https://bluebutton.cms.gov/assets/ig/StructureDefinition-bluebutton-inpatient-clm-pps-cptl-ime-amt-extension","valueMoney":{"code":"USD","system":"urn:iso:std:iso:4217","value":400}},{"url":"https://bluebutton.cms.gov/assets/ig/StructureDefinition-bluebutton-inpatient-clm-pps-cptl-outlier-amt-extension","valueMoney":{"code":"USD","system":"urn:iso:std:iso:4217","value":0}},{"url":"https://bluebutton.cms.gov/assets/ig/StructureDefinition-bluebutton-inpatient-clm-pps-old-cptl-hld-hrmls-amt-extension","valueMoney":{"code":"USD","system":"urn:iso:std:iso:4217","value":0}},{"url":"https://bluebutton.cms.gov/assets/ig/StructureDefinition-bluebutton-inpatient-nch-drg-outlier-aprvd-pmt-amt-extension","valueMoney":{"code":"USD","system":"urn:iso:std:iso:4217","value":0}},{"url":"https://bluebutton.cms.gov/assets/ig/StructureDefinition-bluebutton-inpatient-nch-bene-blood-ddctbl-lblty-am-extension","valueMoney":{"code":"USD","system":"urn:iso:std:iso:4217","value":0}},{"url":"https://bluebutton.cms.gov/assets/ig/StructureDefinition-bluebutton-inpatient-clm-mdcr-non-pmt-rsn-cd-extension","valueCoding":{"code":"N","display":"All other reasons for non-payment","system":"https://bluebutton.cms.gov/assets/ig/CodeSystem-clm-mdcr-non-pmt-rsn-cd"}},{"url":"https://bluebutton.cms.gov/assets/ig/StructureDefinition-bluebutton-inpatient-prpayamt-extension","valueMoney":{"code":"USD","system":"urn:iso:std:iso:4217","value":0}},{"url":"https://bluebutton.cms.gov/assets/ig/StructureDefinition-bluebutton-inpatient-fi-num-extension","valueIdentifier":{"system":"https://bluebutton.cms.gov/assets/ig/CodeSystem-fi-num","value":"002000"}}],"id":"ba5d557f-320e-469f-a6df-6dcef4f786e5","identifier":[{"system":"https://bluebutton.cms.gov/resources/variables/clm_id","value":"b1d5a535-d911-47a9-badd-ede2cb620d7a"},{"system":"https://bluebutton.cms.gov/resources/identifier/claim-group","value":"99999999999"}],"insurance":{"coverage":{"reference":"#coverage"}},"item":[{"extension":[{"url":"https://bluebutton.cms.gov/assets/ig/StructureDefinition-bluebutton-inpatient-rev-cntr-ndc-qty-extension","valueQuantity":{"value":0}}],"locationCodeableConcept":{"coding":[{"code":"21","display":"Inpatient Hospital","system":"https://bluebutton.cms.gov/resources/variables/line_place_of_srvc_cd"}]},"sequence":1},{"extension":[{"url":"https://bluebutton.cms.gov/assets/ig/StructureDefinition-bluebutton-inpatient-rev-cntr-ndc-qty-extension","valueQuantity":{"value":0}}],"locationCodeableConcept":{"coding":[{"code":"21","display":"Inpatient Hospital","system":"https://bluebutton.cms.gov/resources/variables/line_place_of_srvc_cd"}]},"sequence":2}],"meta":{"lastUpdated":"2019-04-09T09:53:59.754951+00:00","profile":["https://bluebutton.cms.gov/assets/ig/StructureDefinition-bluebutton-inpatient-claim"],"versionId":"MTU1NDgwMzYzOTc1NDk1MTAwMA"},"organization":{"identifier":{"value":"36a03348-cac3-4284-b8c1-ffff7032af72"}},"patient":{"reference":"Patient/00a9d331-c53d-4152-aa6d-5dbceb2d1418"},"payment":{"amount":{"code":"USD","system":"urn:iso:std:iso:4217","value":0}},"provider":{"identifier":{"value":"80e8e6bd-5973-4681-bb2a-74927c72d003"}},"resourceType":"ExplanationOfBenefit","status":"active","totalCost":{"code":"USD","system":"urn:iso:std:iso:4217","value":125},"type":{"coding":[{"code":"71","display":"Local carrier non-durable medical equipment, prosthetics, orthotics, and supplies (DMEPOS) claim","system":"https://bluebutton.cms.gov/resources/variables/nch_clm_type_cd"},{"code":"CARRIER","display":"EOB Type","system":"https://bluebutton.cms.gov/resources/codesystem/eob-type"},{"code":"professional","display":"Claim Type","system":"http://hl7.org/fhir/ex-claimtype"},{"code":"O","display":"Part B physician/supplier claim record (processed by local carriers; can include DMEPOS services)","system":"https://bluebutton.cms.gov/resources/variables/nch_near_line_rec_ident_cd"}]}}},{"resource":{"billablePeriod":{"end":"2014-02-18T17:31:57-05:00","extension":[{"url":"https://bluebutton.cms.gov/assets/ig/StructureDefinition-bluebutton-inpatient-claim-query-cd-extension","valueCoding":{"code":"3","display":"Final Bill","system":"https://bluebutton.cms.gov/assets/ig/ValueSet-claim-query-cd"}}],"start":"2013-02-18T17:31:57-05:00"},"careTeam":[{"provider":{"identifier":{"system":"http://hl7.org/fhir/sid/us-npi","value":"99999999"}},"role":{"coding":[{"code":"primary","display":"Primary Care Practitioner","system":"http://hl7.org/fhir/claimcareteamrole"}]},"sequence":1}],"contained":[{"id":"coverage","resourceType":"Coverage","type":{"text":"medicare"}}],"diagnosis":[{"diagnosisReference":{"reference":"Condition/036e5ced-a945-4c9a-ae7e-15f3a6238f18"},"extension":[{"url":"https://bluebutton.cms.gov/assets/ig/StructureDefinition-bluebutton-inpatient-clm-poa-ind-sw1-extension","valueCoding":{"code":"Y","display":"Diagnosis present at time of admission","system":"https://bluebutton.cms.gov/assets/ig/CodeSystem-clm-poa-ind-sw1"}}],"sequence":1,"type":[{"coding":[{"code":"principal","system":"https://bluebutton.cms.gov/resources/codesystem/diagnosis-type"}]}]}],"extension":[{"url":"https://bluebutton.cms.gov/assets/ig/StructureDefinition-bluebutton-inpatient-ime-op-clm-val-amt-extension","valueMoney":{"code":"USD","system":"urn:iso:std:iso:4217","value":400}},{"url":"https://bluebutton.cms.gov/assets/ig/StructureDefinition-bluebutton-inpatient-dsh-op-clm-val-amt-extension","valueMoney":{"code":"USD","system":"urn:iso:std:iso:4217","value":0}},{"url":"https://bluebutton.cms.gov/assets/ig/StructureDefinition-bluebutton-inpatient-clm-pass-thru-per-diem-amt-extension","valueMoney":{"code":"USD","system":"urn:iso:std:iso:4217","value":0}},{"url":"https://bluebutton.cms.gov/assets/ig/StructureDefinition-bluebutton-inpatient-nch-profnl-cmpnt-chrg-amt-extension","valueMoney":{"code":"USD","system":"urn:iso:std:iso:4217","value":0}},{"url":"https://bluebutton.cms.gov/assets/ig/StructureDefinition-bluebutton-inpatient-clm-tot-pps-cptl-amt-extension","valueMoney":{"code":"USD","system":"urn:iso:std:iso:4217","value":0}},{"url":"https://bluebutton.cms.gov/assets/ig/StructureDefinition-bluebutton-inpatient-nch-bene-ip-ddctbl-amt-extension","valueMoney":{"code":"USD","system":"urn:iso:std:iso:4217","value":0}},{"url":"https://bluebutton.cms.gov/assets/ig/StructureDefinition-bluebutton-inpatient-nch-bene-pta-coinsrnc-lblty-amt-extension","valueMoney":{"code":"USD","system":"urn:iso:std:iso:4217","value":0}},{"url":"https://bluebutton.cms.gov/assets/ig/StructureDefinition-bluebutton-inpatient-nch-ip-ncvrd-chrg-amt-extension","valueMoney":{"code":"USD","system":"urn:iso:std:iso:4217","value":0}},{"url":"https://bluebutton.cms.gov/assets/ig/StructureDefinition-bluebutton-inpatient-nch-ip-tot-ddctn-amt-extension","valueMoney":{"code":"USD","system":"urn:iso:std:iso:4217","value":0}},{"url":"https://bluebutton.cms.gov/assets/ig/StructureDefinition-bluebutton-inpatient-clm-pps-cptl-dsprprtnt-shr-amt-extension","valueMoney":{"code":"USD","system":"urn:iso:std:iso:4217","value":0}},{"url":"https://bluebutton.cms.gov/assets/ig/StructureDefinition-bluebutton-inpatient-clm-pps-cptl-excptn-amt-extension","valueMoney":{"code":"USD","system":"urn:iso:std:iso:4217","value":0}},{"url":"https://bluebutton.cms.gov/assets/ig/StructureDefinition-bluebutton-inpatient-clm-pps-cptl-fsp-amt-extension","valueMoney":{"code":"USD","system":"urn:iso:std:iso:4217","value":0}},{"url":"https://bluebutton.cms.gov/assets/ig/StructureDefinition-bluebutton-inpatient-clm-pps-cptl-ime-amt-extension","valueMoney":{"code":"USD","system":"urn:iso:std:iso:4217","value":400}},{"url":"https://bluebutton.cms.gov/assets/ig/StructureDefinition-bluebutton-inpatient-clm-pps-cptl-outlier-amt-extension","valueMoney":{"code":"USD","system":"urn:iso:std:iso:4217","value":0}},{"url":"https://bluebutton.cms.gov/assets/ig/StructureDefinition-bluebutton-inpatient-clm-pps-old-cptl-hld-hrmls-amt-extension","valueMoney":{"code":"USD","system":"urn:iso:std:iso:4217","value":0}},{"url":"https://bluebutton.cms.gov/assets/ig/StructureDefinition-bluebutton-inpatient-nch-drg-outlier-aprvd-pmt-amt-extension","valueMoney":{"code":"USD","system":"urn:iso:std:iso:4217","value":0}},{"url":"https://bluebutton.cms.gov/assets/ig/StructureDefinition-bluebutton-inpatient-nch-bene-blood-ddctbl-lblty-am-extension","valueMoney":{"code":"USD","system":"urn:iso:std:iso:4217","value":0}},{"url":"https://bluebutton.cms.gov/assets/ig/StructureDefinition-bluebutton-inpatient-clm-mdcr-non-pmt-rsn-cd-extension","valueCoding":{"code":"N","display":"All other reasons for non-payment","system":"https://bluebutton.cms.gov/assets/ig/CodeSystem-clm-mdcr-non-pmt-rsn-cd"}},{"url":"https://bluebutton.cms.gov/assets/ig/StructureDefinition-bluebutton-inpatient-prpayamt-extension","valueMoney":{"code":"USD","system":"urn:iso:std:iso:4217","value":0}},{"url":"https://bluebutton.cms.gov/assets/ig/StructureDefinition-bluebutton-inpatient-fi-num-extension","valueIdentifier":{"system":"https://bluebutton.cms.gov/assets/ig/CodeSystem-fi-num","value":"002000"}}],"id":"c9119bfa-4856-4c91-8ad8-503a5d54982e","identifier":[{"system":"https://bluebutton.cms.gov/resources/variables/clm_id","value":"db810e69-1343-4dbe-958e-f2c5e56f3409"},{"system":"https://bluebutton.cms.gov/resources/identifier/claim-group","value":"99999999999"}],"insurance":{"coverage":{"reference":"#coverage"}},"item":[{"extension":[{"url":"https://bluebutton.cms.gov/assets/ig/StructureDefinition-bluebutton-inpatient-rev-cntr-ndc-qty-extension","valueQuantity":{"value":0}}],"locationCodeableConcept":{"coding":[{"code":"21","display":"Inpatient Hospital","system":"https://bluebutton.cms.gov/resources/variables/line_place_of_srvc_cd"}]},"sequence":1},{"extension":[{"url":"https://bluebutton.cms.gov/assets/ig/StructureDefinition-bluebutton-inpatient-rev-cntr-ndc-qty-extension","valueQuantity":{"value":0}}],"locationCodeableConcept":{"coding":[{"code":"21","display":"Inpatient Hospital","system":"https://bluebutton.cms.gov/resources/variables/line_place_of_srvc_cd"}]},"sequence":2},{"adjudication":[{"amount":{"code":"USD","system":"urn:iso:std:iso:4217","value":353.63000000000005},"category":{"coding":[{"code":"https://bluebutton.cms.gov/resources/variables/line_coinsrnc_amt","display":"Line Beneficiary Coinsurance Amount","system":"https://bluebutton.cms.gov/resources/codesystem/adjudication"}]}},{"amount":{"code":"USD","system":"urn:iso:std:iso:4217","value":1414.5200000000002},"category":{"coding":[{"code":"https://bluebutton.cms.gov/resources/variables/line_prvdr_pmt_amt","display":"Line Provider Payment Amount","system":"https://bluebutton.cms.gov/resources/codesystem/adjudication"}]}},{"amount":{"code":"USD","system":"urn:iso:std:iso:4217","value":1768.15},"category":{"coding":[{"code":"https://bluebutton.cms.gov/resources/variables/line_sbmtd_chrg_amt","display":"Line Submitted Charge Amount","system":"https://bluebutton.cms.gov/resources/codesystem/adjudication"}]}},{"amount":{"code":"USD","system":"urn:iso:std:iso:4217","value":1768.15},"category":{"coding":[{"code":"https://bluebutton.cms.gov/resources/variables/line_alowd_chrg_amt","display":"Line Allowed Charge Amount","system":"https://bluebutton.cms.gov/resources/codesystem/adjudication"}]}},{"amount":{"code":"USD","system":"urn:iso:std:iso:4217","value":0},"category":{"coding":[{"code":"https://bluebutton.cms.gov/resources/variables/line_bene_ptb_ddctbl_amt","display":"Line Beneficiary Part B Deductible Amount","system":"https://bluebutton.cms.gov/resources/codesystem/adjudication"}]}},{"category":{"coding":[{"code":"https://bluebutton.cms.gov/resources/variables/line_prcsg_ind_cd","display":"Line Processing Indicator Code","system":"https://bluebutton.cms.gov/resources/codesystem/adjudication"}]}}],"extension":[{"url":"https://bluebutton.cms.gov/assets/ig/StructureDefinition-bluebutton-inpatient-rev-cntr-ndc-qty-extension","valueQuantity":{"value":0}}],"locationCodeableConcept":{"coding":[{"code":"21","display":"Inpatient Hospital","system":"https://bluebutton.cms.gov/resources/variables/line_place_of_srvc_cd"}]},"sequence":3,"service":{"coding":[{"code":"117015009","system":"http://snomed.info/sct","version":"v1"}]}}],"meta":{"lastUpdated":"2019-04-09T09:53:59.895485+00:00","profile":["https://bluebutton.cms.gov/assets/ig/StructureDefinition-bluebutton-inpatient-claim"],"versionId":"MTU1NDgwMzYzOTg5NTQ4NTAwMA"},"organization":{"identifier":{"value":"36a03348-cac3-4284-b8c1-ffff7032af72"}},"patient":{"reference":"Patient/00a9d331-c53d-4152-aa6d-5dbceb2d1418"},"payment":{"amount":{"code":"USD","system":"urn:iso:std:iso:4217","value":1414.5200000000002}},"provider":{"identifier":{"value":"80e8e6bd-5973-4681-bb2a-74927c72d003"}},"resourceType":"ExplanationOfBenefit","status":"active","totalCost":{"code":"USD","system":"urn:iso:std:iso:4217","value":1893.15},"type":{"coding":[{"code":"71","display":"Local carrier non-durable medical equipment, prosthetics, orthotics, and supplies (DMEPOS) claim","system":"https://bluebutton.cms.gov/resources/variables/nch_clm_type_cd"},{"code":"CARRIER","display":"EOB Type","system":"https://bluebutton.cms.gov/resources/codesystem/eob-type"},{"code":"professional","display":"Claim Type","system":"http://hl7.org/fhir/ex-claimtype"},{"code":"O","display":"Part B physician/supplier claim record (processed by local carriers; can include DMEPOS services)","system":"https://bluebutton.cms.gov/resources/variables/nch_near_line_rec_ident_cd"}]}}},{"resource":{"billablePeriod":{"end":"2017-11-09T17:16:57-05:00","start":"2016-11-09T17:16:57-05:00"},"careTeam":[{"provider":{"identifier":{"system":"http://hl7.org/fhir/sid/us-npi","value":"99999999"}},"role":{"coding":[{"code":"primary","display":"Primary Care Practitioner","system":"http://hl7.org/fhir/claimcareteamrole"}]},"sequence":1}],"claim":{"reference":"Claim/37f462af-31b5-47e9-b1be-679fc522112e"},"contained":[{"id":"1","intent":"order","recipient":[{"identifier":{"system":"http://hl7.org/fhir/sid/us-npi","value":"99999999"}}],"requester":{"agent":{"identifier":{"system":"http://hl7.org/fhir/sid/us-npi","value":"99999999"}}},"resourceType":"ReferralRequest","status":"completed","subject":{"reference":"Patient/00a9d331-c53d-4152-aa6d-5dbceb2d1418"}},{"id":"coverage","resourceType":"Coverage","type":{"text":"medicare"}}],"created":"2016-11-09T17:16:57-05:00","id":"caa012b8-5f44-4a3b-afa7-b4ec6c0efdcd","identifier":[{"system":"https://bluebutton.cms.gov/resources/variables/clm_id","value":"37f462af-31b5-47e9-b1be-679fc522112e"},{"system":"https://bluebutton.cms.gov/resources/identifier/claim-group","value":"99999999999"}],"insurance":{"coverage":{"reference":"#coverage"}},"item":[{"category":{"coding":[{"code":"1","display":"Medical care","system":"https://bluebutton.cms.gov/resources/variables/line_cms_type_srvc_cd"}]},"encounter":[{"reference":"Encounter/e048c90d-6fad-461d-a63e-b0278ac8118a"}],"locationCodeableConcept":{"coding":[{"code":"21","display":"Inpatient Hospital","system":"https://bluebutton.cms.gov/resources/variables/line_place_of_srvc_cd"}]},"sequence":1,"servicedPeriod":{"end":"2016-11-09T17:16:57-05:00","start":"2016-11-09T17:01:57-05:00"}}],"meta":{"lastUpdated":"2019-04-09T09:54:01.506691+00:00","versionId":"MTU1NDgwMzY0MTUwNjY5MTAwMA"},"organization":{"identifier":{"value":"056f87f2-88ce-46ee-abcf-a77ae5d4a72f"}},"patient":{"reference":"Patient/00a9d331-c53d-4152-aa6d-5dbceb2d1418"},"payment":{"amount":{"code":"USD","system":"urn:iso:std:iso:4217","value":0}},"provider":{"identifier":{"value":"c738ca7e-5b37-42ba-9ff5-47def4364caa"}},"referral":{"reference":"#1"},"resourceType":"ExplanationOfBenefit","status":"active","totalCost":{"code":"USD","system":"urn:iso:std:iso:4217","value":125},"type":{"coding":[{"code":"71","display":"Local carrier non-durable medical equipment, prosthetics, orthotics, and supplies (DMEPOS) claim","system":"https://bluebutton.cms.gov/resources/variables/nch_clm_type_cd"},{"code":"CARRIER","display":"EOB Type","system":"https://bluebutton.cms.gov/resources/codesystem/eob-type"},{"code":"professional","display":"Claim Type","system":"http://hl7.org/fhir/ex-claimtype"},{"code":"O","display":"Part B physician/supplier claim record (processed by local carriers; can include DMEPOS services)","system":"https://bluebutton.cms.gov/resources/variables/nch_near_line_rec_ident_cd"}]}}},{"resource":{"billablePeriod":{"end":"2016-12-26T17:16:57-05:00","extension":[{"url":"https://bluebutton.cms.gov/assets/ig/StructureDefinition-bluebutton-inpatient-claim-query-cd-extension","valueCoding":{"code":"3","display":"Final Bill","system":"https://bluebutton.cms.gov/assets/ig/ValueSet-claim-query-cd"}}],"start":"2015-12-26T17:16:57-05:00"},"careTeam":[{"provider":{"identifier":{"system":"http://hl7.org/fhir/sid/us-npi","value":"99999999"}},"role":{"coding":[{"code":"primary","display":"Primary Care Practitioner","system":"http://hl7.org/fhir/claimcareteamrole"}]},"sequence":1}],"contained":[{"id":"coverage","resourceType":"Coverage","type":{"text":"medicare"}}],"diagnosis":[{"diagnosisReference":{"reference":"Condition/34fc8577-f363-4060-bb71-6bce3479bdad"},"extension":[{"url":"https://bluebutton.cms.gov/assets/ig/StructureDefinition-bluebutton-inpatient-clm-poa-ind-sw1-extension","valueCoding":{"code":"Y","display":"Diagnosis present at time of admission","system":"https://bluebutton.cms.gov/assets/ig/CodeSystem-clm-poa-ind-sw1"}}],"sequence":1,"type":[{"coding":[{"code":"principal","system":"https://bluebutton.cms.gov/resources/codesystem/diagnosis-type"}]}]}],"extension":[{"url":"https://bluebutton.cms.gov/assets/ig/StructureDefinition-bluebutton-inpatient-ime-op-clm-val-amt-extension","valueMoney":{"code":"USD","system":"urn:iso:std:iso:4217","value":400}},{"url":"https://bluebutton.cms.gov/assets/ig/StructureDefinition-bluebutton-inpatient-dsh-op-clm-val-amt-extension","valueMoney":{"code":"USD","system":"urn:iso:std:iso:4217","value":0}},{"url":"https://bluebutton.cms.gov/assets/ig/StructureDefinition-bluebutton-inpatient-clm-pass-thru-per-diem-amt-extension","valueMoney":{"code":"USD","system":"urn:iso:std:iso:4217","value":0}},{"url":"https://bluebutton.cms.gov/assets/ig/StructureDefinition-bluebutton-inpatient-nch-profnl-cmpnt-chrg-amt-extension","valueMoney":{"code":"USD","system":"urn:iso:std:iso:4217","value":0}},{"url":"https://bluebutton.cms.gov/assets/ig/StructureDefinition-bluebutton-inpatient-clm-tot-pps-cptl-amt-extension","valueMoney":{"code":"USD","system":"urn:iso:std:iso:4217","value":0}},{"url":"https://bluebutton.cms.gov/assets/ig/StructureDefinition-bluebutton-inpatient-nch-bene-ip-ddctbl-amt-extension","valueMoney":{"code":"USD","system":"urn:iso:std:iso:4217","value":0}},{"url":"https://bluebutton.cms.gov/assets/ig/StructureDefinition-bluebutton-inpatient-nch-bene-pta-coinsrnc-lblty-amt-extension","valueMoney":{"code":"USD","system":"urn:iso:std:iso:4217","value":0}},{"url":"https://bluebutton.cms.gov/assets/ig/StructureDefinition-bluebutton-inpatient-nch-ip-ncvrd-chrg-amt-extension","valueMoney":{"code":"USD","system":"urn:iso:std:iso:4217","value":0}},{"url":"https://bluebutton.cms.gov/assets/ig/StructureDefinition-bluebutton-inpatient-nch-ip-tot-ddctn-amt-extension","valueMoney":{"code":"USD","system":"urn:iso:std:iso:4217","value":0}},{"url":"https://bluebutton.cms.gov/assets/ig/StructureDefinition-bluebutton-inpatient-clm-pps-cptl-dsprprtnt-shr-amt-extension","valueMoney":{"code":"USD","system":"urn:iso:std:iso:4217","value":0}},{"url":"https://bluebutton.cms.gov/assets/ig/StructureDefinition-bluebutton-inpatient-clm-pps-cptl-excptn-amt-extension","valueMoney":{"code":"USD","system":"urn:iso:std:iso:4217","value":0}},{"url":"https://bluebutton.cms.gov/assets/ig/StructureDefinition-bluebutton-inpatient-clm-pps-cptl-fsp-amt-extension","valueMoney":{"code":"USD","system":"urn:iso:std:iso:4217","value":0}},{"url":"https://bluebutton.cms.gov/assets/ig/StructureDefinition-bluebutton-inpatient-clm-pps-cptl-ime-amt-extension","valueMoney":{"code":"USD","system":"urn:iso:std:iso:4217","value":400}},{"url":"https://bluebutton.cms.gov/assets/ig/StructureDefinition-bluebutton-inpatient-clm-pps-cptl-outlier-amt-extension","valueMoney":{"code":"USD","system":"urn:iso:std:iso:4217","value":0}},{"url":"https://bluebutton.cms.gov/assets/ig/StructureDefinition-bluebutton-inpatient-clm-pps-old-cptl-hld-hrmls-amt-extension","valueMoney":{"code":"USD","system":"urn:iso:std:iso:4217","value":0}},{"url":"https://bluebutton.cms.gov/assets/ig/StructureDefinition-bluebutton-inpatient-nch-drg-outlier-aprvd-pmt-amt-extension","valueMoney":{"code":"USD","system":"urn:iso:std:iso:4217","value":0}},{"url":"https://bluebutton.cms.gov/assets/ig/StructureDefinition-bluebutton-inpatient-nch-bene-blood-ddctbl-lblty-am-extension","valueMoney":{"code":"USD","system":"urn:iso:std:iso:4217","value":0}},{"url":"https://bluebutton.cms.gov/assets/ig/StructureDefinition-bluebutton-inpatient-clm-mdcr-non-pmt-rsn-cd-extension","valueCoding":{"code":"N","display":"All other reasons for non-payment","system":"https://bluebutton.cms.gov/assets/ig/CodeSystem-clm-mdcr-non-pmt-rsn-cd"}},{"url":"https://bluebutton.cms.gov/assets/ig/StructureDefinition-bluebutton-inpatient-prpayamt-extension","valueMoney":{"code":"USD","system":"urn:iso:std:iso:4217","value":0}},{"url":"https://bluebutton.cms.gov/assets/ig/StructureDefinition-bluebutton-inpatient-fi-num-extension","valueIdentifier":{"system":"https://bluebutton.cms.gov/assets/ig/CodeSystem-fi-num","value":"002000"}}],"id":"e5946f68-cab2-43cd-a8c9-646fcfb3b031","identifier":[{"system":"https://bluebutton.cms.gov/resources/variables/clm_id","value":"77a9868b-2d82-4256-84ee-f0c7798d0307"},{"system":"https://bluebutton.cms.gov/resources/identifier/claim-group","value":"99999999999"}],"insurance":{"coverage":{"reference":"#coverage"}},"item":[{"extension":[{"url":"https://bluebutton.cms.gov/assets/ig/StructureDefinition-bluebutton-inpatient-rev-cntr-ndc-qty-extension","valueQuantity":{"value":0}}],"locationCodeableConcept":{"coding":[{"code":"21","display":"Inpatient Hospital","system":"https://bluebutton.cms.gov/resources/variables/line_place_of_srvc_cd"}]},"sequence":1},{"extension":[{"url":"https://bluebutton.cms.gov/assets/ig/StructureDefinition-bluebutton-inpatient-rev-cntr-ndc-qty-extension","valueQuantity":{"value":0}}],"locationCodeableConcept":{"coding":[{"code":"21","display":"Inpatient Hospital","system":"https://bluebutton.cms.gov/resources/variables/line_place_of_srvc_cd"}]},"sequence":2}],"meta":{"lastUpdated":"2019-04-09T09:54:01.503324+00:00","profile":["https://bluebutton.cms.gov/assets/ig/StructureDefinition-bluebutton-inpatient-claim"],"versionId":"MTU1NDgwMzY0MTUwMzMyNDAwMA"},"organization":{"identifier":{"value":"36a03348-cac3-4284-b8c1-ffff7032af72"}},"patient":{"reference":"Patient/00a9d331-c53d-4152-aa6d-5dbceb2d1418"},"payment":{"amount":{"code":"USD","system":"urn:iso:std:iso:4217","value":0}},"provider":{"identifier":{"value":"80e8e6bd-5973-4681-bb2a-74927c72d003"}},"resourceType":"ExplanationOfBenefit","status":"active","totalCost":{"code":"USD","system":"urn:iso:std:iso:4217","value":125},"type":{"coding":[{"code":"71","display":"Local carrier non-durable medical equipment, prosthetics, orthotics, and supplies (DMEPOS) claim","system":"https://bluebutton.cms.gov/resources/variables/nch_clm_type_cd"},{"code":"CARRIER","display":"EOB Type","system":"https://bluebutton.cms.gov/resources/codesystem/eob-type"},{"code":"professional","display":"Claim Type","system":"http://hl7.org/fhir/ex-claimtype"},{"code":"O","display":"Part B physician/supplier claim record (processed by local carriers; can include DMEPOS services)","system":"https://bluebutton.cms.gov/resources/variables/nch_near_line_rec_ident_cd"}]}}},{"resource":{"billablePeriod":{"end":"2018-03-15T18:16:57-04:00","extension":[{"url":"https://bluebutton.cms.gov/assets/ig/StructureDefinition-bluebutton-inpatient-claim-query-cd-extension","valueCoding":{"code":"3","display":"Final Bill","system":"https://bluebutton.cms.gov/assets/ig/ValueSet-claim-query-cd"}}],"start":"2017-03-15T18:16:57-04:00"},"careTeam":[{"provider":{"identifier":{"system":"http://hl7.org/fhir/sid/us-npi","value":"99999999"}},"role":{"coding":[{"code":"primary","display":"Primary Care Practitioner","system":"http://hl7.org/fhir/claimcareteamrole"}]},"sequence":1}],"contained":[{"id":"coverage","resourceType":"Coverage","type":{"text":"medicare"}}],"extension":[{"url":"https://bluebutton.cms.gov/assets/ig/StructureDefinition-bluebutton-inpatient-ime-op-clm-val-amt-extension","valueMoney":{"code":"USD","system":"urn:iso:std:iso:4217","value":400}},{"url":"https://bluebutton.cms.gov/assets/ig/StructureDefinition-bluebutton-inpatient-dsh-op-clm-val-amt-extension","valueMoney":{"code":"USD","system":"urn:iso:std:iso:4217","value":0}},{"url":"https://bluebutton.cms.gov/assets/ig/StructureDefinition-bluebutton-inpatient-clm-pass-thru-per-diem-amt-extension","valueMoney":{"code":"USD","system":"urn:iso:std:iso:4217","value":0}},{"url":"https://bluebutton.cms.gov/assets/ig/StructureDefinition-bluebutton-inpatient-nch-profnl-cmpnt-chrg-amt-extension","valueMoney":{"code":"USD","system":"urn:iso:std:iso:4217","value":0}},{"url":"https://bluebutton.cms.gov/assets/ig/StructureDefinition-bluebutton-inpatient-clm-tot-pps-cptl-amt-extension","valueMoney":{"code":"USD","system":"urn:iso:std:iso:4217","value":0}},{"url":"https://bluebutton.cms.gov/assets/ig/StructureDefinition-bluebutton-inpatient-nch-bene-ip-ddctbl-amt-extension","valueMoney":{"code":"USD","system":"urn:iso:std:iso:4217","value":0}},{"url":"https://bluebutton.cms.gov/assets/ig/StructureDefinition-bluebutton-inpatient-nch-bene-pta-coinsrnc-lblty-amt-extension","valueMoney":{"code":"USD","system":"urn:iso:std:iso:4217","value":0}},{"url":"https://bluebutton.cms.gov/assets/ig/StructureDefinition-bluebutton-inpatient-nch-ip-ncvrd-chrg-amt-extension","valueMoney":{"code":"USD","system":"urn:iso:std:iso:4217","value":0}},{"url":"https://bluebutton.cms.gov/assets/ig/StructureDefinition-bluebutton-inpatient-nch-ip-tot-ddctn-amt-extension","valueMoney":{"code":"USD","system":"urn:iso:std:iso:4217","value":0}},{"url":"https://bluebutton.cms.gov/assets/ig/StructureDefinition-bluebutton-inpatient-clm-pps-cptl-dsprprtnt-shr-amt-extension","valueMoney":{"code":"USD","system":"urn:iso:std:iso:4217","value":0}},{"url":"https://bluebutton.cms.gov/assets/ig/StructureDefinition-bluebutton-inpatient-clm-pps-cptl-excptn-amt-extension","valueMoney":{"code":"USD","system":"urn:iso:std:iso:4217","value":0}},{"url":"https://bluebutton.cms.gov/assets/ig/StructureDefinition-bluebutton-inpatient-clm-pps-cptl-fsp-amt-extension","valueMoney":{"code":"USD","system":"urn:iso:std:iso:4217","value":0}},{"url":"https://bluebutton.cms.gov/assets/ig/StructureDefinition-bluebutton-inpatient-clm-pps-cptl-ime-amt-extension","valueMoney":{"code":"USD","system":"urn:iso:std:iso:4217","value":400}},{"url":"https://bluebutton.cms.gov/assets/ig/StructureDefinition-bluebutton-inpatient-clm-pps-cptl-outlier-amt-extension","valueMoney":{"code":"USD","system":"urn:iso:std:iso:4217","value":0}},{"url":"https://bluebutton.cms.gov/assets/ig/StructureDefinition-bluebutton-inpatient-clm-pps-old-cptl-hld-hrmls-amt-extension","valueMoney":{"code":"USD","system":"urn:iso:std:iso:4217","value":0}},{"url":"https://bluebutton.cms.gov/assets/ig/StructureDefinition-bluebutton-inpatient-nch-drg-outlier-aprvd-pmt-amt-extension","valueMoney":{"code":"USD","system":"urn:iso:std:iso:4217","value":0}},{"url":"https://bluebutton.cms.gov/assets/ig/StructureDefinition-bluebutton-inpatient-nch-bene-blood-ddctbl-lblty-am-extension","valueMoney":{"code":"USD","system":"urn:iso:std:iso:4217","value":0}},{"url":"https://bluebutton.cms.gov/assets/ig/StructureDefinition-bluebutton-inpatient-clm-mdcr-non-pmt-rsn-cd-extension","valueCoding":{"code":"N","display":"All other reasons for non-payment","system":"https://bluebutton.cms.gov/assets/ig/CodeSystem-clm-mdcr-non-pmt-rsn-cd"}},{"url":"https://bluebutton.cms.gov/assets/ig/StructureDefinition-bluebutton-inpatient-prpayamt-extension","valueMoney":{"code":"USD","system":"urn:iso:std:iso:4217","value":0}},{"url":"https://bluebutton.cms.gov/assets/ig/StructureDefinition-bluebutton-inpatient-fi-num-extension","valueIdentifier":{"system":"https://bluebutton.cms.gov/assets/ig/CodeSystem-fi-num","value":"002000"}}],"id":"f35ce471-f10d-4ea5-bf7a-dc7e3c5ea26c","identifier":[{"system":"https://bluebutton.cms.gov/resources/variables/clm_id","value":"a3c5d2a8-5e7d-41eb-b2ec-2dc8f03d3864"},{"system":"https://bluebutton.cms.gov/resources/identifier/claim-group","value":"99999999999"}],"insurance":{"coverage":{"reference":"#coverage"}},"item":[{"extension":[{"url":"https://bluebutton.cms.gov/assets/ig/StructureDefinition-bluebutton-inpatient-rev-cntr-ndc-qty-extension","valueQuantity":{"value":0}}],"locationCodeableConcept":{"coding":[{"code":"21","display":"Inpatient Hospital","system":"https://bluebutton.cms.gov/resources/variables/line_place_of_srvc_cd"}]},"sequence":1}],"meta":{"lastUpdated":"2019-04-09T09:53:59.718968+00:00","profile":["https://bluebutton.cms.gov/assets/ig/StructureDefinition-bluebutton-inpatient-claim"],"versionId":"MTU1NDgwMzYzOTcxODk2ODAwMA"},"organization":{"identifier":{"value":"36a03348-cac3-4284-b8c1-ffff7032af72"}},"patient":{"reference":"Patient/00a9d331-c53d-4152-aa6d-5dbceb2d1418"},"payment":{"amount":{"code":"USD","system":"urn:iso:std:iso:4217","value":0}},"provider":{"identifier":{"value":"80e8e6bd-5973-4681-bb2a-74927c72d003"}},"resourceType":"ExplanationOfBenefit","status":"active","totalCost":{"code":"USD","system":"urn:iso:std:iso:4217","value":125},"type":{"coding":[{"code":"71","display":"Local carrier non-durable medical equipment, prosthetics, orthotics, and supplies (DMEPOS) claim","system":"https://bluebutton.cms.gov/resources/variables/nch_clm_type_cd"},{"code":"CARRIER","display":"EOB Type","system":"https://bluebutton.cms.gov/resources/codesystem/eob-type"},{"code":"professional","display":"Claim Type","system":"http://hl7.org/fhir/ex-claimtype"},{"code":"O","display":"Part B physician/supplier claim record (processed by local carriers; can include DMEPOS services)","system":"https://bluebutton.cms.gov/resources/variables/nch_near_line_rec_ident_cd"}]}}},{"resource":{"billablePeriod":{"end":"2019-01-10T17:16:57-05:00","start":"2018-01-10T17:16:57-05:00"},"careTeam":[{"provider":{"identifier":{"system":"http://hl7.org/fhir/sid/us-npi","value":"99999999"}},"role":{"coding":[{"code":"primary","display":"Primary Care Practitioner","system":"http://hl7.org/fhir/claimcareteamrole"}]},"sequence":1}],"claim":{"reference":"Claim/bd560ebc-149a-4984-946a-8b7f1d21a268"},"contained":[{"id":"1","intent":"order","recipient":[{"identifier":{"system":"http://hl7.org/fhir/sid/us-npi","value":"99999999"}}],"requester":{"agent":{"identifier":{"system":"http://hl7.org/fhir/sid/us-npi","value":"99999999"}}},"resourceType":"ReferralRequest","status":"completed","subject":{"reference":"Patient/00a9d331-c53d-4152-aa6d-5dbceb2d1418"}},{"id":"coverage","resourceType":"Coverage","type":{"text":"medicare"}}],"created":"2018-01-10T17:16:57-05:00","diagnosis":[{"diagnosisReference":{"reference":"Condition/933161e9-5ef4-46a4-87b2-acd40977d089"},"extension":[{"url":"https://bluebutton.cms.gov/assets/ig/StructureDefinition-bluebutton-inpatient-clm-poa-ind-sw1-extension","valueCoding":{"code":"Y","display":"Diagnosis present at time of admission","system":"https://bluebutton.cms.gov/assets/ig/CodeSystem-clm-poa-ind-sw1"}}],"sequence":1,"type":[{"coding":[{"code":"principal","system":"https://bluebutton.cms.gov/resources/codesystem/diagnosis-type"}]}]}],"id":"f8825f12-14d6-42a7-8891-eb3b9afe76aa","identifier":[{"system":"https://bluebutton.cms.gov/resources/variables/clm_id","value":"bd560ebc-149a-4984-946a-8b7f1d21a268"},{"system":"https://bluebutton.cms.gov/resources/identifier/claim-group","value":"99999999999"}],"insurance":{"coverage":{"reference":"#coverage"}},"item":[{"category":{"coding":[{"code":"1","display":"Medical care","system":"https://bluebutton.cms.gov/resources/variables/line_cms_type_srvc_cd"}]},"encounter":[{"reference":"Encounter/128b3d94-f3ec-4ae1-acf1-eab3a2e62cf5"}],"locationCodeableConcept":{"coding":[{"code":"21","display":"Inpatient Hospital","system":"https://bluebutton.cms.gov/resources/variables/line_place_of_srvc_cd"}]},"sequence":1,"servicedPeriod":{"end":"2018-01-10T17:16:57-05:00","start":"2018-01-10T17:01:57-05:00"}},{"category":{"coding":[{"code":"1","display":"Medical care","system":"https://bluebutton.cms.gov/resources/variables/line_cms_type_srvc_cd"}]},"diagnosisLinkId":[1],"locationCodeableConcept":{"coding":[{"code":"21","display":"Inpatient Hospital","system":"https://bluebutton.cms.gov/resources/variables/line_place_of_srvc_cd"}]},"sequence":2,"servicedPeriod":{"end":"2018-01-10T17:16:57-05:00","start":"2018-01-10T17:01:57-05:00"}},{"adjudication":[{"amount":{"code":"USD","system":"urn:iso:std:iso:4217","value":28.104000000000003},"category":{"coding":[{"code":"https://bluebutton.cms.gov/resources/variables/line_coinsrnc_amt","display":"Line Beneficiary Coinsurance Amount","system":"https://bluebutton.cms.gov/resources/codesystem/adjudication"}]}},{"amount":{"code":"USD","system":"urn:iso:std:iso:4217","value":112.41600000000001},"category":{"coding":[{"code":"https://bluebutton.cms.gov/resources/variables/line_prvdr_pmt_amt","display":"Line Provider Payment Amount","system":"https://bluebutton.cms.gov/resources/codesystem/adjudication"}]}},{"amount":{"code":"USD","system":"urn:iso:std:iso:4217","value":140.52},"category":{"coding":[{"code":"https://bluebutton.cms.gov/resources/variables/line_sbmtd_chrg_amt","display":"Line Submitted Charge Amount","system":"https://bluebutton.cms.gov/resources/codesystem/adjudication"}]}},{"amount":{"code":"USD","system":"urn:iso:std:iso:4217","value":140.52},"category":{"coding":[{"code":"https://bluebutton.cms.gov/resources/variables/line_alowd_chrg_amt","display":"Line Allowed Charge Amount","system":"https://bluebutton.cms.gov/resources/codesystem/adjudication"}]}},{"amount":{"code":"USD","system":"urn:iso:std:iso:4217","value":0},"category":{"coding":[{"code":"https://bluebutton.cms.gov/resources/variables/line_bene_ptb_ddctbl_amt","display":"Line Beneficiary Part B Deductible Amount","system":"https://bluebutton.cms.gov/resources/codesystem/adjudication"}]}},{"category":{"coding":[{"code":"https://bluebutton.cms.gov/resources/variables/line_prcsg_ind_cd","display":"Line Processing Indicator Code","system":"https://bluebutton.cms.gov/resources/codesystem/adjudication"}]},"reason":{"coding":[{"code":"A","display":"Allowed","system":"https://bluebutton.cms.gov/resources/variables/line_prcsg_ind_cd"}]}}],"category":{"coding":[{"code":"1","display":"Medical care","system":"https://bluebutton.cms.gov/resources/variables/line_cms_type_srvc_cd"}]},"informationLinkId":[1],"locationCodeableConcept":{"coding":[{"code":"21","display":"Inpatient Hospital","system":"https://bluebutton.cms.gov/resources/variables/line_place_of_srvc_cd"}]},"net":{"code":"USD","system":"urn:iso:std:iso:4217","value":140.52},"sequence":3,"servicedPeriod":{"end":"2018-01-10T17:16:57-05:00","start":"2018-01-10T17:01:57-05:00"}}],"meta":{"lastUpdated":"2019-04-09T09:54:01.784968+00:00","versionId":"MTU1NDgwMzY0MTc4NDk2ODAwMA"},"organization":{"identifier":{"value":"36a03348-cac3-4284-b8c1-ffff7032af72"}},"patient":{"reference":"Patient/00a9d331-c53d-4152-aa6d-5dbceb2d1418"},"payment":{"amount":{"code":"USD","system":"urn:iso:std:iso:4217","value":112.41600000000001}},"provider":{"identifier":{"value":"80e8e6bd-5973-4681-bb2a-74927c72d003"}},"referral":{"reference":"#1"},"resourceType":"ExplanationOfBenefit","status":"active","totalCost":{"code":"USD","system":"urn:iso:std:iso:4217","value":265.52},"type":{"coding":[{"code":"71","display":"Local carrier non-durable medical equipment, prosthetics, orthotics, and supplies (DMEPOS) claim","system":"https://bluebutton.cms.gov/resources/variables/nch_clm_type_cd"},{"code":"CARRIER","display":"EOB Type","system":"https://bluebutton.cms.gov/resources/codesystem/eob-type"},{"code":"professional","display":"Claim Type","system":"http://hl7.org/fhir/ex-claimtype"},{"code":"O","display":"Part B physician/supplier claim record (processed by local carriers; can include DMEPOS services)","system":"https://bluebutton.cms.gov/resources/variables/nch_near_line_rec_ident_cd"}]}}},{"resource":{"billablePeriod":{"end":"2014-12-31T17:16:57-05:00","extension":[{"url":"https://bluebutton.cms.gov/assets/ig/StructureDefinition-bluebutton-inpatient-claim-query-cd-extension","valueCoding":{"code":"3","display":"Final Bill","system":"https://bluebutton.cms.gov/assets/ig/ValueSet-claim-query-cd"}}],"start":"2013-12-31T17:16:57-05:00"},"careTeam":[{"provider":{"identifier":{"system":"http://hl7.org/fhir/sid/us-npi","value":"99999999"}},"role":{"coding":[{"code":"primary","display":"Primary Care Practitioner","system":"http://hl7.org/fhir/claimcareteamrole"}]},"sequence":1}],"contained":[{"id":"coverage","resourceType":"Coverage","type":{"text":"medicare"}}],"extension":[{"url":"https://bluebutton.cms.gov/assets/ig/StructureDefinition-bluebutton-inpatient-ime-op-clm-val-amt-extension","valueMoney":{"code":"USD","system":"urn:iso:std:iso:4217","value":400}},{"url":"https://bluebutton.cms.gov/assets/ig/StructureDefinition-bluebutton-inpatient-dsh-op-clm-val-amt-extension","valueMoney":{"code":"USD","system":"urn:iso:std:iso:4217","value":0}},{"url":"https://bluebutton.cms.gov/assets/ig/StructureDefinition-bluebutton-inpatient-clm-pass-thru-per-diem-amt-extension","valueMoney":{"code":"USD","system":"urn:iso:std:iso:4217","value":0}},{"url":"https://bluebutton.cms.gov/assets/ig/StructureDefinition-bluebutton-inpatient-nch-profnl-cmpnt-chrg-amt-extension","valueMoney":{"code":"USD","system":"urn:iso:std:iso:4217","value":0}},{"url":"https://bluebutton.cms.gov/assets/ig/StructureDefinition-bluebutton-inpatient-clm-tot-pps-cptl-amt-extension","valueMoney":{"code":"USD","system":"urn:iso:std:iso:4217","value":0}},{"url":"https://bluebutton.cms.gov/assets/ig/StructureDefinition-bluebutton-inpatient-nch-bene-ip-ddctbl-amt-extension","valueMoney":{"code":"USD","system":"urn:iso:std:iso:4217","value":0}},{"url":"https://bluebutton.cms.gov/assets/ig/StructureDefinition-bluebutton-inpatient-nch-bene-pta-coinsrnc-lblty-amt-extension","valueMoney":{"code":"USD","system":"urn:iso:std:iso:4217","value":0}},{"url":"https://bluebutton.cms.gov/assets/ig/StructureDefinition-bluebutton-inpatient-nch-ip-ncvrd-chrg-amt-extension","valueMoney":{"code":"USD","system":"urn:iso:std:iso:4217","value":0}},{"url":"https://bluebutton.cms.gov/assets/ig/StructureDefinition-bluebutton-inpatient-nch-ip-tot-ddctn-amt-extension","valueMoney":{"code":"USD","system":"urn:iso:std:iso:4217","value":0}},{"url":"https://bluebutton.cms.gov/assets/ig/StructureDefinition-bluebutton-inpatient-clm-pps-cptl-dsprprtnt-shr-amt-extension","valueMoney":{"code":"USD","system":"urn:iso:std:iso:4217","value":0}},{"url":"https://bluebutton.cms.gov/assets/ig/StructureDefinition-bluebutton-inpatient-clm-pps-cptl-excptn-amt-extension","valueMoney":{"code":"USD","system":"urn:iso:std:iso:4217","value":0}},{"url":"https://bluebutton.cms.gov/assets/ig/StructureDefinition-bluebutton-inpatient-clm-pps-cptl-fsp-amt-extension","valueMoney":{"code":"USD","system":"urn:iso:std:iso:4217","value":0}},{"url":"https://bluebutton.cms.gov/assets/ig/StructureDefinition-bluebutton-inpatient-clm-pps-cptl-ime-amt-extension","valueMoney":{"code":"USD","system":"urn:iso:std:iso:4217","value":400}},{"url":"https://bluebutton.cms.gov/assets/ig/StructureDefinition-bluebutton-inpatient-clm-pps-cptl-outlier-amt-extension","valueMoney":{"code":"USD","system":"urn:iso:std:iso:4217","value":0}},{"url":"https://bluebutton.cms.gov/assets/ig/StructureDefinition-bluebutton-inpatient-clm-pps-old-cptl-hld-hrmls-amt-extension","valueMoney":{"code":"USD","system":"urn:iso:std:iso:4217","value":0}},{"url":"https://bluebutton.cms.gov/assets/ig/StructureDefinition-bluebutton-inpatient-nch-drg-outlier-aprvd-pmt-amt-extension","valueMoney":{"code":"USD","system":"urn:iso:std:iso:4217","value":0}},{"url":"https://bluebutton.cms.gov/assets/ig/StructureDefinition-bluebutton-inpatient-nch-bene-blood-ddctbl-lblty-am-extension","valueMoney":{"code":"USD","system":"urn:iso:std:iso:4217","value":0}},{"url":"https://bluebutton.cms.gov/assets/ig/StructureDefinition-bluebutton-inpatient-clm-mdcr-non-pmt-rsn-cd-extension","valueCoding":{"code":"N","display":"All other reasons for non-payment","system":"https://bluebutton.cms.gov/assets/ig/CodeSystem-clm-mdcr-non-pmt-rsn-cd"}},{"url":"https://bluebutton.cms.gov/assets/ig/StructureDefinition-bluebutton-inpatient-prpayamt-extension","valueMoney":{"code":"USD","system":"urn:iso:std:iso:4217","value":0}},{"url":"https://bluebutton.cms.gov/assets/ig/StructureDefinition-bluebutton-inpatient-fi-num-extension","valueIdentifier":{"system":"https://bluebutton.cms.gov/assets/ig/CodeSystem-fi-num","value":"002000"}}],"id":"f8930eb4-17d2-46b2-b766-92bd7f37275f","identifier":[{"system":"https://bluebutton.cms.gov/resources/variables/clm_id","value":"2146f7a2-65e4-4a9d-8daf-6398be500741"},{"system":"https://bluebutton.cms.gov/resources/identifier/claim-group","value":"99999999999"}],"insurance":{"coverage":{"reference":"#coverage"}},"item":[{"extension":[{"url":"https://bluebutton.cms.gov/assets/ig/StructureDefinition-bluebutton-inpatient-rev-cntr-ndc-qty-extension","valueQuantity":{"value":0}}],"locationCodeableConcept":{"coding":[{"code":"21","display":"Inpatient Hospital","system":"https://bluebutton.cms.gov/resources/variables/line_place_of_srvc_cd"}]},"sequence":1}],"meta":{"lastUpdated":"2019-04-09T09:53:58.666649+00:00","profile":["https://bluebutton.cms.gov/assets/ig/StructureDefinition-bluebutton-inpatient-claim"],"versionId":"MTU1NDgwMzYzODY2NjY0OTAwMA"},"organization":{"identifier":{"value":"36a03348-cac3-4284-b8c1-ffff7032af72"}},"patient":{"reference":"Patient/00a9d331-c53d-4152-aa6d-5dbceb2d1418"},"payment":{"amount":{"code":"USD","system":"urn:iso:std:iso:4217","value":0}},"provider":{"identifier":{"value":"80e8e6bd-5973-4681-bb2a-74927c72d003"}},"resourceType":"ExplanationOfBenefit","status":"active","totalCost":{"code":"USD","system":"urn:iso:std:iso:4217","value":125},"type":{"coding":[{"code":"71","display":"Local carrier non-durable medical equipment, prosthetics, orthotics, and supplies (DMEPOS) claim","system":"https://bluebutton.cms.gov/resources/variables/nch_clm_type_cd"},{"code":"CARRIER","display":"EOB Type","system":"https://bluebutton.cms.gov/resources/codesystem/eob-type"},{"code":"professional","display":"Claim Type","system":"http://hl7.org/fhir/ex-claimtype"},{"code":"O","display":"Part B physician/supplier claim record (processed by local carriers; can include DMEPOS services)","system":"https://bluebutton.cms.gov/resources/variables/nch_near_line_rec_ident_cd"}]}}},{"resource":{"date":"2012-07-04T18:01:57-04:00","encounter":{"reference":"Encounter/24e4fa68-6797-44c3-bae1-1342c6ef2e2b"},"id":"0feb1233-4ea7-40a6-81c8-b49e4bf18b4a","meta":{"lastUpdated":"2019-04-09T09:53:57.777944+00:00","versionId":"MTU1NDgwMzYzNzc3Nzk0NDAwMA"},"notGiven":false,"patient":{"reference":"Patient/00a9d331-c53d-4152-aa6d-5dbceb2d1418"},"primarySource":true,"resourceType":"Immunization","status":"completed","vaccineCode":{"coding":[{"code":"140","display":"Influenza, seasonal, injectable, preservative free","system":"http://hl7.org/fhir/sid/cvx"}],"text":"Influenza, seasonal, injectable, preservative free"}}},{"resource":{"date":"2017-01-04T17:01:57-05:00","encounter":{"reference":"Encounter/3c075c96-c2a2-4e1d-8cfb-a1dd83c43295"},"id":"11afb630-9963-4679-a35b-449083fb6eb6","meta":{"lastUpdated":"2019-04-09T09:54:01.503331+00:00","versionId":"MTU1NDgwMzY0MTUwMzMzMTAwMA"},"notGiven":false,"patient":{"reference":"Patient/00a9d331-c53d-4152-aa6d-5dbceb2d1418"},"primarySource":true,"resourceType":"Immunization","status":"completed","vaccineCode":{"coding":[{"code":"140","display":"Influenza, seasonal, injectable, preservative free","system":"http://hl7.org/fhir/sid/cvx"}],"text":"Influenza, seasonal, injectable, preservative free"}}},{"resource":{"date":"2013-02-27T17:01:57-05:00","encounter":{"reference":"Encounter/34c76c4d-3633-4c33-afc2-bf54f5dea64d"},"id":"286cfbab-ccda-4064-a495-718fac57271e","meta":{"lastUpdated":"2019-04-09T09:53:58.302217+00:00","versionId":"MTU1NDgwMzYzODMwMjIxNzAwMA"},"notGiven":false,"patient":{"reference":"Patient/00a9d331-c53d-4152-aa6d-5dbceb2d1418"},"primarySource":true,"resourceType":"Immunization","status":"completed","vaccineCode":{"coding":[{"code":"140","display":"Influenza, seasonal, injectable, preservative free","system":"http://hl7.org/fhir/sid/cvx"}],"text":"Influenza, seasonal, injectable, preservative free"}}},{"resource":{"date":"2010-04-14T18:01:57-04:00","encounter":{"reference":"Encounter/86863400-8a71-402f-a1ca-e12a859abe50"},"id":"67534b5a-4cdc-4609-aa53-07fa275d792b","meta":{"lastUpdated":"2019-04-09T09:53:56.588673+00:00","versionId":"MTU1NDgwMzYzNjU4ODY3MzAwMA"},"notGiven":false,"patient":{"reference":"Patient/00a9d331-c53d-4152-aa6d-5dbceb2d1418"},"primarySource":true,"resourceType":"Immunization","status":"completed","vaccineCode":{"coding":[{"code":"140","display":"Influenza, seasonal, injectable, preservative free","system":"http://hl7.org/fhir/sid/cvx"}],"text":"Influenza, seasonal, injectable, preservative free"}}},{"resource":{"date":"2015-12-30T17:01:57-05:00","encounter":{"reference":"Encounter/fc839990-8dad-4fff-8381-9c0eec95960f"},"id":"6f0ed18c-e939-4fc5-acc5-91a197a29eac","meta":{"lastUpdated":"2019-04-09T09:54:01.503326+00:00","versionId":"MTU1NDgwMzY0MTUwMzMyNjAwMA"},"notGiven":false,"patient":{"reference":"Patient/00a9d331-c53d-4152-aa6d-5dbceb2d1418"},"primarySource":true,"resourceType":"Immunization","status":"completed","vaccineCode":{"coding":[{"code":"140","display":"Influenza, seasonal, injectable, preservative free","system":"http://hl7.org/fhir/sid/cvx"}],"text":"Influenza, seasonal, injectable, preservative free"}}},{"resource":{"date":"2018-01-10T17:01:57-05:00","encounter":{"reference":"Encounter/128b3d94-f3ec-4ae1-acf1-eab3a2e62cf5"},"id":"7a7c6808-3763-4b5f-b5f0-c108d7e60991","meta":{"lastUpdated":"2019-04-09T09:54:01.624233+00:00","versionId":"MTU1NDgwMzY0MTYyNDIzMzAwMA"},"notGiven":false,"patient":{"reference":"Patient/00a9d331-c53d-4152-aa6d-5dbceb2d1418"},"primarySource":true,"resourceType":"Immunization","status":"completed","vaccineCode":{"coding":[{"code":"140","display":"Influenza, seasonal, injectable, preservative free","system":"http://hl7.org/fhir/sid/cvx"}],"text":"Influenza, seasonal, injectable, preservative free"}}},{"resource":{"date":"2014-03-12T18:01:57-04:00","encounter":{"reference":"Encounter/baffc4df-6ddb-4c7a-95d6-8317d095bce4"},"id":"8e0ca32a-1eed-459c-bffd-5105e5f5790e","meta":{"lastUpdated":"2019-04-09T09:54:01.174603+00:00","versionId":"MTU1NDgwMzY0MTE3NDYwMzAwMA"},"notGiven":false,"patient":{"reference":"Patient/00a9d331-c53d-4152-aa6d-5dbceb2d1418"},"primarySource":true,"resourceType":"Immunization","status":"completed","vaccineCode":{"coding":[{"code":"140","display":"Influenza, seasonal, injectable, preservative free","system":"http://hl7.org/fhir/sid/cvx"}],"text":"Influenza, seasonal, injectable, preservative free"}}},{"resource":{"date":"2011-04-20T18:01:57-04:00","encounter":{"reference":"Encounter/bae55ac8-f5bf-4f55-9f49-75127c26c2ae"},"id":"ac78bb80-663d-48a3-a983-ad1dc4b193f3","meta":{"lastUpdated":"2019-04-09T09:53:58.976379+00:00","versionId":"MTU1NDgwMzYzODk3NjM3OTAwMA"},"notGiven":false,"patient":{"reference":"Patient/00a9d331-c53d-4152-aa6d-5dbceb2d1418"},"primarySource":true,"resourceType":"Immunization","status":"completed","vaccineCode":{"coding":[{"code":"113","display":"Td (adult) preservative free","system":"http://hl7.org/fhir/sid/cvx"}],"text":"Td (adult) preservative free"}}},{"resource":{"date":"2015-03-18T18:01:57-04:00","encounter":{"reference":"Encounter/b891b2e8-1816-42c3-bf53-b766bac72a78"},"id":"d0c9abee-bab6-40c1-ad92-870bb5a99c2a","meta":{"lastUpdated":"2019-04-09T09:54:01.167515+00:00","versionId":"MTU1NDgwMzY0MTE2NzUxNTAwMA"},"notGiven":false,"patient":{"reference":"Patient/00a9d331-c53d-4152-aa6d-5dbceb2d1418"},"primarySource":true,"resourceType":"Immunization","status":"completed","vaccineCode":{"coding":[{"code":"140","display":"Influenza, seasonal, injectable, preservative free","system":"http://hl7.org/fhir/sid/cvx"}],"text":"Influenza, seasonal, injectable, preservative free"}}},{"resource":{"date":"2011-04-20T18:01:57-04:00","encounter":{"reference":"Encounter/bae55ac8-f5bf-4f55-9f49-75127c26c2ae"},"id":"ec76bf3e-eb24-48c4-8a77-8876745735e0","meta":{"lastUpdated":"2019-04-09T09:53:56.598711+00:00","versionId":"MTU1NDgwMzYzNjU5ODcxMTAwMA"},"notGiven":false,"patient":{"reference":"Patient/00a9d331-c53d-4152-aa6d-5dbceb2d1418"},"primarySource":true,"resourceType":"Immunization","status":"completed","vaccineCode":{"coding":[{"code":"140","display":"Influenza, seasonal, injectable, preservative free","system":"http://hl7.org/fhir/sid/cvx"}],"text":"Influenza, seasonal, injectable, preservative free"}}},{"resource":{"date":"2009-04-08T18:01:57-04:00","encounter":{"reference":"Encounter/606e1a33-b653-4d62-92af-335f10a62170"},"id":"f160dc4d-3b48-4693-b7b6-38346c08d8da","meta":{"lastUpdated":"2019-04-09T09:53:58.633763+00:00","versionId":"MTU1NDgwMzYzODYzMzc2MzAwMA"},"notGiven":false,"patient":{"reference":"Patient/00a9d331-c53d-4152-aa6d-5dbceb2d1418"},"primarySource":true,"resourceType":"Immunization","status":"completed","vaccineCode":{"coding":[{"code":"140","display":"Influenza, seasonal, injectable, preservative free","system":"http://hl7.org/fhir/sid/cvx"}],"text":"Influenza, seasonal, injectable, preservative free"}}},{"resource":{"authoredOn":"2018-01-10T17:01:57-05:00","context":{"reference":"Encounter/128b3d94-f3ec-4ae1-acf1-eab3a2e62cf5"},"id":"280365d6-b5ac-4195-97b3-549e18c24de4","intent":"order","medicationCodeableConcept":{"coding":[{"code":"312961","display":"Simvastatin 20 MG Oral Tablet","system":"http://www.nlm.nih.gov/research/umls/rxnorm"}],"text":"Simvastatin 20 MG Oral Tablet"},"meta":{"lastUpdated":"2019-04-09T09:54:02.858721+00:00","versionId":"MTU1NDgwMzY0Mjg1ODcyMTAwMA"},"requester":{"agent":{"reference":"Practitioner/80e8e6bd-5973-4681-bb2a-74927c72d003"},"onBehalfOf":{"reference":"Organization/36a03348-cac3-4284-b8c1-ffff7032af72"}},"resourceType":"MedicationRequest","status":"active","subject":{"reference":"Patient/00a9d331-c53d-4152-aa6d-5dbceb2d1418"}}},{"resource":{"authoredOn":"2013-03-06T17:01:57-05:00","context":{"reference":"Encounter/f7a3bedd-a333-4f01-a6f0-8d7d1376c04b"},"id":"2b1289bc-2b12-4677-aefb-8f585fff8a6f","intent":"order","medicationCodeableConcept":{"coding":[{"code":"310436","display":"Galantamine 4 MG Oral Tablet","system":"http://www.nlm.nih.gov/research/umls/rxnorm"}],"text":"Galantamine 4 MG Oral Tablet"},"meta":{"lastUpdated":"2019-04-09T09:53:58.666661+00:00","versionId":"MTU1NDgwMzYzODY2NjY2MTAwMA"},"reasonReference":[{"reference":"Condition/8369b60e-13d4-4553-a018-39348d23d44b"}],"requester":{"agent":{"reference":"Practitioner/80e8e6bd-5973-4681-bb2a-74927c72d003"},"onBehalfOf":{"reference":"Organization/36a03348-cac3-4284-b8c1-ffff7032af72"}},"resourceType":"MedicationRequest","status":"active","subject":{"reference":"Patient/00a9d331-c53d-4152-aa6d-5dbceb2d1418"}}},{"resource":{"authoredOn":"2015-12-23T17:01:57-05:00","context":{"reference":"Encounter/0eb8ace1-47d6-4120-9934-9061108849fb"},"dosageInstruction":[{"asNeededBoolean":false,"doseQuantity":{"value":1},"sequence":1,"timing":{"repeat":{"frequency":1,"period":6,"periodUnit":"h"}}}],"id":"49031046-17e1-42ae-bea3-b9a08eb98d27","intent":"order","medicationCodeableConcept":{"coding":[{"code":"1049221","display":"Acetaminophen 325 MG / oxyCODONE Hydrochloride 5 MG Oral Tablet","system":"http://www.nlm.nih.gov/research/umls/rxnorm"}],"text":"Acetaminophen 325 MG / oxyCODONE Hydrochloride 5 MG Oral Tablet"},"meta":{"lastUpdated":"2019-04-09T09:54:01.511015+00:00","versionId":"MTU1NDgwMzY0MTUxMTAxNTAwMA"},"requester":{"agent":{"reference":"Practitioner/80e8e6bd-5973-4681-bb2a-74927c72d003"},"onBehalfOf":{"reference":"Organization/36a03348-cac3-4284-b8c1-ffff7032af72"}},"resourceType":"MedicationRequest","status":"stopped","subject":{"reference":"Patient/00a9d331-c53d-4152-aa6d-5dbceb2d1418"}}},{"resource":{"authoredOn":"2015-12-23T17:01:57-05:00","context":{"reference":"Encounter/0eb8ace1-47d6-4120-9934-9061108849fb"},"dosageInstruction":[{"asNeededBoolean":true,"sequence":1}],"id":"6d36f10d-f043-41a1-a2c6-e4bfb2d522d4","intent":"order","medicationCodeableConcept":{"coding":[{"code":"310965","display":"Ibuprofen 200 MG Oral Tablet","system":"http://www.nlm.nih.gov/research/umls/rxnorm"}],"text":"Ibuprofen 200 MG Oral Tablet"},"meta":{"lastUpdated":"2019-04-09T09:54:01.503321+00:00","versionId":"MTU1NDgwMzY0MTUwMzMyMTAwMA"},"requester":{"agent":{"reference":"Practitioner/80e8e6bd-5973-4681-bb2a-74927c72d003"},"onBehalfOf":{"reference":"Organization/36a03348-cac3-4284-b8c1-ffff7032af72"}},"resourceType":"MedicationRequest","status":"stopped","subject":{"reference":"Patient/00a9d331-c53d-4152-aa6d-5dbceb2d1418"}}},{"resource":{"authoredOn":"2016-10-31T18:01:57-04:00","context":{"reference":"Encounter/95cb21b5-1905-46b9-8041-a8b5c4fba513"},"id":"71f1c702-a9b1-4b9a-8e47-2df85005818b","intent":"order","medicationCodeableConcept":{"coding":[{"code":"313782","display":"Acetaminophen 325 MG Oral Tablet","system":"http://www.nlm.nih.gov/research/umls/rxnorm"}],"text":"Acetaminophen 325 MG Oral Tablet"},"meta":{"lastUpdated":"2019-04-09T09:54:01.512541+00:00","versionId":"MTU1NDgwMzY0MTUxMjU0MTAwMA"},"reasonReference":[{"reference":"Condition/365f1105-0399-4af8-8a28-5f650398c58e"}],"requester":{"agent":{"reference":"Practitioner/80e8e6bd-5973-4681-bb2a-74927c72d003"},"onBehalfOf":{"reference":"Organization/36a03348-cac3-4284-b8c1-ffff7032af72"}},"resourceType":"MedicationRequest","status":"stopped","subject":{"reference":"Patient/00a9d331-c53d-4152-aa6d-5dbceb2d1418"}}},{"resource":{"authoredOn":"2018-01-10T17:01:57-05:00","context":{"reference":"Encounter/128b3d94-f3ec-4ae1-acf1-eab3a2e62cf5"},"id":"9ab889e4-fb68-49b1-9bc3-4911a891b925","intent":"order","medicationCodeableConcept":{"coding":[{"code":"309362","display":"Clopidogrel 75 MG Oral Tablet","system":"http://www.nlm.nih.gov/research/umls/rxnorm"}],"text":"Clopidogrel 75 MG Oral Tablet"},"meta":{"lastUpdated":"2019-04-09T09:53:59.709475+00:00","versionId":"MTU1NDgwMzYzOTcwOTQ3NTAwMA"},"requester":{"agent":{"reference":"Practitioner/80e8e6bd-5973-4681-bb2a-74927c72d003"},"onBehalfOf":{"reference":"Organization/36a03348-cac3-4284-b8c1-ffff7032af72"}},"resourceType":"MedicationRequest","status":"active","subject":{"reference":"Patient/00a9d331-c53d-4152-aa6d-5dbceb2d1418"}}},{"resource":{"authoredOn":"2018-01-10T17:01:57-05:00","context":{"reference":"Encounter/128b3d94-f3ec-4ae1-acf1-eab3a2e62cf5"},"id":"b0bbc285-73c3-4fd7-851d-f64556c7ef83","intent":"order","medicationCodeableConcept":{"coding":[{"code":"705129","display":"Nitroglycerin 0.4 MG/ACTUAT Mucosal Spray","system":"http://www.nlm.nih.gov/research/umls/rxnorm"}],"text":"Nitroglycerin 0.4 MG/ACTUAT Mucosal Spray"},"meta":{"lastUpdated":"2019-04-09T09:54:02.823407+00:00","versionId":"MTU1NDgwMzY0MjgyMzQwNzAwMA"},"requester":{"agent":{"reference":"Practitioner/80e8e6bd-5973-4681-bb2a-74927c72d003"},"onBehalfOf":{"reference":"Organization/36a03348-cac3-4284-b8c1-ffff7032af72"}},"resourceType":"MedicationRequest","status":"active","subject":{"reference":"Patient/00a9d331-c53d-4152-aa6d-5dbceb2d1418"}}},{"resource":{"authoredOn":"2013-12-31T17:01:57-05:00","context":{"reference":"Encounter/4c7ca9fb-74e3-49ed-bdc2-7c33e4eab84c"},"id":"b7efd5ea-455d-4ba1-ba47-d21b88ecb4ae","intent":"order","medicationCodeableConcept":{"coding":[{"code":"996740","display":"Memantine hydrochloride 2 MG/ML Oral Solution","system":"http://www.nlm.nih.gov/research/umls/rxnorm"}],"text":"Memantine hydrochloride 2 MG/ML Oral Solution"},"meta":{"lastUpdated":"2019-04-09T09:53:58.666181+00:00","versionId":"MTU1NDgwMzYzODY2NjE4MTAwMA"},"reasonReference":[{"reference":"Condition/8369b60e-13d4-4553-a018-39348d23d44b"}],"requester":{"agent":{"reference":"Practitioner/80e8e6bd-5973-4681-bb2a-74927c72d003"},"onBehalfOf":{"reference":"Organization/36a03348-cac3-4284-b8c1-ffff7032af72"}},"resourceType":"MedicationRequest","status":"active","subject":{"reference":"Patient/00a9d331-c53d-4152-aa6d-5dbceb2d1418"}}},{"resource":{"authoredOn":"2013-02-18T17:01:57-05:00","context":{"reference":"Encounter/28912428-3285-49b5-b776-3f2c809d994f"},"id":"c9838b35-9aa5-48bd-b2b3-c802ac285646","intent":"order","medicationCodeableConcept":{"coding":[{"code":"834102","display":"Penicillin V Potassium 500 MG Oral Tablet","system":"http://www.nlm.nih.gov/research/umls/rxnorm"}],"text":"Penicillin V Potassium 500 MG Oral Tablet"},"meta":{"lastUpdated":"2019-04-09T09:53:59.860387+00:00","versionId":"MTU1NDgwMzYzOTg2MDM4NzAwMA"},"reasonReference":[{"reference":"Condition/036e5ced-a945-4c9a-ae7e-15f3a6238f18"}],"requester":{"agent":{"reference":"Practitioner/80e8e6bd-5973-4681-bb2a-74927c72d003"},"onBehalfOf":{"reference":"Organization/36a03348-cac3-4284-b8c1-ffff7032af72"}},"resourceType":"MedicationRequest","status":"stopped","subject":{"reference":"Patient/00a9d331-c53d-4152-aa6d-5dbceb2d1418"}}},{"resource":{"authoredOn":"2018-01-10T17:01:57-05:00","context":{"reference":"Encounter/128b3d94-f3ec-4ae1-acf1-eab3a2e62cf5"},"id":"cdcc9e19-bb2a-4889-a429-fc4f3dfb3035","intent":"order","medicationCodeableConcept":{"coding":[{"code":"197361","display":"Amlodipine 5 MG Oral Tablet","system":"http://www.nlm.nih.gov/research/umls/rxnorm"}],"text":"Amlodipine 5 MG Oral Tablet"},"meta":{"lastUpdated":"2019-04-09T09:54:01.588993+00:00","versionId":"MTU1NDgwMzY0MTU4ODk5MzAwMA"},"requester":{"agent":{"reference":"Practitioner/80e8e6bd-5973-4681-bb2a-74927c72d003"},"onBehalfOf":{"reference":"Organization/36a03348-cac3-4284-b8c1-ffff7032af72"}},"resourceType":"MedicationRequest","status":"active","subject":{"reference":"Patient/00a9d331-c53d-4152-aa6d-5dbceb2d1418"}}},{"resource":{"category":[{"coding":[{"code":"laboratory","display":"laboratory","system":"http://hl7.org/fhir/observation-category"}]}],"code":{"coding":[{"code":"2085-9","display":"High Density Lipoprotein Cholesterol","system":"http://loinc.org"}],"text":"High Density Lipoprotein Cholesterol"},"context":{"reference":"Encounter/b891b2e8-1816-42c3-bf53-b766bac72a78"},"effectiveDateTime":"2015-03-18T18:01:57-04:00","id":"038f831d-0c03-4b35-bf22-1a0e2ca8d615","issued":"2015-03-18T18:01:57.161-04:00","meta":{"lastUpdated":"2019-04-09T09:53:58.666649+00:00","versionId":"MTU1NDgwMzYzODY2NjY0OTAwMA"},"resourceType":"Observation","status":"final","subject":{"reference":"Patient/00a9d331-c53d-4152-aa6d-5dbceb2d1418"},"valueQuantity":{"code":"mg/dL","system":"http://unitsofmeasure.org","unit":"mg/dL","value":59.86656071300884}}},{"resource":{"category":[{"coding":[{"code":"survey","display":"survey","system":"http://hl7.org/fhir/observation-category"}]}],"code":{"coding":[{"code":"72166-2","display":"Tobacco smoking status NHIS","system":"http://loinc.org"}],"text":"Tobacco smoking status NHIS"},"context":{"reference":"Encounter/b891b2e8-1816-42c3-bf53-b766bac72a78"},"effectiveDateTime":"2015-03-18T18:01:57-04:00","id":"03b34fcc-69bb-45d9-b40f-e9ba6e913f66","issued":"2015-03-18T18:01:57.161-04:00","meta":{"lastUpdated":"2019-04-09T09:53:58.671618+00:00","versionId":"MTU1NDgwMzYzODY3MTYxODAwMA"},"resourceType":"Observation","status":"final","subject":{"reference":"Patient/00a9d331-c53d-4152-aa6d-5dbceb2d1418"},"valueCodeableConcept":{"coding":[{"code":"266919005","display":"Never smoker","system":"http://snomed.info/sct"}],"text":"Never smoker"}}},{"resource":{"category":[{"coding":[{"code":"vital-signs","display":"vital-signs","system":"http://hl7.org/fhir/observation-category"}]}],"code":{"coding":[{"code":"39156-5","display":"Body Mass Index","system":"http://loinc.org"}],"text":"Body Mass Index"},"context":{"reference":"Encounter/baffc4df-6ddb-4c7a-95d6-8317d095bce4"},"effectiveDateTime":"2014-03-12T18:01:57-04:00","id":"05b9072f-9e76-4abe-8cd4-393181303b80","issued":"2014-03-12T18:01:57.161-04:00","meta":{"lastUpdated":"2019-04-09T09:53:58.666639+00:00","versionId":"MTU1NDgwMzYzODY2NjYzOTAwMA"},"resourceType":"Observation","status":"final","subject":{"reference":"Patient/00a9d331-c53d-4152-aa6d-5dbceb2d1418"},"valueQuantity":{"code":"kg/m2","system":"http://unitsofmeasure.org","unit":"kg/m2","value":36.66361083607614}}},{"resource":{"category":[{"coding":[{"code":"survey","display":"survey","system":"http://hl7.org/fhir/observation-category"}]}],"code":{"coding":[{"code":"72166-2","display":"Tobacco smoking status NHIS","system":"http://loinc.org"}],"text":"Tobacco smoking status NHIS"},"context":{"reference":"Encounter/86863400-8a71-402f-a1ca-e12a859abe50"},"effectiveDateTime":"2010-04-14T18:01:57-04:00","id":"06e1f466-f2ad-4c06-a0bb-22f278c93fdd","issued":"2010-04-14T18:01:57.161-04:00","meta":{"lastUpdated":"2019-04-09T09:53:56.588861+00:00","versionId":"MTU1NDgwMzYzNjU4ODg2MTAwMA"},"resourceType":"Observation","status":"final","subject":{"reference":"Patient/00a9d331-c53d-4152-aa6d-5dbceb2d1418"},"valueCodeableConcept":{"coding":[{"code":"266919005","display":"Never smoker","system":"http://snomed.info/sct"}],"text":"Never smoker"}}},{"resource":{"category":[{"coding":[{"code":"laboratory","display":"laboratory","system":"http://hl7.org/fhir/observation-category"}]}],"code":{"coding":[{"code":"789-8","display":"Erythrocytes [#/volume] in Blood by Automated count","system":"http://loinc.org"}],"text":"Erythrocytes [#/volume] in Blood by Automated count"},"context":{"reference":"Encounter/128b3d94-f3ec-4ae1-acf1-eab3a2e62cf5"},"effectiveDateTime":"2018-01-10T17:01:57-05:00","id":"073450aa-e67c-4b4c-b9ed-62eff5e56639","issued":"2018-01-10T17:01:57.161-05:00","meta":{"lastUpdated":"2019-04-09T09:54:01.501373+00:00","versionId":"MTU1NDgwMzY0MTUwMTM3MzAwMA"},"resourceType":"Observation","status":"final","subject":{"reference":"Patient/00a9d331-c53d-4152-aa6d-5dbceb2d1418"},"valueQuantity":{"code":"10*6/uL","system":"http://unitsofmeasure.org","unit":"10*6/uL","value":3.90835659187991}}},{"resource":{"category":[{"coding":[{"code":"vital-signs","display":"vital-signs","system":"http://hl7.org/fhir/observation-category"}]}],"code":{"coding":[{"code":"8331-1","display":"Oral temperature","system":"http://loinc.org"}],"text":"Oral temperature"},"context":{"reference":"Encounter/36bf7a9c-65cc-4168-9410-1fb40fa2021f"},"effectiveDateTime":"2011-06-20T18:01:57-04:00","id":"0a02af3e-6775-48d3-a85e-78d41ee0522e","issued":"2011-06-20T18:01:57.161-04:00","meta":{"lastUpdated":"2019-04-09T09:53:59.751711+00:00","versionId":"MTU1NDgwMzYzOTc1MTcxMTAwMA"},"resourceType":"Observation","status":"final","subject":{"reference":"Patient/00a9d331-c53d-4152-aa6d-5dbceb2d1418"},"valueQuantity":{"code":"Cel","system":"http://unitsofmeasure.org","unit":"Cel","value":37.82593823912807}}},{"resource":{"category":[{"coding":[{"code":"laboratory","display":"laboratory","system":"http://hl7.org/fhir/observation-category"}]}],"code":{"coding":[{"code":"777-3","display":"Platelets [#/volume] in Blood by Automated count","system":"http://loinc.org"}],"text":"Platelets [#/volume] in Blood by Automated count"},"context":{"reference":"Encounter/24e4fa68-6797-44c3-bae1-1342c6ef2e2b"},"effectiveDateTime":"2012-07-04T18:01:57-04:00","id":"0af69465-a9a2-443a-ad30-f6785f794bea","issued":"2012-07-04T18:01:57.161-04:00","meta":{"lastUpdated":"2019-04-09T09:53:59.814795+00:00","versionId":"MTU1NDgwMzYzOTgxNDc5NTAwMA"},"resourceType":"Observation","status":"final","subject":{"reference":"Patient/00a9d331-c53d-4152-aa6d-5dbceb2d1418"},"valueQuantity":{"code":"10*3/uL","system":"http://unitsofmeasure.org","unit":"10*3/uL","value":309.53105341452573}}},{"resource":{"category":[{"coding":[{"code":"survey","display":"survey","system":"http://hl7.org/fhir/observation-category"}]}],"code":{"coding":[{"code":"72166-2","display":"Tobacco smoking status NHIS","system":"http://loinc.org"}],"text":"Tobacco smoking status NHIS"},"context":{"reference":"Encounter/128b3d94-f3ec-4ae1-acf1-eab3a2e62cf5"},"effectiveDateTime":"2018-01-10T17:01:57-05:00","id":"0b0df6ac-b781-4bf2-aa27-a229dfde2878","issued":"2018-01-10T17:01:57.161-05:00","meta":{"lastUpdated":"2019-04-09T09:54:01.503319+00:00","versionId":"MTU1NDgwMzY0MTUwMzMxOTAwMA"},"resourceType":"Observation","status":"final","subject":{"reference":"Patient/00a9d331-c53d-4152-aa6d-5dbceb2d1418"},"valueCodeableConcept":{"coding":[{"code":"266919005","display":"Never smoker","system":"http://snomed.info/sct"}],"text":"Never smoker"}}},{"resource":{"category":[{"coding":[{"code":"survey","display":"survey","system":"http://hl7.org/fhir/observation-category"}]}],"code":{"coding":[{"code":"72106-8","display":"Total score [MMSE]","system":"http://loinc.org"}],"text":"Total score [MMSE]"},"context":{"reference":"Encounter/f7a3bedd-a333-4f01-a6f0-8d7d1376c04b"},"effectiveDateTime":"2013-03-06T17:01:57-05:00","id":"0c090af7-4821-49f9-ae08-d0fab6b7a41d","issued":"2013-03-06T17:01:57.161-05:00","meta":{"lastUpdated":"2019-04-09T09:53:58.666252+00:00","versionId":"MTU1NDgwMzYzODY2NjI1MjAwMA"},"resourceType":"Observation","status":"final","subject":{"reference":"Patient/00a9d331-c53d-4152-aa6d-5dbceb2d1418"},"valueQuantity":{"code":"(score)","system":"http://unitsofmeasure.org","unit":"(score)","value":20.003388293555787}}},{"resource":{"category":[{"coding":[{"code":"vital-signs","display":"vital-signs","system":"http://hl7.org/fhir/observation-category"}]}],"code":{"coding":[{"code":"72514-3","display":"Pain severity - 0-10 verbal numeric rating [Score] - Reported","system":"http://loinc.org"}],"text":"Pain severity - 0-10 verbal numeric rating [Score] - Reported"},"context":{"reference":"Encounter/f7a3bedd-a333-4f01-a6f0-8d7d1376c04b"},"effectiveDateTime":"2013-03-06T17:01:57-05:00","id":"0c63905b-64ee-4b8c-b220-9a1db8dc6aea","issued":"2013-03-06T17:01:57.161-05:00","meta":{"lastUpdated":"2019-04-09T09:53:58.673668+00:00","versionId":"MTU1NDgwMzYzODY3MzY2ODAwMA"},"resourceType":"Observation","status":"final","subject":{"reference":"Patient/00a9d331-c53d-4152-aa6d-5dbceb2d1418"},"valueQuantity":{"code":"{score}","system":"http://unitsofmeasure.org","unit":"{score}","value":0.5646989908281514}}},{"resource":{"category":[{"coding":[{"code":"vital-signs","display":"vital-signs","system":"http://hl7.org/fhir/observation-category"}]}],"code":{"coding":[{"code":"29463-7","display":"Body Weight","system":"http://loinc.org"}],"text":"Body Weight"},"context":{"reference":"Encounter/86863400-8a71-402f-a1ca-e12a859abe50"},"effectiveDateTime":"2010-04-14T18:01:57-04:00","id":"0f445e1b-bb74-4aea-905c-bd4492d4242d","issued":"2010-04-14T18:01:57.161-04:00","meta":{"lastUpdated":"2019-04-09T09:53:58.960196+00:00","versionId":"MTU1NDgwMzYzODk2MDE5NjAwMA"},"resourceType":"Observation","status":"final","subject":{"reference":"Patient/00a9d331-c53d-4152-aa6d-5dbceb2d1418"},"valueQuantity":{"code":"kg","system":"http://unitsofmeasure.org","unit":"kg","value":117.03057249936205}}},{"resource":{"category":[{"coding":[{"code":"vital-signs","display":"vital-signs","system":"http://hl7.org/fhir/observation-category"}]}],"code":{"coding":[{"code":"39156-5","display":"Body Mass Index","system":"http://loinc.org"}],"text":"Body Mass Index"},"context":{"reference":"Encounter/24e4fa68-6797-44c3-bae1-1342c6ef2e2b"},"effectiveDateTime":"2012-07-04T18:01:57-04:00","id":"16760f5b-e955-43ec-bd33-d5bb46469b83","issued":"2012-07-04T18:01:57.161-04:00","meta":{"lastUpdated":"2019-04-09T09:53:59.771449+00:00","versionId":"MTU1NDgwMzYzOTc3MTQ0OTAwMA"},"resourceType":"Observation","status":"final","subject":{"reference":"Patient/00a9d331-c53d-4152-aa6d-5dbceb2d1418"},"valueQuantity":{"code":"kg/m2","system":"http://unitsofmeasure.org","unit":"kg/m2","value":37.09159391229615}}},{"resource":{"category":[{"coding":[{"code":"laboratory","display":"laboratory","system":"http://hl7.org/fhir/observation-category"}]}],"code":{"coding":[{"code":"2085-9","display":"High Density Lipoprotein Cholesterol","system":"http://loinc.org"}],"text":"High Density Lipoprotein Cholesterol"},"context":{"reference":"Encounter/bae55ac8-f5bf-4f55-9f49-75127c26c2ae"},"effectiveDateTime":"2011-04-20T18:01:57-04:00","id":"16d96452-5e97-4f65-a688-14b894d4da56","issued":"2011-04-20T18:01:57.161-04:00","meta":{"lastUpdated":"2019-04-09T09:53:58.976380+00:00","versionId":"MTU1NDgwMzYzODk3NjM4MDAwMA"},"resourceType":"Observation","status":"final","subject":{"reference":"Patient/00a9d331-c53d-4152-aa6d-5dbceb2d1418"},"valueQuantity":{"code":"mg/dL","system":"http://unitsofmeasure.org","unit":"mg/dL","value":61.87698426448689}}},{"resource":{"category":[{"coding":[{"code":"laboratory","display":"laboratory","system":"http://hl7.org/fhir/observation-category"}]}],"code":{"coding":[{"code":"21000-5","display":"Erythrocyte distribution width [Entitic volume] by Automated count","system":"http://loinc.org"}],"text":"Erythrocyte distribution width [Entitic volume] by Automated count"},"context":{"reference":"Encounter/24e4fa68-6797-44c3-bae1-1342c6ef2e2b"},"effectiveDateTime":"2012-07-04T18:01:57-04:00","id":"1779d43a-77c3-4828-9207-d93cd99a9c0b","issued":"2012-07-04T18:01:57.161-04:00","meta":{"lastUpdated":"2019-04-09T09:53:57.770192+00:00","versionId":"MTU1NDgwMzYzNzc3MDE5MjAwMA"},"resourceType":"Observation","status":"final","subject":{"reference":"Patient/00a9d331-c53d-4152-aa6d-5dbceb2d1418"},"valueQuantity":{"code":"fL","system":"http://unitsofmeasure.org","unit":"fL","value":40.398658307561185}}},{"resource":{"category":[{"coding":[{"code":"vital-signs","display":"vital-signs","system":"http://hl7.org/fhir/observation-category"}]}],"code":{"coding":[{"code":"72514-3","display":"Pain severity - 0-10 verbal numeric rating [Score] - Reported","system":"http://loinc.org"}],"text":"Pain severity - 0-10 verbal numeric rating [Score] - Reported"},"context":{"reference":"Encounter/bae55ac8-f5bf-4f55-9f49-75127c26c2ae"},"effectiveDateTime":"2011-04-20T18:01:57-04:00","id":"17b4a259-4137-4e00-9776-bee87e2274fe","issued":"2011-04-20T18:01:57.161-04:00","meta":{"lastUpdated":"2019-04-09T09:53:58.976381+00:00","versionId":"MTU1NDgwMzYzODk3NjM4MTAwMA"},"resourceType":"Observation","status":"final","subject":{"reference":"Patient/00a9d331-c53d-4152-aa6d-5dbceb2d1418"},"valueQuantity":{"code":"{score}","system":"http://unitsofmeasure.org","unit":"{score}","value":1.8928418607698432}}},{"resource":{"category":[{"coding":[{"code":"vital-signs","display":"vital-signs","system":"http://hl7.org/fhir/observation-category"}]}],"code":{"coding":[{"code":"39156-5","display":"Body Mass Index","system":"http://loinc.org"}],"text":"Body Mass Index"},"context":{"reference":"Encounter/b891b2e8-1816-42c3-bf53-b766bac72a78"},"effectiveDateTime":"2015-03-18T18:01:57-04:00","id":"195bec60-aa83-40c3-85ee-dbfcb12b06da","issued":"2015-03-18T18:01:57.161-04:00","meta":{"lastUpdated":"2019-04-09T09:53:58.698347+00:00","versionId":"MTU1NDgwMzYzODY5ODM0NzAwMA"},"resourceType":"Observation","status":"final","subject":{"reference":"Patient/00a9d331-c53d-4152-aa6d-5dbceb2d1418"},"valueQuantity":{"code":"kg/m2","system":"http://unitsofmeasure.org","unit":"kg/m2","value":36.03923654422512}}},{"resource":{"category":[{"coding":[{"code":"survey","display":"survey","system":"http://hl7.org/fhir/observation-category"}]}],"code":{"coding":[{"code":"72106-8","display":"Total score [MMSE]","system":"http://loinc.org"}],"text":"Total score [MMSE]"},"context":{"reference":"Encounter/4c7ca9fb-74e3-49ed-bdc2-7c33e4eab84c"},"effectiveDateTime":"2013-12-31T17:01:57-05:00","id":"1ea605b2-edc6-4aa8-8b96-ec67dd5857ef","issued":"2013-12-31T17:01:57.161-05:00","meta":{"lastUpdated":"2019-04-09T09:54:01.176427+00:00","versionId":"MTU1NDgwMzY0MTE3NjQyNzAwMA"},"resourceType":"Observation","status":"final","subject":{"reference":"Patient/00a9d331-c53d-4152-aa6d-5dbceb2d1418"},"valueQuantity":{"code":"(score)","system":"http://unitsofmeasure.org","unit":"(score)","value":14.21598876306547}}},{"resource":{"category":[{"coding":[{"code":"survey","display":"survey","system":"http://hl7.org/fhir/observation-category"}]}],"code":{"coding":[{"code":"72166-2","display":"Tobacco smoking status NHIS","system":"http://loinc.org"}],"text":"Tobacco smoking status NHIS"},"context":{"reference":"Encounter/3c075c96-c2a2-4e1d-8cfb-a1dd83c43295"},"effectiveDateTime":"2017-01-04T17:01:57-05:00","id":"2333c720-176a-4ed9-85da-d4b703d05d88","issued":"2017-01-04T17:01:57.161-05:00","meta":{"lastUpdated":"2019-04-09T09:54:01.500183+00:00","versionId":"MTU1NDgwMzY0MTUwMDE4MzAwMA"},"resourceType":"Observation","status":"final","subject":{"reference":"Patient/00a9d331-c53d-4152-aa6d-5dbceb2d1418"},"valueCodeableConcept":{"coding":[{"code":"266919005","display":"Never smoker","system":"http://snomed.info/sct"}],"text":"Never smoker"}}},{"resource":{"category":[{"coding":[{"code":"vital-signs","display":"vital-signs","system":"http://hl7.org/fhir/observation-category"}]}],"code":{"coding":[{"code":"55284-4","display":"Blood Pressure","system":"http://loinc.org"}],"text":"Blood Pressure"},"component":[{"code":{"coding":[{"code":"8462-4","display":"Diastolic Blood Pressure","system":"http://loinc.org"}],"text":"Diastolic Blood Pressure"},"valueQuantity":{"code":"mmHg","system":"http://unitsofmeasure.org","unit":"mmHg","value":76.50825352499868}},{"code":{"coding":[{"code":"8480-6","display":"Systolic Blood Pressure","system":"http://loinc.org"}],"text":"Systolic Blood Pressure"},"valueQuantity":{"code":"mmHg","system":"http://unitsofmeasure.org","unit":"mmHg","value":125.0414113073277}}],"context":{"reference":"Encounter/b891b2e8-1816-42c3-bf53-b766bac72a78"},"effectiveDateTime":"2015-03-18T18:01:57-04:00","id":"272cc18b-0927-4ca5-b2a8-d59f9262384c","issued":"2015-03-18T18:01:57.161-04:00","meta":{"lastUpdated":"2019-04-09T09:54:01.184333+00:00","versionId":"MTU1NDgwMzY0MTE4NDMzMzAwMA"},"resourceType":"Observation","status":"final","subject":{"reference":"Patient/00a9d331-c53d-4152-aa6d-5dbceb2d1418"}}},{"resource":{"category":[{"coding":[{"code":"vital-signs","display":"vital-signs","system":"http://hl7.org/fhir/observation-category"}]}],"code":{"coding":[{"code":"29463-7","display":"Body Weight","system":"http://loinc.org"}],"text":"Body Weight"},"context":{"reference":"Encounter/3c075c96-c2a2-4e1d-8cfb-a1dd83c43295"},"effectiveDateTime":"2017-01-04T17:01:57-05:00","id":"28f81662-b591-4a6e-b1cb-d496ab752145","issued":"2017-01-04T17:01:57.161-05:00","meta":{"lastUpdated":"2019-04-09T09:54:01.513375+00:00","versionId":"MTU1NDgwMzY0MTUxMzM3NTAwMA"},"resourceType":"Observation","status":"final","subject":{"reference":"Patient/00a9d331-c53d-4152-aa6d-5dbceb2d1418"},"valueQuantity":{"code":"kg","system":"http://unitsofmeasure.org","unit":"kg","value":107.00655071541162}}},{"resource":{"category":[{"coding":[{"code":"vital-signs","display":"vital-signs","system":"http://hl7.org/fhir/observation-category"}]}],"code":{"coding":[{"code":"29463-7","display":"Body Weight","system":"http://loinc.org"}],"text":"Body Weight"},"context":{"reference":"Encounter/f7a3bedd-a333-4f01-a6f0-8d7d1376c04b"},"effectiveDateTime":"2013-03-06T17:01:57-05:00","id":"2d52261b-3dcd-45b3-82ff-70d84463455f","issued":"2013-03-06T17:01:57.161-05:00","meta":{"lastUpdated":"2019-04-09T09:53:58.673666+00:00","versionId":"MTU1NDgwMzYzODY3MzY2NjAwMA"},"resourceType":"Observation","status":"final","subject":{"reference":"Patient/00a9d331-c53d-4152-aa6d-5dbceb2d1418"},"valueQuantity":{"code":"kg","system":"http://unitsofmeasure.org","unit":"kg","value":113.6675114404796}}},{"resource":{"category":[{"coding":[{"code":"vital-signs","display":"vital-signs","system":"http://hl7.org/fhir/observation-category"}]}],"code":{"coding":[{"code":"55284-4","display":"Blood Pressure","system":"http://loinc.org"}],"text":"Blood Pressure"},"component":[{"code":{"coding":[{"code":"8462-4","display":"Diastolic Blood Pressure","system":"http://loinc.org"}],"text":"Diastolic Blood Pressure"},"valueQuantity":{"code":"mmHg","system":"http://unitsofmeasure.org","unit":"mmHg","value":87.82468669955057}},{"code":{"coding":[{"code":"8480-6","display":"Systolic Blood Pressure","system":"http://loinc.org"}],"text":"Systolic Blood Pressure"},"valueQuantity":{"code":"mmHg","system":"http://unitsofmeasure.org","unit":"mmHg","value":105.63258435399959}}],"context":{"reference":"Encounter/24e4fa68-6797-44c3-bae1-1342c6ef2e2b"},"effectiveDateTime":"2012-07-04T18:01:57-04:00","id":"2deb7d6b-0425-4de2-a9db-5a498beab90e","issued":"2012-07-04T18:01:57.161-04:00","meta":{"lastUpdated":"2019-04-09T09:53:59.795896+00:00","versionId":"MTU1NDgwMzYzOTc5NTg5NjAwMA"},"resourceType":"Observation","status":"final","subject":{"reference":"Patient/00a9d331-c53d-4152-aa6d-5dbceb2d1418"}}},{"resource":{"category":[{"coding":[{"code":"vital-signs","display":"vital-signs","system":"http://hl7.org/fhir/observation-category"}]}],"code":{"coding":[{"code":"39156-5","display":"Body Mass Index","system":"http://loinc.org"}],"text":"Body Mass Index"},"context":{"reference":"Encounter/bae55ac8-f5bf-4f55-9f49-75127c26c2ae"},"effectiveDateTime":"2011-04-20T18:01:57-04:00","id":"2efba50b-4055-4c47-82bd-f5e4944b1dc1","issued":"2011-04-20T18:01:57.161-04:00","meta":{"lastUpdated":"2019-04-09T09:53:56.588311+00:00","versionId":"MTU1NDgwMzYzNjU4ODMxMTAwMA"},"resourceType":"Observation","status":"final","subject":{"reference":"Patient/00a9d331-c53d-4152-aa6d-5dbceb2d1418"},"valueQuantity":{"code":"kg/m2","system":"http://unitsofmeasure.org","unit":"kg/m2","value":37.837543459086106}}},{"resource":{"category":[{"coding":[{"code":"laboratory","display":"laboratory","system":"http://hl7.org/fhir/observation-category"}]}],"code":{"coding":[{"code":"32207-3","display":"Platelet distribution width [Entitic volume] in Blood by Automated count","system":"http://loinc.org"}],"text":"Platelet distribution width [Entitic volume] in Blood by Automated count"},"context":{"reference":"Encounter/128b3d94-f3ec-4ae1-acf1-eab3a2e62cf5"},"effectiveDateTime":"2018-01-10T17:01:57-05:00","id":"314dde32-b353-4020-8977-0d1df5f104cc","issued":"2018-01-10T17:01:57.161-05:00","meta":{"lastUpdated":"2019-04-09T09:54:01.501360+00:00","versionId":"MTU1NDgwMzY0MTUwMTM2MDAwMA"},"resourceType":"Observation","status":"final","subject":{"reference":"Patient/00a9d331-c53d-4152-aa6d-5dbceb2d1418"},"valueQuantity":{"code":"fL","system":"http://unitsofmeasure.org","unit":"fL","value":414.42228182849044}}},{"resource":{"category":[{"coding":[{"code":"vital-signs","display":"vital-signs","system":"http://hl7.org/fhir/observation-category"}]}],"code":{"coding":[{"code":"8302-2","display":"Body Height","system":"http://loinc.org"}],"text":"Body Height"},"context":{"reference":"Encounter/bae55ac8-f5bf-4f55-9f49-75127c26c2ae"},"effectiveDateTime":"2011-04-20T18:01:57-04:00","id":"386b6c20-9085-47aa-aed7-102645ced6fc","issued":"2011-04-20T18:01:57.161-04:00","meta":{"lastUpdated":"2019-04-09T09:53:56.591420+00:00","versionId":"MTU1NDgwMzYzNjU5MTQyMDAwMA"},"resourceType":"Observation","status":"final","subject":{"reference":"Patient/00a9d331-c53d-4152-aa6d-5dbceb2d1418"},"valueQuantity":{"code":"cm","system":"http://unitsofmeasure.org","unit":"cm","value":175.0573814043579}}},{"resource":{"category":[{"coding":[{"code":"laboratory","display":"laboratory","system":"http://hl7.org/fhir/observation-category"}]}],"code":{"coding":[{"code":"4544-3","display":"Hematocrit [Volume Fraction] of Blood by Automated count","system":"http://loinc.org"}],"text":"Hematocrit [Volume Fraction] of Blood by Automated count"},"context":{"reference":"Encounter/128b3d94-f3ec-4ae1-acf1-eab3a2e62cf5"},"effectiveDateTime":"2018-01-10T17:01:57-05:00","id":"39d1db7e-2025-4877-9c92-0d084afcee7b","issued":"2018-01-10T17:01:57.161-05:00","meta":{"lastUpdated":"2019-04-09T09:54:01.513525+00:00","versionId":"MTU1NDgwMzY0MTUxMzUyNTAwMA"},"resourceType":"Observation","status":"final","subject":{"reference":"Patient/00a9d331-c53d-4152-aa6d-5dbceb2d1418"},"valueQuantity":{"code":"%","system":"http://unitsofmeasure.org","unit":"%","value":38.207730810076974}}},{"resource":{"category":[{"coding":[{"code":"vital-signs","display":"vital-signs","system":"http://hl7.org/fhir/observation-category"}]}],"code":{"coding":[{"code":"29463-7","display":"Body Weight","system":"http://loinc.org"}],"text":"Body Weight"},"context":{"reference":"Encounter/fc839990-8dad-4fff-8381-9c0eec95960f"},"effectiveDateTime":"2015-12-30T17:01:57-05:00","id":"3a6d4155-ce4e-40ce-95eb-28782b8918a6","issued":"2015-12-30T17:01:57.161-05:00","meta":{"lastUpdated":"2019-04-09T09:54:02.801749+00:00","versionId":"MTU1NDgwMzY0MjgwMTc0OTAwMA"},"resourceType":"Observation","status":"final","subject":{"reference":"Patient/00a9d331-c53d-4152-aa6d-5dbceb2d1418"},"valueQuantity":{"code":"kg","system":"http://unitsofmeasure.org","unit":"kg","value":108.97433175406165}}},{"resource":{"category":[{"coding":[{"code":"laboratory","display":"laboratory","system":"http://hl7.org/fhir/observation-category"}]}],"code":{"coding":[{"code":"2571-8","display":"Triglycerides","system":"http://loinc.org"}],"text":"Triglycerides"},"context":{"reference":"Encounter/b891b2e8-1816-42c3-bf53-b766bac72a78"},"effectiveDateTime":"2015-03-18T18:01:57-04:00","id":"3c9d3a5b-8a6a-4f89-8dea-dca545110099","issued":"2015-03-18T18:01:57.161-04:00","meta":{"lastUpdated":"2019-04-09T09:53:58.668066+00:00","versionId":"MTU1NDgwMzYzODY2ODA2NjAwMA"},"resourceType":"Observation","status":"final","subject":{"reference":"Patient/00a9d331-c53d-4152-aa6d-5dbceb2d1418"},"valueQuantity":{"code":"mg/dL","system":"http://unitsofmeasure.org","unit":"mg/dL","value":122.85170375313182}}},{"resource":{"category":[{"coding":[{"code":"vital-signs","display":"vital-signs","system":"http://hl7.org/fhir/observation-category"}]}],"code":{"coding":[{"code":"8302-2","display":"Body Height","system":"http://loinc.org"}],"text":"Body Height"},"context":{"reference":"Encounter/128b3d94-f3ec-4ae1-acf1-eab3a2e62cf5"},"effectiveDateTime":"2018-01-10T17:01:57-05:00","id":"3ebb0e91-cade-4cd4-9d21-635cc9a29eb3","issued":"2018-01-10T17:01:57.161-05:00","meta":{"lastUpdated":"2019-04-09T09:54:01.503328+00:00","versionId":"MTU1NDgwMzY0MTUwMzMyODAwMA"},"resourceType":"Observation","status":"final","subject":{"reference":"Patient/00a9d331-c53d-4152-aa6d-5dbceb2d1418"},"valueQuantity":{"code":"cm","system":"http://unitsofmeasure.org","unit":"cm","value":175.0573814043579}}},{"resource":{"category":[{"coding":[{"code":"vital-signs","display":"vital-signs","system":"http://hl7.org/fhir/observation-category"}]}],"code":{"coding":[{"code":"39156-5","display":"Body Mass Index","system":"http://loinc.org"}],"text":"Body Mass Index"},"context":{"reference":"Encounter/128b3d94-f3ec-4ae1-acf1-eab3a2e62cf5"},"effectiveDateTime":"2018-01-10T17:01:57-05:00","id":"3f498a26-9bb9-4047-aeb2-ae37675cf1d9","issued":"2018-01-10T17:01:57.161-05:00","meta":{"lastUpdated":"2019-04-09T09:54:01.514500+00:00","versionId":"MTU1NDgwMzY0MTUxNDUwMDAwMA"},"resourceType":"Observation","status":"final","subject":{"reference":"Patient/00a9d331-c53d-4152-aa6d-5dbceb2d1418"},"valueQuantity":{"code":"kg/m2","system":"http://unitsofmeasure.org","unit":"kg/m2","value":34.50021896331214}}},{"resource":{"category":[{"coding":[{"code":"laboratory","display":"laboratory","system":"http://hl7.org/fhir/observation-category"}]}],"code":{"coding":[{"code":"786-4","display":"MCHC [Mass/volume] by Automated count","system":"http://loinc.org"}],"text":"MCHC [Mass/volume] by Automated count"},"context":{"reference":"Encounter/24e4fa68-6797-44c3-bae1-1342c6ef2e2b"},"effectiveDateTime":"2012-07-04T18:01:57-04:00","id":"4006acc0-05c4-439e-b070-7ff44863b5a9","issued":"2012-07-04T18:01:57.161-04:00","meta":{"lastUpdated":"2019-04-09T09:53:59.815963+00:00","versionId":"MTU1NDgwMzYzOTgxNTk2MzAwMA"},"resourceType":"Observation","status":"final","subject":{"reference":"Patient/00a9d331-c53d-4152-aa6d-5dbceb2d1418"},"valueQuantity":{"code":"g/dL","system":"http://unitsofmeasure.org","unit":"g/dL","value":35.808396425835}}},{"resource":{"category":[{"coding":[{"code":"vital-signs","display":"vital-signs","system":"http://hl7.org/fhir/observation-category"}]}],"code":{"coding":[{"code":"29463-7","display":"Body Weight","system":"http://loinc.org"}],"text":"Body Weight"},"context":{"reference":"Encounter/606e1a33-b653-4d62-92af-335f10a62170"},"effectiveDateTime":"2009-04-08T18:01:57-04:00","id":"414edb96-c9c2-4397-8c90-04d3c80d5085","issued":"2009-04-08T18:01:57.161-04:00","meta":{"lastUpdated":"2019-04-09T09:53:58.633760+00:00","versionId":"MTU1NDgwMzYzODYzMzc2MDAwMA"},"resourceType":"Observation","status":"final","subject":{"reference":"Patient/00a9d331-c53d-4152-aa6d-5dbceb2d1418"},"valueQuantity":{"code":"kg","system":"http://unitsofmeasure.org","unit":"kg","value":118.05273966923463}}},{"resource":{"category":[{"coding":[{"code":"laboratory","display":"laboratory","system":"http://hl7.org/fhir/observation-category"}]}],"code":{"coding":[{"code":"718-7","display":"Hemoglobin [Mass/volume] in Blood","system":"http://loinc.org"}],"text":"Hemoglobin [Mass/volume] in Blood"},"context":{"reference":"Encounter/24e4fa68-6797-44c3-bae1-1342c6ef2e2b"},"effectiveDateTime":"2012-07-04T18:01:57-04:00","id":"46a87762-6fee-4754-9a74-2f38b4e5babf","issued":"2012-07-04T18:01:57.161-04:00","meta":{"lastUpdated":"2019-04-09T09:53:57.780034+00:00","versionId":"MTU1NDgwMzYzNzc4MDAzNDAwMA"},"resourceType":"Observation","status":"final","subject":{"reference":"Patient/00a9d331-c53d-4152-aa6d-5dbceb2d1418"},"valueQuantity":{"code":"g/dL","system":"http://unitsofmeasure.org","unit":"g/dL","value":15.35400788235528}}},{"resource":{"category":[{"coding":[{"code":"laboratory","display":"laboratory","system":"http://hl7.org/fhir/observation-category"}]}],"code":{"coding":[{"code":"6690-2","display":"Leukocytes [#/volume] in Blood by Automated count","system":"http://loinc.org"}],"text":"Leukocytes [#/volume] in Blood by Automated count"},"context":{"reference":"Encounter/24e4fa68-6797-44c3-bae1-1342c6ef2e2b"},"effectiveDateTime":"2012-07-04T18:01:57-04:00","id":"48c2ade4-0dc0-46f7-b091-c96c4fae6014","issued":"2012-07-04T18:01:57.161-04:00","meta":{"lastUpdated":"2019-04-09T09:53:59.316541+00:00","versionId":"MTU1NDgwMzYzOTMxNjU0MTAwMA"},"resourceType":"Observation","status":"final","subject":{"reference":"Patient/00a9d331-c53d-4152-aa6d-5dbceb2d1418"},"valueQuantity":{"code":"10*3/uL","system":"http://unitsofmeasure.org","unit":"10*3/uL","value":10.104584353322148}}},{"resource":{"category":[{"coding":[{"code":"vital-signs","display":"vital-signs","system":"http://hl7.org/fhir/observation-category"}]}],"code":{"coding":[{"code":"39156-5","display":"Body Mass Index","system":"http://loinc.org"}],"text":"Body Mass Index"},"context":{"reference":"Encounter/3c075c96-c2a2-4e1d-8cfb-a1dd83c43295"},"effectiveDateTime":"2017-01-04T17:01:57-05:00","id":"516a3798-5743-497e-b1e5-44a8333b5fcf","issued":"2017-01-04T17:01:57.161-05:00","meta":{"lastUpdated":"2019-04-09T09:54:01.514603+00:00","versionId":"MTU1NDgwMzY0MTUxNDYwMzAwMA"},"resourceType":"Observation","status":"final","subject":{"reference":"Patient/00a9d331-c53d-4152-aa6d-5dbceb2d1418"},"valueQuantity":{"code":"kg/m2","system":"http://unitsofmeasure.org","unit":"kg/m2","value":34.91801197011254}}},{"resource":{"category":[{"coding":[{"code":"vital-signs","display":"vital-signs","system":"http://hl7.org/fhir/observation-category"}]}],"code":{"coding":[{"code":"8331-1","display":"Oral temperature","system":"http://loinc.org"}],"text":"Oral temperature"},"context":{"reference":"Encounter/28912428-3285-49b5-b776-3f2c809d994f"},"effectiveDateTime":"2013-02-18T17:01:57-05:00","id":"54d5892a-6172-464f-af75-e10db45a4979","issued":"2013-02-18T17:01:57.161-05:00","meta":{"lastUpdated":"2019-04-09T09:53:59.854294+00:00","versionId":"MTU1NDgwMzYzOTg1NDI5NDAwMA"},"resourceType":"Observation","status":"final","subject":{"reference":"Patient/00a9d331-c53d-4152-aa6d-5dbceb2d1418"},"valueQuantity":{"code":"Cel","system":"http://unitsofmeasure.org","unit":"Cel","value":37.81025205713661}}},{"resource":{"category":[{"coding":[{"code":"vital-signs","display":"vital-signs","system":"http://hl7.org/fhir/observation-category"}]}],"code":{"coding":[{"code":"72514-3","display":"Pain severity - 0-10 verbal numeric rating [Score] - Reported","system":"http://loinc.org"}],"text":"Pain severity - 0-10 verbal numeric rating [Score] - Reported"},"context":{"reference":"Encounter/3c075c96-c2a2-4e1d-8cfb-a1dd83c43295"},"effectiveDateTime":"2017-01-04T17:01:57-05:00","id":"55b97250-6dd7-4298-8ca8-f07ff594a3b8","issued":"2017-01-04T17:01:57.161-05:00","meta":{"lastUpdated":"2019-04-09T09:53:59.679631+00:00","versionId":"MTU1NDgwMzYzOTY3OTYzMTAwMA"},"resourceType":"Observation","status":"final","subject":{"reference":"Patient/00a9d331-c53d-4152-aa6d-5dbceb2d1418"},"valueQuantity":{"code":"{score}","system":"http://unitsofmeasure.org","unit":"{score}","value":3.0898904719982325}}},{"resource":{"category":[{"coding":[{"code":"vital-signs","display":"vital-signs","system":"http://hl7.org/fhir/observation-category"}]}],"code":{"coding":[{"code":"55284-4","display":"Blood Pressure","system":"http://loinc.org"}],"text":"Blood Pressure"},"component":[{"code":{"coding":[{"code":"8462-4","display":"Diastolic Blood Pressure","system":"http://loinc.org"}],"text":"Diastolic Blood Pressure"},"valueQuantity":{"code":"mmHg","system":"http://unitsofmeasure.org","unit":"mmHg","value":78.2917295392598}},{"code":{"coding":[{"code":"8480-6","display":"Systolic Blood Pressure","system":"http://loinc.org"}],"text":"Systolic Blood Pressure"},"valueQuantity":{"code":"mmHg","system":"http://unitsofmeasure.org","unit":"mmHg","value":114.04478386269537}}],"context":{"reference":"Encounter/baffc4df-6ddb-4c7a-95d6-8317d095bce4"},"effectiveDateTime":"2014-03-12T18:01:57-04:00","id":"58165759-76d9-471a-b41e-851b716baf72","issued":"2014-03-12T18:01:57.161-04:00","meta":{"lastUpdated":"2019-04-09T09:53:58.654299+00:00","versionId":"MTU1NDgwMzYzODY1NDI5OTAwMA"},"resourceType":"Observation","status":"final","subject":{"reference":"Patient/00a9d331-c53d-4152-aa6d-5dbceb2d1418"}}},{"resource":{"category":[{"coding":[{"code":"vital-signs","display":"vital-signs","system":"http://hl7.org/fhir/observation-category"}]}],"code":{"coding":[{"code":"8302-2","display":"Body Height","system":"http://loinc.org"}],"text":"Body Height"},"context":{"reference":"Encounter/baffc4df-6ddb-4c7a-95d6-8317d095bce4"},"effectiveDateTime":"2014-03-12T18:01:57-04:00","id":"5913b6f2-5fb4-4549-84a9-502972367d90","issued":"2014-03-12T18:01:57.161-04:00","meta":{"lastUpdated":"2019-04-09T09:53:58.671617+00:00","versionId":"MTU1NDgwMzYzODY3MTYxNzAwMA"},"resourceType":"Observation","status":"final","subject":{"reference":"Patient/00a9d331-c53d-4152-aa6d-5dbceb2d1418"},"valueQuantity":{"code":"cm","system":"http://unitsofmeasure.org","unit":"cm","value":175.0573814043579}}},{"resource":{"category":[{"coding":[{"code":"laboratory","display":"laboratory","system":"http://hl7.org/fhir/observation-category"}]}],"code":{"coding":[{"code":"787-2","display":"MCV [Entitic volume] by Automated count","system":"http://loinc.org"}],"text":"MCV [Entitic volume] by Automated count"},"context":{"reference":"Encounter/24e4fa68-6797-44c3-bae1-1342c6ef2e2b"},"effectiveDateTime":"2012-07-04T18:01:57-04:00","id":"598c61c6-a134-4d8f-ba9c-3192fb3203ed","issued":"2012-07-04T18:01:57.161-04:00","meta":{"lastUpdated":"2019-04-09T09:53:57.767059+00:00","versionId":"MTU1NDgwMzYzNzc2NzA1OTAwMA"},"resourceType":"Observation","status":"final","subject":{"reference":"Patient/00a9d331-c53d-4152-aa6d-5dbceb2d1418"},"valueQuantity":{"code":"fL","system":"http://unitsofmeasure.org","unit":"fL","value":84.60863677430565}}},{"resource":{"category":[{"coding":[{"code":"vital-signs","display":"vital-signs","system":"http://hl7.org/fhir/observation-category"}]}],"code":{"coding":[{"code":"8302-2","display":"Body Height","system":"http://loinc.org"}],"text":"Body Height"},"context":{"reference":"Encounter/f7a3bedd-a333-4f01-a6f0-8d7d1376c04b"},"effectiveDateTime":"2013-03-06T17:01:57-05:00","id":"5a63f264-3053-4670-9834-d8ce25a7e0aa","issued":"2013-03-06T17:01:57.161-05:00","meta":{"lastUpdated":"2019-04-09T09:53:58.673669+00:00","versionId":"MTU1NDgwMzYzODY3MzY2OTAwMA"},"resourceType":"Observation","status":"final","subject":{"reference":"Patient/00a9d331-c53d-4152-aa6d-5dbceb2d1418"},"valueQuantity":{"code":"cm","system":"http://unitsofmeasure.org","unit":"cm","value":175.0573814043579}}},{"resource":{"category":[{"coding":[{"code":"laboratory","display":"laboratory","system":"http://hl7.org/fhir/observation-category"}]}],"code":{"coding":[{"code":"718-7","display":"Hemoglobin [Mass/volume] in Blood","system":"http://loinc.org"}],"text":"Hemoglobin [Mass/volume] in Blood"},"context":{"reference":"Encounter/128b3d94-f3ec-4ae1-acf1-eab3a2e62cf5"},"effectiveDateTime":"2018-01-10T17:01:57-05:00","id":"5a647695-0f25-411b-b2f2-342c61bc947e","issued":"2018-01-10T17:01:57.161-05:00","meta":{"lastUpdated":"2019-04-09T09:54:01.503329+00:00","versionId":"MTU1NDgwMzY0MTUwMzMyOTAwMA"},"resourceType":"Observation","status":"final","subject":{"reference":"Patient/00a9d331-c53d-4152-aa6d-5dbceb2d1418"},"valueQuantity":{"code":"g/dL","system":"http://unitsofmeasure.org","unit":"g/dL","value":15.39805053206611}}},{"resource":{"category":[{"coding":[{"code":"vital-signs","display":"vital-signs","system":"http://hl7.org/fhir/observation-category"}]}],"code":{"coding":[{"code":"55284-4","display":"Blood Pressure","system":"http://loinc.org"}],"text":"Blood Pressure"},"component":[{"code":{"coding":[{"code":"8462-4","display":"Diastolic Blood Pressure","system":"http://loinc.org"}],"text":"Diastolic Blood Pressure"},"valueQuantity":{"code":"mmHg","system":"http://unitsofmeasure.org","unit":"mmHg","value":88.84381772997051}},{"code":{"coding":[{"code":"8480-6","display":"Systolic Blood Pressure","system":"http://loinc.org"}],"text":"Systolic Blood Pressure"},"valueQuantity":{"code":"mmHg","system":"http://unitsofmeasure.org","unit":"mmHg","value":108.9283231418603}}],"context":{"reference":"Encounter/3c075c96-c2a2-4e1d-8cfb-a1dd83c43295"},"effectiveDateTime":"2017-01-04T17:01:57-05:00","id":"5a7b763e-a428-4495-adf0-2e5037aa338b","issued":"2017-01-04T17:01:57.161-05:00","meta":{"lastUpdated":"2019-04-09T09:54:01.523267+00:00","versionId":"MTU1NDgwMzY0MTUyMzI2NzAwMA"},"resourceType":"Observation","status":"final","subject":{"reference":"Patient/00a9d331-c53d-4152-aa6d-5dbceb2d1418"}}},{"resource":{"category":[{"coding":[{"code":"vital-signs","display":"vital-signs","system":"http://hl7.org/fhir/observation-category"}]}],"code":{"coding":[{"code":"72514-3","display":"Pain severity - 0-10 verbal numeric rating [Score] - Reported","system":"http://loinc.org"}],"text":"Pain severity - 0-10 verbal numeric rating [Score] - Reported"},"context":{"reference":"Encounter/b891b2e8-1816-42c3-bf53-b766bac72a78"},"effectiveDateTime":"2015-03-18T18:01:57-04:00","id":"5bc7086b-a07e-4f79-a35d-9f7fe7774e43","issued":"2015-03-18T18:01:57.161-04:00","meta":{"lastUpdated":"2019-04-09T09:54:01.185437+00:00","versionId":"MTU1NDgwMzY0MTE4NTQzNzAwMA"},"resourceType":"Observation","status":"final","subject":{"reference":"Patient/00a9d331-c53d-4152-aa6d-5dbceb2d1418"},"valueQuantity":{"code":"{score}","system":"http://unitsofmeasure.org","unit":"{score}","value":3.647468476424196}}},{"resource":{"category":[{"coding":[{"code":"vital-signs","display":"vital-signs","system":"http://hl7.org/fhir/observation-category"}]}],"code":{"coding":[{"code":"39156-5","display":"Body Mass Index","system":"http://loinc.org"}],"text":"Body Mass Index"},"context":{"reference":"Encounter/f7a3bedd-a333-4f01-a6f0-8d7d1376c04b"},"effectiveDateTime":"2013-03-06T17:01:57-05:00","id":"5d1cfe53-35a0-44bb-8419-be4b3de49163","issued":"2013-03-06T17:01:57.161-05:00","meta":{"lastUpdated":"2019-04-09T09:53:58.666636+00:00","versionId":"MTU1NDgwMzYzODY2NjYzNjAwMA"},"resourceType":"Observation","status":"final","subject":{"reference":"Patient/00a9d331-c53d-4152-aa6d-5dbceb2d1418"},"valueQuantity":{"code":"kg/m2","system":"http://unitsofmeasure.org","unit":"kg/m2","value":37.09159391229615}}},{"resource":{"category":[{"coding":[{"code":"vital-signs","display":"vital-signs","system":"http://hl7.org/fhir/observation-category"}]}],"code":{"coding":[{"code":"55284-4","display":"Blood Pressure","system":"http://loinc.org"}],"text":"Blood Pressure"},"component":[{"code":{"coding":[{"code":"8462-4","display":"Diastolic Blood Pressure","system":"http://loinc.org"}],"text":"Diastolic Blood Pressure"},"valueQuantity":{"code":"mmHg","system":"http://unitsofmeasure.org","unit":"mmHg","value":79.23982459938838}},{"code":{"coding":[{"code":"8480-6","display":"Systolic Blood Pressure","system":"http://loinc.org"}],"text":"Systolic Blood Pressure"},"valueQuantity":{"code":"mmHg","system":"http://unitsofmeasure.org","unit":"mmHg","value":121.61227895210544}}],"context":{"reference":"Encounter/e1e8280b-60fe-4970-9a3c-c484e64a047d"},"effectiveDateTime":"2011-06-29T18:01:57-04:00","id":"5f56c97f-c8a6-49a7-9704-16558c4dad42","issued":"2011-06-29T18:01:57.161-04:00","meta":{"lastUpdated":"2019-04-09T09:53:59.757602+00:00","versionId":"MTU1NDgwMzYzOTc1NzYwMjAwMA"},"resourceType":"Observation","status":"final","subject":{"reference":"Patient/00a9d331-c53d-4152-aa6d-5dbceb2d1418"}}},{"resource":{"category":[{"coding":[{"code":"vital-signs","display":"vital-signs","system":"http://hl7.org/fhir/observation-category"}]}],"code":{"coding":[{"code":"29463-7","display":"Body Weight","system":"http://loinc.org"}],"text":"Body Weight"},"context":{"reference":"Encounter/baffc4df-6ddb-4c7a-95d6-8317d095bce4"},"effectiveDateTime":"2014-03-12T18:01:57-04:00","id":"61a1c2a0-1b34-4836-ae9b-54ff8f2446f4","issued":"2014-03-12T18:01:57.161-04:00","meta":{"lastUpdated":"2019-04-09T09:53:58.649148+00:00","versionId":"MTU1NDgwMzYzODY0OTE0ODAwMA"},"resourceType":"Observation","status":"final","subject":{"reference":"Patient/00a9d331-c53d-4152-aa6d-5dbceb2d1418"},"valueQuantity":{"code":"kg","system":"http://unitsofmeasure.org","unit":"kg","value":112.35595358918859}}},{"resource":{"category":[{"coding":[{"code":"vital-signs","display":"vital-signs","system":"http://hl7.org/fhir/observation-category"}]}],"code":{"coding":[{"code":"55284-4","display":"Blood Pressure","system":"http://loinc.org"}],"text":"Blood Pressure"},"component":[{"code":{"coding":[{"code":"8462-4","display":"Diastolic Blood Pressure","system":"http://loinc.org"}],"text":"Diastolic Blood Pressure"},"valueQuantity":{"code":"mmHg","system":"http://unitsofmeasure.org","unit":"mmHg","value":84.81211928993856}},{"code":{"coding":[{"code":"8480-6","display":"Systolic Blood Pressure","system":"http://loinc.org"}],"text":"Systolic Blood Pressure"},"valueQuantity":{"code":"mmHg","system":"http://unitsofmeasure.org","unit":"mmHg","value":106.25357398602665}}],"context":{"reference":"Encounter/f7a3bedd-a333-4f01-a6f0-8d7d1376c04b"},"effectiveDateTime":"2013-03-06T17:01:57-05:00","id":"61e7e7fd-cd26-4513-9d4f-487adcb4ba26","issued":"2013-03-06T17:01:57.161-05:00","meta":{"lastUpdated":"2019-04-09T09:53:58.666634+00:00","versionId":"MTU1NDgwMzYzODY2NjYzNDAwMA"},"resourceType":"Observation","status":"final","subject":{"reference":"Patient/00a9d331-c53d-4152-aa6d-5dbceb2d1418"}}},{"resource":{"category":[{"coding":[{"code":"vital-signs","display":"vital-signs","system":"http://hl7.org/fhir/observation-category"}]}],"code":{"coding":[{"code":"55284-4","display":"Blood Pressure","system":"http://loinc.org"}],"text":"Blood Pressure"},"component":[{"code":{"coding":[{"code":"8462-4","display":"Diastolic Blood Pressure","system":"http://loinc.org"}],"text":"Diastolic Blood Pressure"},"valueQuantity":{"code":"mmHg","system":"http://unitsofmeasure.org","unit":"mmHg","value":81.52238189828881}},{"code":{"coding":[{"code":"8480-6","display":"Systolic Blood Pressure","system":"http://loinc.org"}],"text":"Systolic Blood Pressure"},"valueQuantity":{"code":"mmHg","system":"http://unitsofmeasure.org","unit":"mmHg","value":103.83119362251044}}],"context":{"reference":"Encounter/fc839990-8dad-4fff-8381-9c0eec95960f"},"effectiveDateTime":"2015-12-30T17:01:57-05:00","id":"65418146-6c21-42d3-a3bd-615c62a190c8","issued":"2015-12-30T17:01:57.161-05:00","meta":{"lastUpdated":"2019-04-09T09:54:01.501813+00:00","versionId":"MTU1NDgwMzY0MTUwMTgxMzAwMA"},"resourceType":"Observation","status":"final","subject":{"reference":"Patient/00a9d331-c53d-4152-aa6d-5dbceb2d1418"}}},{"resource":{"category":[{"coding":[{"code":"vital-signs","display":"vital-signs","system":"http://hl7.org/fhir/observation-category"}]}],"code":{"coding":[{"code":"55284-4","display":"Blood Pressure","system":"http://loinc.org"}],"text":"Blood Pressure"},"component":[{"code":{"coding":[{"code":"8462-4","display":"Diastolic Blood Pressure","system":"http://loinc.org"}],"text":"Diastolic Blood Pressure"},"valueQuantity":{"code":"mmHg","system":"http://unitsofmeasure.org","unit":"mmHg","value":75.19960412403348}},{"code":{"coding":[{"code":"8480-6","display":"Systolic Blood Pressure","system":"http://loinc.org"}],"text":"Systolic Blood Pressure"},"valueQuantity":{"code":"mmHg","system":"http://unitsofmeasure.org","unit":"mmHg","value":107.06289535907386}}],"context":{"reference":"Encounter/128b3d94-f3ec-4ae1-acf1-eab3a2e62cf5"},"effectiveDateTime":"2018-01-10T17:01:57-05:00","id":"6801144e-0f21-4986-a8af-3317a2ee0900","issued":"2018-01-10T17:01:57.161-05:00","meta":{"lastUpdated":"2019-04-09T09:54:01.503332+00:00","versionId":"MTU1NDgwMzY0MTUwMzMzMjAwMA"},"resourceType":"Observation","status":"final","subject":{"reference":"Patient/00a9d331-c53d-4152-aa6d-5dbceb2d1418"}}},{"resource":{"category":[{"coding":[{"code":"laboratory","display":"laboratory","system":"http://hl7.org/fhir/observation-category"}]}],"code":{"coding":[{"code":"785-6","display":"MCH [Entitic mass] by Automated count","system":"http://loinc.org"}],"text":"MCH [Entitic mass] by Automated count"},"context":{"reference":"Encounter/24e4fa68-6797-44c3-bae1-1342c6ef2e2b"},"effectiveDateTime":"2012-07-04T18:01:57-04:00","id":"6d7b57e0-15bf-441e-90e6-fc0afc875026","issued":"2012-07-04T18:01:57.161-04:00","meta":{"lastUpdated":"2019-04-09T09:53:59.815964+00:00","versionId":"MTU1NDgwMzYzOTgxNTk2NDAwMA"},"resourceType":"Observation","status":"final","subject":{"reference":"Patient/00a9d331-c53d-4152-aa6d-5dbceb2d1418"},"valueQuantity":{"code":"pg","system":"http://unitsofmeasure.org","unit":"pg","value":32.96155676966369}}},{"resource":{"category":[{"coding":[{"code":"vital-signs","display":"vital-signs","system":"http://hl7.org/fhir/observation-category"}]}],"code":{"coding":[{"code":"72514-3","display":"Pain severity - 0-10 verbal numeric rating [Score] - Reported","system":"http://loinc.org"}],"text":"Pain severity - 0-10 verbal numeric rating [Score] - Reported"},"context":{"reference":"Encounter/606e1a33-b653-4d62-92af-335f10a62170"},"effectiveDateTime":"2009-04-08T18:01:57-04:00","id":"70924a1b-7f26-4f9a-86b7-56a0c58dbd89","issued":"2009-04-08T18:01:57.161-04:00","meta":{"lastUpdated":"2019-04-09T09:53:58.628602+00:00","versionId":"MTU1NDgwMzYzODYyODYwMjAwMA"},"resourceType":"Observation","status":"final","subject":{"reference":"Patient/00a9d331-c53d-4152-aa6d-5dbceb2d1418"},"valueQuantity":{"code":"{score}","system":"http://unitsofmeasure.org","unit":"{score}","value":2.74497712425052}}},{"resource":{"category":[{"coding":[{"code":"laboratory","display":"laboratory","system":"http://hl7.org/fhir/observation-category"}]}],"code":{"coding":[{"code":"32623-1","display":"Platelet mean volume [Entitic volume] in Blood by Automated count","system":"http://loinc.org"}],"text":"Platelet mean volume [Entitic volume] in Blood by Automated count"},"context":{"reference":"Encounter/24e4fa68-6797-44c3-bae1-1342c6ef2e2b"},"effectiveDateTime":"2012-07-04T18:01:57-04:00","id":"71eaed76-bc5f-44a1-b600-be9663fe149f","issued":"2012-07-04T18:01:57.161-04:00","meta":{"lastUpdated":"2019-04-09T09:53:59.814916+00:00","versionId":"MTU1NDgwMzYzOTgxNDkxNjAwMA"},"resourceType":"Observation","status":"final","subject":{"reference":"Patient/00a9d331-c53d-4152-aa6d-5dbceb2d1418"},"valueQuantity":{"code":"fL","system":"http://unitsofmeasure.org","unit":"fL","value":10.369370978312736}}},{"resource":{"category":[{"coding":[{"code":"survey","display":"survey","system":"http://hl7.org/fhir/observation-category"}]}],"code":{"coding":[{"code":"72166-2","display":"Tobacco smoking status NHIS","system":"http://loinc.org"}],"text":"Tobacco smoking status NHIS"},"context":{"reference":"Encounter/baffc4df-6ddb-4c7a-95d6-8317d095bce4"},"effectiveDateTime":"2014-03-12T18:01:57-04:00","id":"73eff37d-ff7d-4d3a-8e16-627a295b3415","issued":"2014-03-12T18:01:57.161-04:00","meta":{"lastUpdated":"2019-04-09T09:53:58.666335+00:00","versionId":"MTU1NDgwMzYzODY2NjMzNTAwMA"},"resourceType":"Observation","status":"final","subject":{"reference":"Patient/00a9d331-c53d-4152-aa6d-5dbceb2d1418"},"valueCodeableConcept":{"coding":[{"code":"266919005","display":"Never smoker","system":"http://snomed.info/sct"}],"text":"Never smoker"}}},{"resource":{"category":[{"coding":[{"code":"vital-signs","display":"vital-signs","system":"http://hl7.org/fhir/observation-category"}]}],"code":{"coding":[{"code":"29463-7","display":"Body Weight","system":"http://loinc.org"}],"text":"Body Weight"},"context":{"reference":"Encounter/128b3d94-f3ec-4ae1-acf1-eab3a2e62cf5"},"effectiveDateTime":"2018-01-10T17:01:57-05:00","id":"7412015f-65bd-494b-b048-5cf45ffc75b4","issued":"2018-01-10T17:01:57.161-05:00","meta":{"lastUpdated":"2019-04-09T09:54:01.503330+00:00","versionId":"MTU1NDgwMzY0MTUwMzMzMDAwMA"},"resourceType":"Observation","status":"final","subject":{"reference":"Patient/00a9d331-c53d-4152-aa6d-5dbceb2d1418"},"valueQuantity":{"code":"kg","system":"http://unitsofmeasure.org","unit":"kg","value":105.72622042029067}}},{"resource":{"category":[{"coding":[{"code":"laboratory","display":"laboratory","system":"http://hl7.org/fhir/observation-category"}]}],"code":{"coding":[{"code":"2571-8","display":"Triglycerides","system":"http://loinc.org"}],"text":"Triglycerides"},"context":{"reference":"Encounter/bae55ac8-f5bf-4f55-9f49-75127c26c2ae"},"effectiveDateTime":"2011-04-20T18:01:57-04:00","id":"743ef334-96e9-4a41-8b48-49eac98470c7","issued":"2011-04-20T18:01:57.161-04:00","meta":{"lastUpdated":"2019-04-09T09:53:58.971448+00:00","versionId":"MTU1NDgwMzYzODk3MTQ0ODAwMA"},"resourceType":"Observation","status":"final","subject":{"reference":"Patient/00a9d331-c53d-4152-aa6d-5dbceb2d1418"},"valueQuantity":{"code":"mg/dL","system":"http://unitsofmeasure.org","unit":"mg/dL","value":141.51072839883653}}},{"resource":{"category":[{"coding":[{"code":"laboratory","display":"laboratory","system":"http://hl7.org/fhir/observation-category"}]}],"code":{"coding":[{"code":"787-2","display":"MCV [Entitic volume] by Automated count","system":"http://loinc.org"}],"text":"MCV [Entitic volume] by Automated count"},"context":{"reference":"Encounter/128b3d94-f3ec-4ae1-acf1-eab3a2e62cf5"},"effectiveDateTime":"2018-01-10T17:01:57-05:00","id":"802e0dd2-43f8-432d-ac28-fe05d98c38ee","issued":"2018-01-10T17:01:57.161-05:00","meta":{"lastUpdated":"2019-04-09T09:54:01.504162+00:00","versionId":"MTU1NDgwMzY0MTUwNDE2MjAwMA"},"resourceType":"Observation","status":"final","subject":{"reference":"Patient/00a9d331-c53d-4152-aa6d-5dbceb2d1418"},"valueQuantity":{"code":"fL","system":"http://unitsofmeasure.org","unit":"fL","value":88.98912863789428}}},{"resource":{"category":[{"coding":[{"code":"laboratory","display":"laboratory","system":"http://hl7.org/fhir/observation-category"}]}],"code":{"coding":[{"code":"6690-2","display":"Leukocytes [#/volume] in Blood by Automated count","system":"http://loinc.org"}],"text":"Leukocytes [#/volume] in Blood by Automated count"},"context":{"reference":"Encounter/128b3d94-f3ec-4ae1-acf1-eab3a2e62cf5"},"effectiveDateTime":"2018-01-10T17:01:57-05:00","id":"81bb0315-be19-4628-ae56-53f601f652fa","issued":"2018-01-10T17:01:57.161-05:00","meta":{"lastUpdated":"2019-04-09T09:53:59.677054+00:00","versionId":"MTU1NDgwMzYzOTY3NzA1NDAwMA"},"resourceType":"Observation","status":"final","subject":{"reference":"Patient/00a9d331-c53d-4152-aa6d-5dbceb2d1418"},"valueQuantity":{"code":"10*3/uL","system":"http://unitsofmeasure.org","unit":"10*3/uL","value":8.240554085720943}}},{"resource":{"category":[{"coding":[{"code":"vital-signs","display":"vital-signs","system":"http://hl7.org/fhir/observation-category"}]}],"code":{"coding":[{"code":"8302-2","display":"Body Height","system":"http://loinc.org"}],"text":"Body Height"},"context":{"reference":"Encounter/b891b2e8-1816-42c3-bf53-b766bac72a78"},"effectiveDateTime":"2015-03-18T18:01:57-04:00","id":"8ef5a7d0-32fe-4761-8229-b80037f4ef2b","issued":"2015-03-18T18:01:57.161-04:00","meta":{"lastUpdated":"2019-04-09T09:54:01.174398+00:00","versionId":"MTU1NDgwMzY0MTE3NDM5ODAwMA"},"resourceType":"Observation","status":"final","subject":{"reference":"Patient/00a9d331-c53d-4152-aa6d-5dbceb2d1418"},"valueQuantity":{"code":"cm","system":"http://unitsofmeasure.org","unit":"cm","value":175.0573814043579}}},{"resource":{"category":[{"coding":[{"code":"laboratory","display":"laboratory","system":"http://hl7.org/fhir/observation-category"}]}],"code":{"coding":[{"code":"786-4","display":"MCHC [Mass/volume] by Automated count","system":"http://loinc.org"}],"text":"MCHC [Mass/volume] by Automated count"},"context":{"reference":"Encounter/128b3d94-f3ec-4ae1-acf1-eab3a2e62cf5"},"effectiveDateTime":"2018-01-10T17:01:57-05:00","id":"9122869d-bb8d-433d-bfe5-36dd1b07673b","issued":"2018-01-10T17:01:57.161-05:00","meta":{"lastUpdated":"2019-04-09T09:54:01.501289+00:00","versionId":"MTU1NDgwMzY0MTUwMTI4OTAwMA"},"resourceType":"Observation","status":"final","subject":{"reference":"Patient/00a9d331-c53d-4152-aa6d-5dbceb2d1418"},"valueQuantity":{"code":"g/dL","system":"http://unitsofmeasure.org","unit":"g/dL","value":35.26196238177893}}},{"resource":{"category":[{"coding":[{"code":"vital-signs","display":"vital-signs","system":"http://hl7.org/fhir/observation-category"}]}],"code":{"coding":[{"code":"8302-2","display":"Body Height","system":"http://loinc.org"}],"text":"Body Height"},"context":{"reference":"Encounter/3c075c96-c2a2-4e1d-8cfb-a1dd83c43295"},"effectiveDateTime":"2017-01-04T17:01:57-05:00","id":"9195a47a-e457-4bdc-b664-00903264d103","issued":"2017-01-04T17:01:57.161-05:00","meta":{"lastUpdated":"2019-04-09T09:54:01.500182+00:00","versionId":"MTU1NDgwMzY0MTUwMDE4MjAwMA"},"resourceType":"Observation","status":"final","subject":{"reference":"Patient/00a9d331-c53d-4152-aa6d-5dbceb2d1418"},"valueQuantity":{"code":"cm","system":"http://unitsofmeasure.org","unit":"cm","value":175.0573814043579}}},{"resource":{"category":[{"coding":[{"code":"vital-signs","display":"vital-signs","system":"http://hl7.org/fhir/observation-category"}]}],"code":{"coding":[{"code":"29463-7","display":"Body Weight","system":"http://loinc.org"}],"text":"Body Weight"},"context":{"reference":"Encounter/24e4fa68-6797-44c3-bae1-1342c6ef2e2b"},"effectiveDateTime":"2012-07-04T18:01:57-04:00","id":"93882b7e-730a-4e34-b0b5-13872297dd4b","issued":"2012-07-04T18:01:57.161-04:00","meta":{"lastUpdated":"2019-04-09T09:53:59.749391+00:00","versionId":"MTU1NDgwMzYzOTc0OTM5MTAwMA"},"resourceType":"Observation","status":"final","subject":{"reference":"Patient/00a9d331-c53d-4152-aa6d-5dbceb2d1418"},"valueQuantity":{"code":"kg","system":"http://unitsofmeasure.org","unit":"kg","value":113.6675114404796}}},{"resource":{"category":[{"coding":[{"code":"exam","display":"exam","system":"http://hl7.org/fhir/observation-category"}]}],"code":{"coding":[{"code":"69453-9","display":"Cause of Death [US Standard Certificate of Death]","system":"http://loinc.org"}],"text":"Cause of Death [US Standard Certificate of Death]"},"context":{"reference":"Encounter/2382a121-baee-427d-a23a-4978dd8966d0"},"effectiveDateTime":"2018-06-20T18:01:57-04:00","id":"94f3331c-941a-4398-9214-a25457bb7b80","issued":"2018-06-20T18:01:57.161-04:00","meta":{"lastUpdated":"2019-04-09T09:54:02.923254+00:00","versionId":"MTU1NDgwMzY0MjkyMzI1NDAwMA"},"resourceType":"Observation","status":"final","subject":{"reference":"Patient/00a9d331-c53d-4152-aa6d-5dbceb2d1418"},"valueCodeableConcept":{"coding":[{"code":"26929004","display":"Alzheimer's disease (disorder)","system":"http://snomed.info/sct"}],"text":"Alzheimer's disease (disorder)"}}},{"resource":{"category":[{"coding":[{"code":"vital-signs","display":"vital-signs","system":"http://hl7.org/fhir/observation-category"}]}],"code":{"coding":[{"code":"55284-4","display":"Blood Pressure","system":"http://loinc.org"}],"text":"Blood Pressure"},"component":[{"code":{"coding":[{"code":"8462-4","display":"Diastolic Blood Pressure","system":"http://loinc.org"}],"text":"Diastolic Blood Pressure"},"valueQuantity":{"code":"mmHg","system":"http://unitsofmeasure.org","unit":"mmHg","value":75.48054911557135}},{"code":{"coding":[{"code":"8480-6","display":"Systolic Blood Pressure","system":"http://loinc.org"}],"text":"Systolic Blood Pressure"},"valueQuantity":{"code":"mmHg","system":"http://unitsofmeasure.org","unit":"mmHg","value":107.8676070819352}}],"context":{"reference":"Encounter/bae55ac8-f5bf-4f55-9f49-75127c26c2ae"},"effectiveDateTime":"2011-04-20T18:01:57-04:00","id":"9c7342e0-3178-4247-95d8-dcde9776c7de","issued":"2011-04-20T18:01:57.161-04:00","meta":{"lastUpdated":"2019-04-09T09:53:58.973595+00:00","versionId":"MTU1NDgwMzYzODk3MzU5NTAwMA"},"resourceType":"Observation","status":"final","subject":{"reference":"Patient/00a9d331-c53d-4152-aa6d-5dbceb2d1418"}}},{"resource":{"category":[{"coding":[{"code":"survey","display":"survey","system":"http://hl7.org/fhir/observation-category"}]}],"code":{"coding":[{"code":"72166-2","display":"Tobacco smoking status NHIS","system":"http://loinc.org"}],"text":"Tobacco smoking status NHIS"},"context":{"reference":"Encounter/24e4fa68-6797-44c3-bae1-1342c6ef2e2b"},"effectiveDateTime":"2012-07-04T18:01:57-04:00","id":"a17c2e1a-1862-4b32-8dae-e5627c6f0d4c","issued":"2012-07-04T18:01:57.161-04:00","meta":{"lastUpdated":"2019-04-09T09:53:59.815297+00:00","versionId":"MTU1NDgwMzYzOTgxNTI5NzAwMA"},"resourceType":"Observation","status":"final","subject":{"reference":"Patient/00a9d331-c53d-4152-aa6d-5dbceb2d1418"},"valueCodeableConcept":{"coding":[{"code":"266919005","display":"Never smoker","system":"http://snomed.info/sct"}],"text":"Never smoker"}}},{"resource":{"category":[{"coding":[{"code":"survey","display":"survey","system":"http://hl7.org/fhir/observation-category"}]}],"code":{"coding":[{"code":"72166-2","display":"Tobacco smoking status NHIS","system":"http://loinc.org"}],"text":"Tobacco smoking status NHIS"},"context":{"reference":"Encounter/bae55ac8-f5bf-4f55-9f49-75127c26c2ae"},"effectiveDateTime":"2011-04-20T18:01:57-04:00","id":"a22cdc3e-4088-4508-87b6-3f5c30cb5772","issued":"2011-04-20T18:01:57.161-04:00","meta":{"lastUpdated":"2019-04-09T09:53:58.967100+00:00","versionId":"MTU1NDgwMzYzODk2NzEwMDAwMA"},"resourceType":"Observation","status":"final","subject":{"reference":"Patient/00a9d331-c53d-4152-aa6d-5dbceb2d1418"},"valueCodeableConcept":{"coding":[{"code":"266919005","display":"Never smoker","system":"http://snomed.info/sct"}],"text":"Never smoker"}}},{"resource":{"category":[{"coding":[{"code":"survey","display":"survey","system":"http://hl7.org/fhir/observation-category"}]}],"code":{"coding":[{"code":"72106-8","display":"Total score [MMSE]","system":"http://loinc.org"}],"text":"Total score [MMSE]"},"context":{"reference":"Encounter/da8a2e49-a6eb-4d89-b773-077dcd797e47"},"effectiveDateTime":"2015-01-25T17:01:57-05:00","id":"a3cf4de1-6ad4-4669-b541-8e9b5c2857fd","issued":"2015-01-25T17:01:57.161-05:00","meta":{"lastUpdated":"2019-04-09T09:54:01.167519+00:00","versionId":"MTU1NDgwMzY0MTE2NzUxOTAwMA"},"resourceType":"Observation","status":"final","subject":{"reference":"Patient/00a9d331-c53d-4152-aa6d-5dbceb2d1418"},"valueQuantity":{"code":"(score)","system":"http://unitsofmeasure.org","unit":"(score)","value":8.77617200599136}}},{"resource":{"category":[{"coding":[{"code":"laboratory","display":"laboratory","system":"http://hl7.org/fhir/observation-category"}]}],"code":{"coding":[{"code":"4544-3","display":"Hematocrit [Volume Fraction] of Blood by Automated count","system":"http://loinc.org"}],"text":"Hematocrit [Volume Fraction] of Blood by Automated count"},"context":{"reference":"Encounter/24e4fa68-6797-44c3-bae1-1342c6ef2e2b"},"effectiveDateTime":"2012-07-04T18:01:57-04:00","id":"a61a3076-f3e5-419a-b911-2edf06b52d8d","issued":"2012-07-04T18:01:57.161-04:00","meta":{"lastUpdated":"2019-04-09T09:53:57.777943+00:00","versionId":"MTU1NDgwMzYzNzc3Nzk0MzAwMA"},"resourceType":"Observation","status":"final","subject":{"reference":"Patient/00a9d331-c53d-4152-aa6d-5dbceb2d1418"},"valueQuantity":{"code":"%","system":"http://unitsofmeasure.org","unit":"%","value":43.99408143330976}}},{"resource":{"category":[{"coding":[{"code":"survey","display":"survey","system":"http://hl7.org/fhir/observation-category"}]}],"code":{"coding":[{"code":"72166-2","display":"Tobacco smoking status NHIS","system":"http://loinc.org"}],"text":"Tobacco smoking status NHIS"},"context":{"reference":"Encounter/f7a3bedd-a333-4f01-a6f0-8d7d1376c04b"},"effectiveDateTime":"2013-03-06T17:01:57-05:00","id":"a61e50ad-2d75-45d2-b7b9-e7589f4d4b9d","issued":"2013-03-06T17:01:57.161-05:00","meta":{"lastUpdated":"2019-04-09T09:53:58.666447+00:00","versionId":"MTU1NDgwMzYzODY2NjQ0NzAwMA"},"resourceType":"Observation","status":"final","subject":{"reference":"Patient/00a9d331-c53d-4152-aa6d-5dbceb2d1418"},"valueCodeableConcept":{"coding":[{"code":"266919005","display":"Never smoker","system":"http://snomed.info/sct"}],"text":"Never smoker"}}},{"resource":{"category":[{"coding":[{"code":"vital-signs","display":"vital-signs","system":"http://hl7.org/fhir/observation-category"}]}],"code":{"coding":[{"code":"8302-2","display":"Body Height","system":"http://loinc.org"}],"text":"Body Height"},"context":{"reference":"Encounter/e1e8280b-60fe-4970-9a3c-c484e64a047d"},"effectiveDateTime":"2011-06-29T18:01:57-04:00","id":"a71c60f0-2429-4cbe-8dd1-cd231b75908c","issued":"2011-06-29T18:01:57.161-04:00","meta":{"lastUpdated":"2019-04-09T09:53:59.757591+00:00","versionId":"MTU1NDgwMzYzOTc1NzU5MTAwMA"},"resourceType":"Observation","status":"final","subject":{"reference":"Patient/00a9d331-c53d-4152-aa6d-5dbceb2d1418"},"valueQuantity":{"code":"cm","system":"http://unitsofmeasure.org","unit":"cm","value":175.0573814043579}}}],"link":[{"url":"https://syntheticmass.mitre.org/v1/fhir/Patient/00a9d331-c53d-4152-aa6d-5dbceb2d1418/$everything?_count=100&page_token=CoIBcHJvamVjdHMvc3ludGhlYS9sb2NhdGlvbnMvdXMtY2VudHJhbDEvZGF0YXNldHMvMjAxOTAyL2ZoaXJTdG9yZXMvc3ludGhldGljLW1hc3MvZmhpci9QYXRpZW50LzAwYTlkMzMxLWM1M2QtNDE1Mi1hYTZkLTVkYmNlYjJkMTQxOA%3D%3D","relation":"previous"},{"url":"https://syntheticmass.mitre.org/v1/fhir/Patient/00a9d331-c53d-4152-aa6d-5dbceb2d1418/$everything?_count=100&page_token=CoIBcHJvamVjdHMvc3ludGhlYS9sb2NhdGlvbnMvdXMtY2VudHJhbDEvZGF0YXNldHMvMjAxOTAyL2ZoaXJTdG9yZXMvc3ludGhldGljLW1hc3MvZmhpci9QYXRpZW50LzAwYTlkMzMxLWM1M2QtNDE1Mi1hYTZkLTVkYmNlYjJkMTQxOCDIAQ%3D%3D","relation":"next"}],"total":241}
