{"resourceType":"Bundle","type":"searchset","entry":[{"resource":{"billablePeriod":{"end":"2013-11-06T06:11:33-05:00","start":"2012-11-06T06:11:33-05:00"},"careTeam":[{"provider":{"identifier":{"system":"http://hl7.org/fhir/sid/us-npi","value":"99999999"}},"role":{"coding":[{"code":"primary","display":"Primary Care Practitioner","system":"http://hl7.org/fhir/claimcareteamrole"}]},"sequence":1}],"claim":{"reference":"Claim/90ca4316-f075-4022-9601-9a3de2b676b2"},"contained":[{"id":"1","intent":"order","recipient":[{"identifier":{"system":"http://hl7.org/fhir/sid/us-npi","value":"99999999"}}],"requester":{"agent":{"identifier":{"system":"http://hl7.org/fhir/sid/us-npi","value":"99999999"}}},"resourceType":"ReferralRequest","status":"completed","subject":{"reference":"Patient/000b3ffb-bdb1-4ea6-85d6-1a2147570beb"}},{"id":"coverage","resourceType":"Coverage","type":{"text":"medicare"}}],"created":"2012-11-06T06:11:33-05:00","id":"d75a5c74-094c-429d-95d4-eb894b56755c","identifier":[{"system":"https://bluebutton.cms.gov/resources/variables/clm_id","value":"90ca4316-f075-4022-9601-9a3de2b676b2"},{"system":"https://bluebutton.cms.gov/resources/identifier/claim-group","value":"99999999999"}],"insurance":{"coverage":{"reference":"#coverage"}},"item":[{"category":{"coding":[{"code":"1","display":"Medical care","system":"https://bluebutton.cms.gov/resources/variables/line_cms_type_srvc_cd"}]},"encounter":[{"reference":"Encounter/dfffcf0c-d927-4ece-8563-c88643b65733"}],"locationCodeableConcept":{"coding":[{"code":"21","display":"Inpatient Hospital","system":"https://bluebutton.cms.gov/resources/variables/line_place_of_srvc_cd"}]},"sequence":1,"servicedPeriod":{"end":"2012-11-06T06:11:33-05:00","start":"2012-11-06T05:56:33-05:00"}},{"adjudication":[{"amount":{"code":"USD","system":"urn:iso:std:iso:4217","value":28.104000000000003},"category":{"coding":[{"code":"https://bluebutton.cms.gov/resources/variables/line_coinsrnc_amt","display":"Line Beneficiary Coinsurance Amount","system":"https://bluebutton.cms.gov/resources/codesystem/adjudication"}]}},{"amount":{"code":"USD","system":"urn:iso:std:iso:4217","value":112.41600000000001},"category":{"coding":[{"code":"https://bluebutton.cms.gov/resources/variables/line_prvdr_pmt_amt","display":"Line Provider Payment Amount","system":"https://bluebutton.cms.gov/resources/codesystem/adjudication"}]}},{"amount":{"code":"USD","system":"urn:iso:std:iso:4217","value":140.52},"category":{"coding":[{"code":"https://bluebutton.cms.gov/resources/variables/line_sbmtd_chrg_amt","display":"Line Submitted Charge Amount","system":"https://bluebutton.cms.gov/resources/codesystem/adjudication"}]}},{"amount":{"code":"USD","system":"urn:iso:std:iso:4217","value":140.52},"category":{"coding":[{"code":"https://bluebutton.cms.gov/resources/variables/line_alowd_chrg_amt","display":"Line Allowed Charge Amount","system":"https://bluebutton.cms.gov/resources/codesystem/adjudication"}]}},{"amount":{"code":"USD","system":"urn:iso:std:iso:4217","value":0},"category":{"coding":[{"code":"https://bluebutton.cms.gov/resources/variables/line_bene_ptb_ddctbl_amt","display":"Line Beneficiary Part B Deductible Amount","system":"https://bluebutton.cms.gov/resources/codesystem/adjudication"}]}},{"category":{"coding":[{"code":"https://bluebutton.cms.gov/resources/variables/line_prcsg_ind_cd","display":"Line Processing Indicator Code","system":"https://bluebutton.cms.gov/resources/codesystem/adjudication"}]},"reason":{"coding":[{"code":"A","display":"Allowed","system":"https://bluebutton.cms.gov/resources/variables/line_prcsg_ind_cd"}]}}],"category":{"coding":[{"code":"1","display":"Medical care","system":"https://bluebutton.cms.gov/resources/variables/line_cms_type_srvc_cd"}]},"informationLinkId":[1],"locationCodeableConcept":{"coding":[{"code":"21","display":"Inpatient Hospital","system":"https://bluebutton.cms.gov/resources/variables/line_place_of_srvc_cd"}]},"net":{"code":"USD","system":"urn:iso:std:iso:4217","value":140.52},"sequence":2,"servicedPeriod":{"end":"2012-11-06T06:11:33-05:00","start":"2012-11-06T05:56:33-05:00"}},{"adjudication":[{"amount":{"code":"USD","system":"urn:iso:std:iso:4217","value":28.104000000000003},"category":{"coding":[{"code":"https://bluebutton.cms.gov/resources/variables/line_coinsrnc_amt","display":"Line Beneficiary Coinsurance Amount","system":"https://bluebutton.cms.gov/resources/codesystem/adjudication"}]}},{"amount":{"code":"USD","system":"urn:iso:std:iso:4217","value":112.41600000000001},"category":{"coding":[{"code":"https://bluebutton.cms.gov/resources/variables/line_prvdr_pmt_amt","display":"Line Provider Payment Amount","system":"https://bluebutton.cms.gov/resources/codesystem/adjudication"}]}},{"amount":{"code":"USD","system":"urn:iso:std:iso:4217","value":140.52},"category":{"coding":[{"code":"https://bluebutton.cms.gov/resources/variables/line_sbmtd_chrg_amt","display":"Line Submitted Charge Amount","system":"https://bluebutton.cms.gov/resources/codesystem/adjudication"}]}},{"amount":{"code":"USD","system":"urn:iso:std:iso:4217","value":140.52},"category":{"coding":[{"code":"https://bluebutton.cms.gov/resources/variables/line_alowd_chrg_amt","display":"Line Allowed Charge Amount","system":"https://bluebutton.cms.gov/resources/codesystem/adjudication"}]}},{"amount":{"code":"USD","system":"urn:iso:std:iso:4217","value":0},"category":{"coding":[{"code":"https://bluebutton.cms.gov/resources/variables/line_bene_ptb_ddctbl_amt","display":"Line Beneficiary Part B Deductible Amount","system":"https://bluebutton.cms.gov/resources/codesystem/adjudication"}]}},{"category":{"coding":[{"code":"https://bluebutton.cms.gov/resources/variables/line_prcsg_ind_cd","display":"Line Processing Indicator Code","system":"https://bluebutton.cms.gov/resources/codesystem/adjudication"}]},"reason":{"coding":[{"code":"A","display":"Allowed","system":"https://bluebutton.cms.gov/resources/variables/line_prcsg_ind_cd"}]}}],"category":{"coding":[{"code":"1","display":"Medical care","system":"https://bluebutton.cms.gov/resources/variables/line_cms_type_srvc_cd"}]},"informationLinkId":[2],"locationCodeableConcept":{"coding":[{"code":"21","display":"Inpatient Hospital","system":"https://bluebutton.cms.gov/resources/variables/line_place_of_srvc_cd"}]},"net":{"code":"USD","system":"urn:iso:std:iso:4217","value":140.52},"sequence":3,"servicedPeriod":{"end":"2012-11-06T06:11:33-05:00","start":"2012-11-06T05:56:33-05:00"}}],"meta":{"lastUpdated":"2019-04-09T10:23:29.038952+00:00","versionId":"MTU1NDgwNTQwOTAzODk1MjAwMA"},"organization":{"identifier":{"value":"02a6089e-9e14-4e5f-a91d-40ede5630a06"}},"patient":{"reference":"Patient/000b3ffb-bdb1-4ea6-85d6-1a2147570beb"},"payment":{"amount":{"code":"USD","system":"urn:iso:std:iso:4217","value":224.83200000000002}},"provider":{"identifier":{"value":"39c2f9c2-0b64-4e93-963e-1c7faf838443"}},"referral":{"reference":"#1"},"resourceType":"ExplanationOfBenefit","status":"active","totalCost":{"code":"USD","system":"urn:iso:std:iso:4217","value":406.04},"type":{"coding":[{"code":"71","display":"Local carrier non-durable medical equipment, prosthetics, orthotics, and supplies (DMEPOS) claim","system":"https://bluebutton.cms.gov/resources/variables/nch_clm_type_cd"},{"code":"CARRIER","display":"EOB Type","system":"https://bluebutton.cms.gov/resources/codesystem/eob-type"},{"code":"professional","display":"Claim Type","system":"http://hl7.org/fhir/ex-claimtype"},{"code":"O","display":"Part B physician/supplier claim record (processed by local carriers; can include DMEPOS services)","system":"https://bluebutton.cms.gov/resources/variables/nch_near_line_rec_ident_cd"}]}}},{"resource":{"billablePeriod":{"end":"2012-02-09T06:11:33-05:00","extension":[{"url":"https://bluebutton.cms.gov/assets/ig/StructureDefinition-bluebutton-inpatient-claim-query-cd-extension","valueCoding":{"code":"3","display":"Final Bill","system":"https://bluebutton.cms.gov/assets/ig/ValueSet-claim-query-cd"}}],"start":"2011-02-09T06:11:33-05:00"},"careTeam":[{"provider":{"identifier":{"system":"http://hl7.org/fhir/sid/us-npi","value":"99999999"}},"role":{"coding":[{"code":"primary","display":"Primary Care Practitioner","system":"http://hl7.org/fhir/claimcareteamrole"}]},"sequence":1}],"contained":[{"id":"coverage","resourceType":"Coverage","type":{"text":"private"}}],"diagnosis":[{"diagnosisReference":{"reference":"Condition/f6d885a2-5ac1-489d-905f-89a7263f853b"},"extension":[{"url":"https://bluebutton.cms.gov/assets/ig/StructureDefinition-bluebutton-inpatient-clm-poa-ind-sw1-extension","valueCoding":{"code":"Y","display":"Diagnosis present at time of admission","system":"https://bluebutton.cms.gov/assets/ig/CodeSystem-clm-poa-ind-sw1"}}],"sequence":1,"type":[{"coding":[{"code":"principal","system":"https://bluebutton.cms.gov/resources/codesystem/diagnosis-type"}]}]}],"extension":[{"url":"https://bluebutton.cms.gov/assets/ig/StructureDefinition-bluebutton-inpatient-ime-op-clm-val-amt-extension","valueMoney":{"code":"USD","system":"urn:iso:std:iso:4217","value":400}},{"url":"https://bluebutton.cms.gov/assets/ig/StructureDefinition-bluebutton-inpatient-dsh-op-clm-val-amt-extension","valueMoney":{"code":"USD","system":"urn:iso:std:iso:4217","value":0}},{"url":"https://bluebutton.cms.gov/assets/ig/StructureDefinition-bluebutton-inpatient-clm-pass-thru-per-diem-amt-extension","valueMoney":{"code":"USD","system":"urn:iso:std:iso:4217","value":0}},{"url":"https://bluebutton.cms.gov/assets/ig/StructureDefinition-bluebutton-inpatient-nch-profnl-cmpnt-chrg-amt-extension","valueMoney":{"code":"USD","system":"urn:iso:std:iso:4217","value":0}},{"url":"https://bluebutton.cms.gov/assets/ig/StructureDefinition-bluebutton-inpatient-clm-tot-pps-cptl-amt-extension","valueMoney":{"code":"USD","system":"urn:iso:std:iso:4217","value":0}},{"url":"https://bluebutton.cms.gov/assets/ig/StructureDefinition-bluebutton-inpatient-nch-bene-ip-ddctbl-amt-extension","valueMoney":{"code":"USD","system":"urn:iso:std:iso:4217","value":0}},{"url":"https://bluebutton.cms.gov/assets/ig/StructureDefinition-bluebutton-inpatient-nch-bene-pta-coinsrnc-lblty-amt-extension","valueMoney":{"code":"USD","system":"urn:iso:std:iso:4217","value":0}},{"url":"https://bluebutton.cms.gov/assets/ig/StructureDefinition-bluebutton-inpatient-nch-ip-ncvrd-chrg-amt-extension","valueMoney":{"code":"USD","system":"urn:iso:std:iso:4217","value":0}},{"url":"https://bluebutton.cms.gov/assets/ig/StructureDefinition-bluebutton-inpatient-nch-ip-tot-ddctn-amt-extension","valueMoney":{"code":"USD","system":"urn:iso:std:iso:4217","value":0}},{"url":"https://bluebutton.cms.gov/assets/ig/StructureDefinition-bluebutton-inpatient-clm-pps-cptl-dsprprtnt-shr-amt-extension","valueMoney":{"code":"USD","system":"urn:iso:std:iso:4217","value":0}},{"url":"https://bluebutton.cms.gov/assets/ig/StructureDefinition-bluebutton-inpatient-clm-pps-cptl-excptn-amt-extension","valueMoney":{"code":"USD","system":"urn:iso:std:iso:4217","value":0}},{"url":"https://bluebutton.cms.gov/assets/ig/StructureDefinition-bluebutton-inpatient-clm-pps-cptl-fsp-amt-extension","valueMoney":{"code":"USD","system":"urn:iso:std:iso:4217","value":0}},{"url":"https://bluebutton.cms.gov/assets/ig/StructureDefinition-bluebutton-inpatient-clm-pps-cptl-ime-amt-extension","valueMoney":{"code":"USD","system":"urn:iso:std:iso:4217","value":400}},{"url":"https://bluebutton.cms.gov/assets/ig/StructureDefinition-bluebutton-inpatient-clm-pps-cptl-outlier-amt-extension","valueMoney":{"code":"USD","system":"urn:iso:std:iso:4217","value":0}},{"url":"https://bluebutton.cms.gov/assets/ig/StructureDefinition-bluebutton-inpatient-clm-pps-old-cptl-hld-hrmls-amt-extension","valueMoney":{"code":"USD","system":"urn:iso:std:iso:4217","value":0}},{"url":"https://bluebutton.cms.gov/assets/ig/StructureDefinition-bluebutton-inpatient-nch-drg-outlier-aprvd-pmt-amt-extension","valueMoney":{"code":"USD","system":"urn:iso:std:iso:4217","value":0}},{"url":"https://bluebutton.cms.gov/assets/ig/StructureDefinition-bluebutton-inpatient-nch-bene-blood-ddctbl-lblty-am-extension","valueMoney":{"code":"USD","system":"urn:iso:std:iso:4217","value":0}},{"url":"https://bluebutton.cms.gov/assets/ig/StructureDefinition-bluebutton-inpatient-clm-mdcr-non-pmt-rsn-cd-extension","valueCoding":{"code":"N","display":"All other reasons for non-payment","system":"https://bluebutton.cms.gov/assets/ig/CodeSystem-clm-mdcr-non-pmt-rsn-cd"}},{"url":"https://bluebutton.cms.gov/assets/ig/StructureDefinition-bluebutton-inpatient-prpayamt-extension","valueMoney":{"code":"USD","system":"urn:iso:std:iso:4217","value":0}},{"url":"https://bluebutton.cms.gov/assets/ig/StructureDefinition-bluebutton-inpatient-fi-num-extension","valueIdentifier":{"system":"https://bluebutton.cms.gov/assets/ig/CodeSystem-fi-num","value":"002000"}}],"id":"e4ee13d5-ba57-48a9-b904-3bdf650ffc35","identifier":[{"system":"https://bluebutton.cms.gov/resources/variables/clm_id","value":"877d7f12-2c88-4df2-b6e0-00975fe4fbdb"},{"system":"https://bluebutton.cms.gov/resources/identifier/claim-group","value":"99999999999"}],"insurance":{"coverage":{"reference":"#coverage"}},"item":[{"extension":[{"url":"https://bluebutton.cms.gov/assets/ig/StructureDefinition-bluebutton-inpatient-rev-cntr-ndc-qty-extension","valueQuantity":{"value":0}}],"locationCodeableConcept":{"coding":[{"code":"21","display":"Inpatient Hospital","system":"https://bluebutton.cms.gov/resources/variables/line_place_of_srvc_cd"}]},"sequence":1},{"extension":[{"url":"https://bluebutton.cms.gov/assets/ig/StructureDefinition-bluebutton-inpatient-rev-cntr-ndc-qty-extension","valueQuantity":{"value":0}}],"locationCodeableConcept":{"coding":[{"code":"21","display":"Inpatient Hospital","system":"https://bluebutton.cms.gov/resources/variables/line_place_of_srvc_cd"}]},"sequence":2}],"meta":{"lastUpdated":"2019-04-09T10:23:26.882044+00:00","profile":["https://bluebutton.cms.gov/assets/ig/StructureDefinition-bluebutton-inpatient-claim"],"versionId":"MTU1NDgwNTQwNjg4MjA0NDAwMA"},"organization":{"identifier":{"value":"02a6089e-9e14-4e5f-a91d-40ede5630a06"}},"patient":{"reference":"Patient/000b3ffb-bdb1-4ea6-85d6-1a2147570beb"},"payment":{"amount":{"code":"USD","system":"urn:iso:std:iso:4217","value":0}},"provider":{"identifier":{"value":"39c2f9c2-0b64-4e93-963e-1c7faf838443"}},"resourceType":"ExplanationOfBenefit","status":"active","totalCost":{"code":"USD","system":"urn:iso:std:iso:4217","value":125},"type":{"coding":[{"code":"71","display":"Local carrier non-durable medical equipment, prosthetics, orthotics, and supplies (DMEPOS) claim","system":"https://bluebutton.cms.gov/resources/variables/nch_clm_type_cd"},{"code":"CARRIER","display":"EOB Type","system":"https://bluebutton.cms.gov/resources/codesystem/eob-type"},{"code":"professional","display":"Claim Type","system":"http://hl7.org/fhir/ex-claimtype"},{"code":"O","display":"Part B physician/supplier claim record (processed by local carriers; can include DMEPOS services)","system":"https://bluebutton.cms.gov/resources/variables/nch_near_line_rec_ident_cd"}]}}},{"resource":{"billablePeriod":{"end":"2016-06-23T07:26:33-04:00","start":"2015-06-23T07:26:33-04:00"},"careTeam":[{"provider":{"identifier":{"system":"http://hl7.org/fhir/sid/us-npi","value":"99999999"}},"role":{"coding":[{"code":"primary","display":"Primary Care Practitioner","system":"http://hl7.org/fhir/claimcareteamrole"}]},"sequence":1}],"claim":{"reference":"Claim/aeebe052-95b5-47d4-bd2b-d31efc991716"},"contained":[{"id":"1","intent":"order","recipient":[{"identifier":{"system":"http://hl7.org/fhir/sid/us-npi","value":"99999999"}}],"requester":{"agent":{"identifier":{"system":"http://hl7.org/fhir/sid/us-npi","value":"99999999"}}},"resourceType":"ReferralRequest","status":"completed","subject":{"reference":"Patient/000b3ffb-bdb1-4ea6-85d6-1a2147570beb"}},{"id":"coverage","resourceType":"Coverage","type":{"text":"medicare"}}],"created":"2015-06-23T07:26:33-04:00","id":"f6ea2770-fad3-4dec-bebb-e77a10a498f0","identifier":[{"system":"https://bluebutton.cms.gov/resources/variables/clm_id","value":"aeebe052-95b5-47d4-bd2b-d31efc991716"},{"system":"https://bluebutton.cms.gov/resources/identifier/claim-group","value":"99999999999"}],"insurance":{"coverage":{"reference":"#coverage"}},"item":[{"category":{"coding":[{"code":"1","display":"Medical care","system":"https://bluebutton.cms.gov/resources/variables/line_cms_type_srvc_cd"}]},"encounter":[{"reference":"Encounter/6865e002-ec2e-4872-b222-2a66fbe24303"}],"locationCodeableConcept":{"coding":[{"code":"21","display":"Inpatient Hospital","system":"https://bluebutton.cms.gov/resources/variables/line_place_of_srvc_cd"}]},"sequence":1,"servicedPeriod":{"end":"2015-06-23T07:26:33-04:00","start":"2015-06-23T06:56:33-04:00"}},{"adjudication":[{"amount":{"code":"USD","system":"urn:iso:std:iso:4217","value":110.806},"category":{"coding":[{"code":"https://bluebutton.cms.gov/resources/variables/line_coinsrnc_amt","display":"Line Beneficiary Coinsurance Amount","system":"https://bluebutton.cms.gov/resources/codesystem/adjudication"}]}},{"amount":{"code":"USD","system":"urn:iso:std:iso:4217","value":443.224},"category":{"coding":[{"code":"https://bluebutton.cms.gov/resources/variables/line_prvdr_pmt_amt","display":"Line Provider Payment Amount","system":"https://bluebutton.cms.gov/resources/codesystem/adjudication"}]}},{"amount":{"code":"USD","system":"urn:iso:std:iso:4217","value":554.03},"category":{"coding":[{"code":"https://bluebutton.cms.gov/resources/variables/line_sbmtd_chrg_amt","display":"Line Submitted Charge Amount","system":"https://bluebutton.cms.gov/resources/codesystem/adjudication"}]}},{"amount":{"code":"USD","system":"urn:iso:std:iso:4217","value":554.03},"category":{"coding":[{"code":"https://bluebutton.cms.gov/resources/variables/line_alowd_chrg_amt","display":"Line Allowed Charge Amount","system":"https://bluebutton.cms.gov/resources/codesystem/adjudication"}]}},{"amount":{"code":"USD","system":"urn:iso:std:iso:4217","value":0},"category":{"coding":[{"code":"https://bluebutton.cms.gov/resources/variables/line_bene_ptb_ddctbl_amt","display":"Line Beneficiary Part B Deductible Amount","system":"https://bluebutton.cms.gov/resources/codesystem/adjudication"}]}},{"category":{"coding":[{"code":"https://bluebutton.cms.gov/resources/variables/line_prcsg_ind_cd","display":"Line Processing Indicator Code","system":"https://bluebutton.cms.gov/resources/codesystem/adjudication"}]},"reason":{"coding":[{"code":"A","display":"Allowed","system":"https://bluebutton.cms.gov/resources/variables/line_prcsg_ind_cd"}]}}],"category":{"coding":[{"code":"1","display":"Medical care","system":"https://bluebutton.cms.gov/resources/variables/line_cms_type_srvc_cd"}]},"locationCodeableConcept":{"coding":[{"code":"21","display":"Inpatient Hospital","system":"https://bluebutton.cms.gov/resources/variables/line_place_of_srvc_cd"}]},"net":{"code":"USD","system":"urn:iso:std:iso:4217","value":554.03},"sequence":2,"service":{"coding":[{"code":"428191000124101","system":"http://snomed.info/sct","version":"v1"}]},"servicedPeriod":{"end":"2015-06-23T07:26:33-04:00","start":"2015-06-23T06:56:33-04:00"}}],"meta":{"lastUpdated":"2019-04-09T10:23:32.237272+00:00","versionId":"MTU1NDgwNTQxMjIzNzI3MjAwMA"},"organization":{"identifier":{"value":"02a6089e-9e14-4e5f-a91d-40ede5630a06"}},"patient":{"reference":"Patient/000b3ffb-bdb1-4ea6-85d6-1a2147570beb"},"payment":{"amount":{"code":"USD","system":"urn:iso:std:iso:4217","value":443.224}},"provider":{"identifier":{"value":"39c2f9c2-0b64-4e93-963e-1c7faf838443"}},"referral":{"reference":"#1"},"resourceType":"ExplanationOfBenefit","status":"active","totalCost":{"code":"USD","system":"urn:iso:std:iso:4217","value":679.03},"type":{"coding":[{"code":"71","display":"Local carrier non-durable medical equipment, prosthetics, orthotics, and supplies (DMEPOS) claim","system":"https://bluebutton.cms.gov/resources/variables/nch_clm_type_cd"},{"code":"CARRIER","display":"EOB Type","system":"https://bluebutton.cms.gov/resources/codesystem/eob-type"},{"code":"professional","display":"Claim Type","system":"http://hl7.org/fhir/ex-claimtype"},{"code":"O","display":"Part B physician/supplier claim record (processed by local carriers; can include DMEPOS services)","system":"https://bluebutton.cms.gov/resources/variables/nch_near_line_rec_ident_cd"}]}}},{"resource":{"billablePeriod":{"end":"2014-03-09T06:46:33-04:00","extension":[{"url":"https://bluebutton.cms.gov/assets/ig/StructureDefinition-bluebutton-inpatient-claim-query-cd-extension","valueCoding":{"code":"3","display":"Final Bill","system":"https://bluebutton.cms.gov/assets/ig/ValueSet-claim-query-cd"}}],"start":"2013-03-09T06:46:33-05:00"},"careTeam":[{"provider":{"identifier":{"system":"http://hl7.org/fhir/sid/us-npi","value":"99999999"}},"role":{"coding":[{"code":"primary","display":"Primary Care Practitioner","system":"http://hl7.org/fhir/claimcareteamrole"}]},"sequence":1}],"contained":[{"id":"coverage","resourceType":"Coverage","type":{"text":"medicare"}}],"extension":[{"url":"https://bluebutton.cms.gov/assets/ig/StructureDefinition-bluebutton-inpatient-ime-op-clm-val-amt-extension","valueMoney":{"code":"USD","system":"urn:iso:std:iso:4217","value":400}},{"url":"https://bluebutton.cms.gov/assets/ig/StructureDefinition-bluebutton-inpatient-dsh-op-clm-val-amt-extension","valueMoney":{"code":"USD","system":"urn:iso:std:iso:4217","value":0}},{"url":"https://bluebutton.cms.gov/assets/ig/StructureDefinition-bluebutton-inpatient-clm-pass-thru-per-diem-amt-extension","valueMoney":{"code":"USD","system":"urn:iso:std:iso:4217","value":0}},{"url":"https://bluebutton.cms.gov/assets/ig/StructureDefinition-bluebutton-inpatient-nch-profnl-cmpnt-chrg-amt-extension","valueMoney":{"code":"USD","system":"urn:iso:std:iso:4217","value":0}},{"url":"https://bluebutton.cms.gov/assets/ig/StructureDefinition-bluebutton-inpatient-clm-tot-pps-cptl-amt-extension","valueMoney":{"code":"USD","system":"urn:iso:std:iso:4217","value":0}},{"url":"https://bluebutton.cms.gov/assets/ig/StructureDefinition-bluebutton-inpatient-nch-bene-ip-ddctbl-amt-extension","valueMoney":{"code":"USD","system":"urn:iso:std:iso:4217","value":0}},{"url":"https://bluebutton.cms.gov/assets/ig/StructureDefinition-bluebutton-inpatient-nch-bene-pta-coinsrnc-lblty-amt-extension","valueMoney":{"code":"USD","system":"urn:iso:std:iso:4217","value":0}},{"url":"https://bluebutton.cms.gov/assets/ig/StructureDefinition-bluebutton-inpatient-nch-ip-ncvrd-chrg-amt-extension","valueMoney":{"code":"USD","system":"urn:iso:std:iso:4217","value":0}},{"url":"https://bluebutton.cms.gov/assets/ig/StructureDefinition-bluebutton-inpatient-nch-ip-tot-ddctn-amt-extension","valueMoney":{"code":"USD","system":"urn:iso:std:iso:4217","value":0}},{"url":"https://bluebutton.cms.gov/assets/ig/StructureDefinition-bluebutton-inpatient-clm-pps-cptl-dsprprtnt-shr-amt-extension","valueMoney":{"code":"USD","system":"urn:iso:std:iso:4217","value":0}},{"url":"https://bluebutton.cms.gov/assets/ig/StructureDefinition-bluebutton-inpatient-clm-pps-cptl-excptn-amt-extension","valueMoney":{"code":"USD","system":"urn:iso:std:iso:4217","value":0}},{"url":"https://bluebutton.cms.gov/assets/ig/StructureDefinition-bluebutton-inpatient-clm-pps-cptl-fsp-amt-extension","valueMoney":{"code":"USD","system":"urn:iso:std:iso:4217","value":0}},{"url":"https://bluebutton.cms.gov/assets/ig/StructureDefinition-bluebutton-inpatient-clm-pps-cptl-ime-amt-extension","valueMoney":{"code":"USD","system":"urn:iso:std:iso:4217","value":400}},{"url":"https://bluebutton.cms.gov/assets/ig/StructureDefinition-bluebutton-inpatient-clm-pps-cptl-outlier-amt-extension","valueMoney":{"code":"USD","system":"urn:iso:std:iso:4217","value":0}},{"url":"https://bluebutton.cms.gov/assets/ig/StructureDefinition-bluebutton-inpatient-clm-pps-old-cptl-hld-hrmls-amt-extension","valueMoney":{"code":"USD","system":"urn:iso:std:iso:4217","value":0}},{"url":"https://bluebutton.cms.gov/assets/ig/StructureDefinition-bluebutton-inpatient-nch-drg-outlier-aprvd-pmt-amt-extension","valueMoney":{"code":"USD","system":"urn:iso:std:iso:4217","value":0}},{"url":"https://bluebutton.cms.gov/assets/ig/StructureDefinition-bluebutton-inpatient-nch-bene-blood-ddctbl-lblty-am-extension","valueMoney":{"code":"USD","system":"urn:iso:std:iso:4217","value":0}},{"url":"https://bluebutton.cms.gov/assets/ig/StructureDefinition-bluebutton-inpatient-clm-mdcr-non-pmt-rsn-cd-extension","valueCoding":{"code":"N","display":"All other reasons for non-payment","system":"https://bluebutton.cms.gov/assets/ig/CodeSystem-clm-mdcr-non-pmt-rsn-cd"}},{"url":"https://bluebutton.cms.gov/assets/ig/StructureDefinition-bluebutton-inpatient-prpayamt-extension","valueMoney":{"code":"USD","system":"urn:iso:std:iso:4217","value":0}},{"url":"https://bluebutton.cms.gov/assets/ig/StructureDefinition-bluebutton-inpatient-fi-num-extension","valueIdentifier":{"system":"https://bluebutton.cms.gov/assets/ig/CodeSystem-fi-num","value":"002000"}}],"id":"f9120591-3538-4fae-8cf2-23770dea169b","identifier":[{"system":"https://bluebutton.cms.gov/resources/variables/clm_id","value":"dcf79448-3efd-4c99-bd63-53a7e9b902be"},{"system":"https://bluebutton.cms.gov/resources/identifier/claim-group","value":"99999999999"}],"insurance":{"coverage":{"reference":"#coverage"}},"item":[{"extension":[{"url":"https://bluebutton.cms.gov/assets/ig/StructureDefinition-bluebutton-inpatient-rev-cntr-ndc-qty-extension","valueQuantity":{"value":0}}],"locationCodeableConcept":{"coding":[{"code":"21","display":"Inpatient Hospital","system":"https://bluebutton.cms.gov/resources/variables/line_place_of_srvc_cd"}]},"sequence":1},{"adjudication":[{"amount":{"code":"USD","system":"urn:iso:std:iso:4217","value":4457.184},"category":{"coding":[{"code":"https://bluebutton.cms.gov/resources/variables/line_coinsrnc_amt","display":"Line Beneficiary Coinsurance Amount","system":"https://bluebutton.cms.gov/resources/codesystem/adjudication"}]}},{"amount":{"code":"USD","system":"urn:iso:std:iso:4217","value":17828.736},"category":{"coding":[{"code":"https://bluebutton.cms.gov/resources/variables/line_prvdr_pmt_amt","display":"Line Provider Payment Amount","system":"https://bluebutton.cms.gov/resources/codesystem/adjudication"}]}},{"amount":{"code":"USD","system":"urn:iso:std:iso:4217","value":22285.92},"category":{"coding":[{"code":"https://bluebutton.cms.gov/resources/variables/line_sbmtd_chrg_amt","display":"Line Submitted Charge Amount","system":"https://bluebutton.cms.gov/resources/codesystem/adjudication"}]}},{"amount":{"code":"USD","system":"urn:iso:std:iso:4217","value":22285.92},"category":{"coding":[{"code":"https://bluebutton.cms.gov/resources/variables/line_alowd_chrg_amt","display":"Line Allowed Charge Amount","system":"https://bluebutton.cms.gov/resources/codesystem/adjudication"}]}},{"amount":{"code":"USD","system":"urn:iso:std:iso:4217","value":0},"category":{"coding":[{"code":"https://bluebutton.cms.gov/resources/variables/line_bene_ptb_ddctbl_amt","display":"Line Beneficiary Part B Deductible Amount","system":"https://bluebutton.cms.gov/resources/codesystem/adjudication"}]}},{"category":{"coding":[{"code":"https://bluebutton.cms.gov/resources/variables/line_prcsg_ind_cd","display":"Line Processing Indicator Code","system":"https://bluebutton.cms.gov/resources/codesystem/adjudication"}]}}],"extension":[{"url":"https://bluebutton.cms.gov/assets/ig/StructureDefinition-bluebutton-inpatient-rev-cntr-ndc-qty-extension","valueQuantity":{"value":0}}],"locationCodeableConcept":{"coding":[{"code":"21","display":"Inpatient Hospital","system":"https://bluebutton.cms.gov/resources/variables/line_place_of_srvc_cd"}]},"sequence":2,"service":{"coding":[{"code":"73761001","system":"http://snomed.info/sct","version":"v1"}]}}],"meta":{"lastUpdated":"2019-04-09T10:23:28.989688+00:00","profile":["https://bluebutton.cms.gov/assets/ig/StructureDefinition-bluebutton-inpatient-claim"],"versionId":"MTU1NDgwNTQwODk4OTY4ODAwMA"},"organization":{"identifier":{"value":"02a6089e-9e14-4e5f-a91d-40ede5630a06"}},"patient":{"reference":"Patient/000b3ffb-bdb1-4ea6-85d6-1a2147570beb"},"payment":{"amount":{"code":"USD","system":"urn:iso:std:iso:4217","value":17828.736}},"provider":{"identifier":{"value":"39c2f9c2-0b64-4e93-963e-1c7faf838443"}},"resourceType":"ExplanationOfBenefit","status":"active","totalCost":{"code":"USD","system":"urn:iso:std:iso:4217","value":22410.92},"type":{"coding":[{"code":"71","display":"Local carrier non-durable medical equipment, prosthetics, orthotics, and supplies (DMEPOS) claim","system":"https://bluebutton.cms.gov/resources/variables/nch_clm_type_cd"},{"code":"CARRIER","display":"EOB Type","system":"https://bluebutton.cms.gov/resources/codesystem/eob-type"},{"code":"professional","display":"Claim Type","system":"http://hl7.org/fhir/ex-claimtype"},{"code":"O","display":"Part B physician/supplier claim record (processed by local carriers; can include DMEPOS services)","system":"https://bluebutton.cms.gov/resources/variables/nch_near_line_rec_ident_cd"}]}}},{"resource":{"context":{"reference":"Encounter/1d145b7a-154d-46a2-8881-f0403e82a347"},"id":"fdd58740-dfd4-471d-a1aa-82de1d4c9089","meta":{"lastUpdated":"2019-04-09T10:23:33.276916+00:00","versionId":"MTU1NDgwNTQxMzI3NjkxNjAwMA"},"numberOfInstances":1,"numberOfSeries":1,"patient":{"reference":"Patient/000b3ffb-bdb1-4ea6-85d6-1a2147570beb"},"resourceType":"ImagingStudy","series":[{"availability":"UNAVAILABLE","bodySite":{"code":"51299004","display":"Clavicle","system":"http://snomed.info/sct"},"instance":[{"number":1,"sopClass":"urn:oid:1.2.840.10008.5.1.4.1.1.1.1","title":"Image of clavicle","uid":"urn:oid:1.2.840.99999999.1.1.61026372.1547049926002"}],"modality":{"code":"DX","display":"Digital Radiography","system":"http://dicom.nema.org/resources/ontology/DCM"},"number":1,"numberOfInstances":1,"started":"2017-04-28T06:56:33-04:00","uid":"urn:oid:1.2.840.99999999.1.17321827.1547049926002"}],"started":"2017-04-28T06:56:33-04:00","uid":"urn:oid:1.2.840.99999999.76751789.1547049926002"}},{"resource":{"date":"2009-10-20T06:56:33-04:00","encounter":{"reference":"Encounter/aa6409ed-2cdc-4614-adcb-b56829085731"},"id":"02317bf5-c865-4953-851a-e00f5b293131","meta":{"lastUpdated":"2019-04-09T10:23:25.867078+00:00","versionId":"MTU1NDgwNTQwNTg2NzA3ODAwMA"},"notGiven":false,"patient":{"reference":"Patient/000b3ffb-bdb1-4ea6-85d6-1a2147570beb"},"primarySource":true,"resourceType":"Immunization","status":"completed","vaccineCode":{"coding":[{"code":"140","display":"Influenza, seasonal, injectable, preservative free","system":"http://hl7.org/fhir/sid/cvx"}],"text":"Influenza, seasonal, injectable, preservative free"}}},{"resource":{"date":"2014-11-18T05:56:33-05:00","encounter":{"reference":"Encounter/cc078a27-084a-451c-aa00-f0b7e16b010f"},"id":"0d69e4a5-4b08-49dd-baf3-e8de86871538","meta":{"lastUpdated":"2019-04-09T10:23:31.209372+00:00","versionId":"MTU1NDgwNTQxMTIwOTM3MjAwMA"},"notGiven":false,"patient":{"reference":"Patient/000b3ffb-bdb1-4ea6-85d6-1a2147570beb"},"primarySource":true,"resourceType":"Immunization","status":"completed","vaccineCode":{"coding":[{"code":"140","display":"Influenza, seasonal, injectable, preservative free","system":"http://hl7.org/fhir/sid/cvx"}],"text":"Influenza, seasonal, injectable, preservative free"}}},{"resource":{"date":"2012-11-06T05:56:33-05:00","encounter":{"reference":"Encounter/dfffcf0c-d927-4ece-8563-c88643b65733"},"id":"0f8938e5-5671-4cdf-b82f-76ca31193b75","meta":{"lastUpdated":"2019-04-09T10:23:29.038951+00:00","versionId":"MTU1NDgwNTQwOTAzODk1MTAwMA"},"notGiven":false,"patient":{"reference":"Patient/000b3ffb-bdb1-4ea6-85d6-1a2147570beb"},"primarySource":true,"resourceType":"Immunization","status":"completed","vaccineCode":{"coding":[{"code":"133","display":"Pneumococcal conjugate PCV 13","system":"http://hl7.org/fhir/sid/cvx"}],"text":"Pneumococcal conjugate PCV 13"}}},{"resource":{"date":"2013-11-12T05:56:33-05:00","encounter":{"reference":"Encounter/65d654ba-906b-45fe-be11-b813fc53ba62"},"id":"39ef01d6-3303-47b7-a24b-d9ef1a741baa","meta":{"lastUpdated":"2019-04-09T10:23:29.039488+00:00","versionId":"MTU1NDgwNTQwOTAzOTQ4ODAwMA"},"notGiven":false,"patient":{"reference":"Patient/000b3ffb-bdb1-4ea6-85d6-1a2147570beb"},"primarySource":true,"resourceType":"Immunization","status":"completed","vaccineCode":{"coding":[{"code":"33","display":"pneumococcal polysaccharide vaccine, 23 valent","system":"http://hl7.org/fhir/sid/cvx"}],"text":"pneumococcal polysaccharide vaccine, 23 valent"}}},{"resource":{"date":"2018-07-10T06:56:33-04:00","encounter":{"reference":"Encounter/fc9b3a0b-7522-42fd-a97e-0fdf5d422d1a"},"id":"40334ac3-0889-46f2-8134-2aabf1ad6209","meta":{"lastUpdated":"2019-04-09T10:23:35.308692+00:00","versionId":"MTU1NDgwNTQxNTMwODY5MjAwMA"},"notGiven":false,"patient":{"reference":"Patient/000b3ffb-bdb1-4ea6-85d6-1a2147570beb"},"primarySource":true,"resourceType":"Immunization","status":"completed","vaccineCode":{"coding":[{"code":"140","display":"Influenza, seasonal, injectable, preservative free","system":"http://hl7.org/fhir/sid/cvx"}],"text":"Influenza, seasonal, injectable, preservative free"}}},{"resource":{"date":"2016-06-28T06:56:33-04:00","encounter":{"reference":"Encounter/a31e0c75-b8b4-4bf1-be79-b15754be6d5c"},"id":"5277b2c6-02a7-4b50-b934-c253f2250456","meta":{"lastUpdated":"2019-04-09T10:23:32.248542+00:00","versionId":"MTU1NDgwNTQxMjI0ODU0MjAwMA"},"notGiven":false,"patient":{"reference":"Patient/000b3ffb-bdb1-4ea6-85d6-1a2147570beb"},"primarySource":true,"resourceType":"Immunization","status":"completed","vaccineCode":{"coding":[{"code":"140","display":"Influenza, seasonal, injectable, preservative free","system":"http://hl7.org/fhir/sid/cvx"}],"text":"Influenza, seasonal, injectable, preservative free"}}},{"resource":{"date":"2012-11-06T05:56:33-05:00","encounter":{"reference":"Encounter/dfffcf0c-d927-4ece-8563-c88643b65733"},"id":"7232a324-0033-49fe-914f-8b85b39c52d9","meta":{"lastUpdated":"2019-04-09T10:23:28.991907+00:00","versionId":"MTU1NDgwNTQwODk5MTkwNzAwMA"},"notGiven":false,"patient":{"reference":"Patient/000b3ffb-bdb1-4ea6-85d6-1a2147570beb"},"primarySource":true,"resourceType":"Immunization","status":"completed","vaccineCode":{"coding":[{"code":"140","display":"Influenza, seasonal, injectable, preservative free","system":"http://hl7.org/fhir/sid/cvx"}],"text":"Influenza, seasonal, injectable, preservative free"}}},{"resource":{"date":"2013-11-12T05:56:33-05:00","encounter":{"reference":"Encounter/65d654ba-906b-45fe-be11-b813fc53ba62"},"id":"8665fbfe-24d9-43c9-b87e-dcada678b641","meta":{"lastUpdated":"2019-04-09T10:23:29.028036+00:00","versionId":"MTU1NDgwNTQwOTAyODAzNjAwMA"},"notGiven":false,"patient":{"reference":"Patient/000b3ffb-bdb1-4ea6-85d6-1a2147570beb"},"primarySource":true,"resourceType":"Immunization","status":"completed","vaccineCode":{"coding":[{"code":"140","display":"Influenza, seasonal, injectable, preservative free","system":"http://hl7.org/fhir/sid/cvx"}],"text":"Influenza, seasonal, injectable, preservative free"}}},{"resource":{"date":"2018-07-10T06:56:33-04:00","encounter":{"reference":"Encounter/fc9b3a0b-7522-42fd-a97e-0fdf5d422d1a"},"id":"b3e0944d-9bca-472c-885b-ad5e59d7d320","meta":{"lastUpdated":"2019-04-09T10:23:35.308694+00:00","versionId":"MTU1NDgwNTQxNTMwODY5NDAwMA"},"notGiven":false,"patient":{"reference":"Patient/000b3ffb-bdb1-4ea6-85d6-1a2147570beb"},"primarySource":true,"resourceType":"Immunization","status":"completed","vaccineCode":{"coding":[{"code":"113","display":"Td (adult) preservative free","system":"http://hl7.org/fhir/sid/cvx"}],"text":"Td (adult) preservative free"}}},{"resource":{"date":"2010-10-26T06:56:33-04:00","encounter":{"reference":"Encounter/83904028-4d8e-42eb-bf42-ad5454940766"},"id":"c5843aad-9083-436f-8479-ac56a080f1f9","meta":{"lastUpdated":"2019-04-09T10:23:26.895948+00:00","versionId":"MTU1NDgwNTQwNjg5NTk0ODAwMA"},"notGiven":false,"patient":{"reference":"Patient/000b3ffb-bdb1-4ea6-85d6-1a2147570beb"},"primarySource":true,"resourceType":"Immunization","status":"completed","vaccineCode":{"coding":[{"code":"140","display":"Influenza, seasonal, injectable, preservative free","system":"http://hl7.org/fhir/sid/cvx"}],"text":"Influenza, seasonal, injectable, preservative free"}}},{"resource":{"date":"2011-11-01T06:56:33-04:00","encounter":{"reference":"Encounter/f57f0265-31c9-4685-adcc-1be7b45b715b"},"id":"dac03b62-9550-4c32-bc57-cb7aac72d673","meta":{"lastUpdated":"2019-04-09T10:23:27.899471+00:00","versionId":"MTU1NDgwNTQwNzg5OTQ3MTAwMA"},"notGiven":false,"patient":{"reference":"Patient/000b3ffb-bdb1-4ea6-85d6-1a2147570beb"},"primarySource":true,"resourceType":"Immunization","status":"completed","vaccineCode":{"coding":[{"code":"140","display":"Influenza, seasonal, injectable, preservative free","system":"http://hl7.org/fhir/sid/cvx"}],"text":"Influenza, seasonal, injectable, preservative free"}}},{"resource":{"date":"2017-07-04T06:56:33-04:00","encounter":{"reference":"Encounter/405c34e1-af6a-43c8-977d-c84ff064c24d"},"id":"e8b7daac-96a6-4087-bd72-03578944e759","meta":{"lastUpdated":"2019-04-09T10:23:33.278433+00:00","versionId":"MTU1NDgwNTQxMzI3ODQzMzAwMA"},"notGiven":false,"patient":{"reference":"Patient/000b3ffb-bdb1-4ea6-85d6-1a2147570beb"},"primarySource":true,"resourceType":"Immunization","status":"completed","vaccineCode":{"coding":[{"code":"140","display":"Influenza, seasonal, injectable, preservative free","system":"http://hl7.org/fhir/sid/cvx"}],"text":"Influenza, seasonal, injectable, preservative free"}}},{"resource":{"authoredOn":"2017-04-28T06:56:33-04:00","context":{"reference":"Encounter/1d145b7a-154d-46a2-8881-f0403e82a347"},"dosageInstruction":[{"asNeededBoolean":false,"doseQuantity":{"value":1},"sequence":1,"timing":{"repeat":{"frequency":1,"period":6,"periodUnit":"h"}}}],"id":"348d16ee-e93c-4f4d-8547-e2ccfa99ade6","intent":"order","medicationCodeableConcept":{"coding":[{"code":"1049221","display":"Acetaminophen 325 MG / oxyCODONE Hydrochloride 5 MG Oral Tablet","system":"http://www.nlm.nih.gov/research/umls/rxnorm"}],"text":"Acetaminophen 325 MG / oxyCODONE Hydrochloride 5 MG Oral Tablet"},"meta":{"lastUpdated":"2019-04-09T10:23:33.276924+00:00","versionId":"MTU1NDgwNTQxMzI3NjkyNDAwMA"},"requester":{"agent":{"reference":"Practitioner/39c2f9c2-0b64-4e93-963e-1c7faf838443"},"onBehalfOf":{"reference":"Organization/02a6089e-9e14-4e5f-a91d-40ede5630a06"}},"resourceType":"MedicationRequest","status":"stopped","subject":{"reference":"Patient/000b3ffb-bdb1-4ea6-85d6-1a2147570beb"}}},{"resource":{"authoredOn":"2017-04-28T06:56:33-04:00","context":{"reference":"Encounter/1d145b7a-154d-46a2-8881-f0403e82a347"},"dosageInstruction":[{"asNeededBoolean":true,"sequence":1}],"id":"46039cb2-2e61-47f8-9c9f-64e681efdf0f","intent":"order","medicationCodeableConcept":{"coding":[{"code":"310965","display":"Ibuprofen 200 MG Oral Tablet","system":"http://www.nlm.nih.gov/research/umls/rxnorm"}],"text":"Ibuprofen 200 MG Oral Tablet"},"meta":{"lastUpdated":"2019-04-09T10:23:33.278438+00:00","versionId":"MTU1NDgwNTQxMzI3ODQzODAwMA"},"requester":{"agent":{"reference":"Practitioner/39c2f9c2-0b64-4e93-963e-1c7faf838443"},"onBehalfOf":{"reference":"Organization/02a6089e-9e14-4e5f-a91d-40ede5630a06"}},"resourceType":"MedicationRequest","status":"stopped","subject":{"reference":"Patient/000b3ffb-bdb1-4ea6-85d6-1a2147570beb"}}},{"resource":{"authoredOn":"2015-06-15T06:56:33-04:00","context":{"reference":"Encounter/139631c7-ef42-4bb2-a74c-bbb7bbf4c972"},"id":"937e3aea-c646-41d0-914d-0212ddaaf9ff","intent":"order","medicationCodeableConcept":{"coding":[{"code":"313782","display":"Acetaminophen 325 MG Oral Tablet","system":"http://www.nlm.nih.gov/research/umls/rxnorm"}],"text":"Acetaminophen 325 MG Oral Tablet"},"meta":{"lastUpdated":"2019-04-09T10:23:31.210764+00:00","versionId":"MTU1NDgwNTQxMTIxMDc2NDAwMA"},"reasonReference":[{"reference":"Condition/c4f0cb01-3e84-491f-8b8b-84a9ea1c8878"},{"reference":"Condition/8552d7c6-4447-4ca9-b77d-acb7357c1bbb"}],"requester":{"agent":{"reference":"Practitioner/39c2f9c2-0b64-4e93-963e-1c7faf838443"},"onBehalfOf":{"reference":"Organization/02a6089e-9e14-4e5f-a91d-40ede5630a06"}},"resourceType":"MedicationRequest","status":"stopped","subject":{"reference":"Patient/000b3ffb-bdb1-4ea6-85d6-1a2147570beb"}}},{"resource":{"authoredOn":"2011-09-30T06:56:33-04:00","context":{"reference":"Encounter/839908eb-dee9-4b1a-a1bc-d50b2a298423"},"id":"c2225157-8702-4f3c-b89b-fca4b6e86f22","intent":"order","medicationCodeableConcept":{"coding":[{"code":"1043400","display":"Acetaminophen 21.7 MG/ML / Dextromethorphan Hydrobromide 1 MG/ML / doxylamine succinate 0.417 MG/ML Oral Solution","system":"http://www.nlm.nih.gov/research/umls/rxnorm"}],"text":"Acetaminophen 21.7 MG/ML / Dextromethorphan Hydrobromide 1 MG/ML / doxylamine succinate 0.417 MG/ML Oral Solution"},"meta":{"lastUpdated":"2019-04-09T10:23:26.884777+00:00","versionId":"MTU1NDgwNTQwNjg4NDc3NzAwMA"},"reasonReference":[{"reference":"Condition/c4f0cb01-3e84-491f-8b8b-84a9ea1c8878"}],"requester":{"agent":{"reference":"Practitioner/39c2f9c2-0b64-4e93-963e-1c7faf838443"},"onBehalfOf":{"reference":"Organization/02a6089e-9e14-4e5f-a91d-40ede5630a06"}},"resourceType":"MedicationRequest","status":"stopped","subject":{"reference":"Patient/000b3ffb-bdb1-4ea6-85d6-1a2147570beb"}}},{"resource":{"authoredOn":"2018-07-31T06:56:33-04:00","context":{"reference":"Encounter/91986d09-b892-49fb-939c-dcb553d411c4"},"dosageInstruction":[{"asNeededBoolean":false,"doseQuantity":{"value":1},"sequence":1,"timing":{"repeat":{"frequency":1,"period":1,"periodUnit":"d"}}}],"id":"c6f3a3e3-aa64-4bc0-875c-84d9bf264edf","intent":"order","medicationCodeableConcept":{"coding":[{"code":"316672","display":"Simvistatin 10 MG","system":"http://www.nlm.nih.gov/research/umls/rxnorm"}],"text":"Simvistatin 10 MG"},"meta":{"lastUpdated":"2019-04-09T10:23:35.307463+00:00","versionId":"MTU1NDgwNTQxNTMwNzQ2MzAwMA"},"reasonReference":[{"reference":"Condition/8d2c1be0-77c5-4c4c-950f-ecef2d714e59"}],"requester":{"agent":{"reference":"Practitioner/39c2f9c2-0b64-4e93-963e-1c7faf838443"},"onBehalfOf":{"reference":"Organization/02a6089e-9e14-4e5f-a91d-40ede5630a06"}},"resourceType":"MedicationRequest","status":"active","subject":{"reference":"Patient/000b3ffb-bdb1-4ea6-85d6-1a2147570beb"}}},{"resource":{"category":[{"coding":[{"code":"vital-signs","display":"vital-signs","system":"http://hl7.org/fhir/observation-category"}]}],"code":{"coding":[{"code":"72514-3","display":"Pain severity - 0-10 verbal numeric rating [Score] - Reported","system":"http://loinc.org"}],"text":"Pain severity - 0-10 verbal numeric rating [Score] - Reported"},"context":{"reference":"Encounter/dfffcf0c-d927-4ece-8563-c88643b65733"},"effectiveDateTime":"2012-11-06T05:56:33-05:00","id":"005305bd-4705-4a2c-a9d0-30e5f73902d4","issued":"2012-11-06T05:56:33.117-05:00","meta":{"lastUpdated":"2019-04-09T10:23:27.900867+00:00","versionId":"MTU1NDgwNTQwNzkwMDg2NzAwMA"},"resourceType":"Observation","status":"final","subject":{"reference":"Patient/000b3ffb-bdb1-4ea6-85d6-1a2147570beb"},"valueQuantity":{"code":"{score}","system":"http://unitsofmeasure.org","unit":"{score}","value":3.7323065987626456}}},{"resource":{"category":[{"coding":[{"code":"survey","display":"survey","system":"http://hl7.org/fhir/observation-category"}]}],"code":{"coding":[{"code":"72166-2","display":"Tobacco smoking status NHIS","system":"http://loinc.org"}],"text":"Tobacco smoking status NHIS"},"context":{"reference":"Encounter/6865e002-ec2e-4872-b222-2a66fbe24303"},"effectiveDateTime":"2015-06-23T06:56:33-04:00","id":"02568ed7-b570-4504-a2d3-81964de044d4","issued":"2015-06-23T06:56:33.117-04:00","meta":{"lastUpdated":"2019-04-09T10:23:32.236704+00:00","versionId":"MTU1NDgwNTQxMjIzNjcwNDAwMA"},"resourceType":"Observation","status":"final","subject":{"reference":"Patient/000b3ffb-bdb1-4ea6-85d6-1a2147570beb"},"valueCodeableConcept":{"coding":[{"code":"266919005","display":"Never smoker","system":"http://snomed.info/sct"}],"text":"Never smoker"}}},{"resource":{"category":[{"coding":[{"code":"vital-signs","display":"vital-signs","system":"http://hl7.org/fhir/observation-category"}]}],"code":{"coding":[{"code":"55284-4","display":"Blood Pressure","system":"http://loinc.org"}],"text":"Blood Pressure"},"component":[{"code":{"coding":[{"code":"8462-4","display":"Diastolic Blood Pressure","system":"http://loinc.org"}],"text":"Diastolic Blood Pressure"},"valueQuantity":{"code":"mmHg","system":"http://unitsofmeasure.org","unit":"mmHg","value":82.24975551531764}},{"code":{"coding":[{"code":"8480-6","display":"Systolic Blood Pressure","system":"http://loinc.org"}],"text":"Systolic Blood Pressure"},"valueQuantity":{"code":"mmHg","system":"http://unitsofmeasure.org","unit":"mmHg","value":138.7928515972616}}],"context":{"reference":"Encounter/65d654ba-906b-45fe-be11-b813fc53ba62"},"effectiveDateTime":"2013-11-12T05:56:33-05:00","id":"026f173c-41eb-4b23-9a71-cda07101c052","issued":"2013-11-12T05:56:33.117-05:00","meta":{"lastUpdated":"2019-04-09T10:23:29.028041+00:00","versionId":"MTU1NDgwNTQwOTAyODA0MTAwMA"},"resourceType":"Observation","status":"final","subject":{"reference":"Patient/000b3ffb-bdb1-4ea6-85d6-1a2147570beb"}}},{"resource":{"category":[{"coding":[{"code":"vital-signs","display":"vital-signs","system":"http://hl7.org/fhir/observation-category"}]}],"code":{"coding":[{"code":"55284-4","display":"Blood Pressure","system":"http://loinc.org"}],"text":"Blood Pressure"},"component":[{"code":{"coding":[{"code":"8462-4","display":"Diastolic Blood Pressure","system":"http://loinc.org"}],"text":"Diastolic Blood Pressure"},"valueQuantity":{"code":"mmHg","system":"http://unitsofmeasure.org","unit":"mmHg","value":76.22742541114235}},{"code":{"coding":[{"code":"8480-6","display":"Systolic Blood Pressure","system":"http://loinc.org"}],"text":"Systolic Blood Pressure"},"valueQuantity":{"code":"mmHg","system":"http://unitsofmeasure.org","unit":"mmHg","value":119.36247203422299}}],"context":{"reference":"Encounter/cc078a27-084a-451c-aa00-f0b7e16b010f"},"effectiveDateTime":"2014-11-18T05:56:33-05:00","id":"03a3465c-192e-460f-9f42-3be945c94b0f","issued":"2014-11-18T05:56:33.117-05:00","meta":{"lastUpdated":"2019-04-09T10:23:30.196580+00:00","versionId":"MTU1NDgwNTQxMDE5NjU4MDAwMA"},"resourceType":"Observation","status":"final","subject":{"reference":"Patient/000b3ffb-bdb1-4ea6-85d6-1a2147570beb"}}},{"resource":{"category":[{"coding":[{"code":"laboratory","display":"laboratory","system":"http://hl7.org/fhir/observation-category"}]}],"code":{"coding":[{"code":"49765-1","display":"Calcium","system":"http://loinc.org"}],"text":"Calcium"},"context":{"reference":"Encounter/cc078a27-084a-451c-aa00-f0b7e16b010f"},"effectiveDateTime":"2014-11-18T05:56:33-05:00","id":"03cd2a39-0a9b-4d69-bd07-ddf52913db25","issued":"2014-11-18T05:56:33.117-05:00","meta":{"lastUpdated":"2019-04-09T10:23:30.193082+00:00","versionId":"MTU1NDgwNTQxMDE5MzA4MjAwMA"},"resourceType":"Observation","status":"final","subject":{"reference":"Patient/000b3ffb-bdb1-4ea6-85d6-1a2147570beb"},"valueQuantity":{"code":"mg/dL","system":"http://unitsofmeasure.org","unit":"mg/dL","value":9.449252994404345}}},{"resource":{"category":[{"coding":[{"code":"vital-signs","display":"vital-signs","system":"http://hl7.org/fhir/observation-category"}]}],"code":{"coding":[{"code":"72514-3","display":"Pain severity - 0-10 verbal numeric rating [Score] - Reported","system":"http://loinc.org"}],"text":"Pain severity - 0-10 verbal numeric rating [Score] - Reported"},"context":{"reference":"Encounter/65d654ba-906b-45fe-be11-b813fc53ba62"},"effectiveDateTime":"2013-11-12T05:56:33-05:00","id":"04a9afef-c6c8-4915-9f84-281d9b4efd7e","issued":"2013-11-12T05:56:33.117-05:00","meta":{"lastUpdated":"2019-04-09T10:23:28.974821+00:00","versionId":"MTU1NDgwNTQwODk3NDgyMTAwMA"},"resourceType":"Observation","status":"final","subject":{"reference":"Patient/000b3ffb-bdb1-4ea6-85d6-1a2147570beb"},"valueQuantity":{"code":"{score}","system":"http://unitsofmeasure.org","unit":"{score}","value":0.6741874180462988}}},{"resource":{"category":[{"coding":[{"code":"laboratory","display":"laboratory","system":"http://hl7.org/fhir/observation-category"}]}],"code":{"coding":[{"code":"49765-1","display":"Calcium","system":"http://loinc.org"}],"text":"Calcium"},"context":{"reference":"Encounter/405c34e1-af6a-43c8-977d-c84ff064c24d"},"effectiveDateTime":"2017-07-04T06:56:33-04:00","id":"0638bd2b-4848-402d-b56c-c1b6d3de45a1","issued":"2017-07-04T06:56:33.117-04:00","meta":{"lastUpdated":"2019-04-09T10:23:33.267412+00:00","versionId":"MTU1NDgwNTQxMzI2NzQxMjAwMA"},"resourceType":"Observation","status":"final","subject":{"reference":"Patient/000b3ffb-bdb1-4ea6-85d6-1a2147570beb"},"valueQuantity":{"code":"mg/dL","system":"http://unitsofmeasure.org","unit":"mg/dL","value":9.782296682035657}}},{"resource":{"category":[{"coding":[{"code":"laboratory","display":"laboratory","system":"http://hl7.org/fhir/observation-category"}]}],"code":{"coding":[{"code":"4548-4","display":"Hemoglobin A1c/Hemoglobin.total in Blood","system":"http://loinc.org"}],"text":"Hemoglobin A1c/Hemoglobin.total in Blood"},"context":{"reference":"Encounter/405c34e1-af6a-43c8-977d-c84ff064c24d"},"effectiveDateTime":"2017-07-04T06:56:33-04:00","id":"06c70d03-cd2e-4c52-8d58-6e5360bdaba4","issued":"2017-07-04T06:56:33.117-04:00","meta":{"lastUpdated":"2019-04-09T10:23:33.278430+00:00","versionId":"MTU1NDgwNTQxMzI3ODQzMDAwMA"},"resourceType":"Observation","status":"final","subject":{"reference":"Patient/000b3ffb-bdb1-4ea6-85d6-1a2147570beb"},"valueQuantity":{"code":"%","system":"http://unitsofmeasure.org","unit":"%","value":6.205431381449012}}},{"resource":{"category":[{"coding":[{"code":"vital-signs","display":"vital-signs","system":"http://hl7.org/fhir/observation-category"}]}],"code":{"coding":[{"code":"72514-3","display":"Pain severity - 0-10 verbal numeric rating [Score] - Reported","system":"http://loinc.org"}],"text":"Pain severity - 0-10 verbal numeric rating [Score] - Reported"},"context":{"reference":"Encounter/83904028-4d8e-42eb-bf42-ad5454940766"},"effectiveDateTime":"2010-10-26T06:56:33-04:00","id":"07a8b00f-9ea0-4c38-a060-9dc1b57ad284","issued":"2010-10-26T06:56:33.117-04:00","meta":{"lastUpdated":"2019-04-09T10:23:26.883494+00:00","versionId":"MTU1NDgwNTQwNjg4MzQ5NDAwMA"},"resourceType":"Observation","status":"final","subject":{"reference":"Patient/000b3ffb-bdb1-4ea6-85d6-1a2147570beb"},"valueQuantity":{"code":"{score}","system":"http://unitsofmeasure.org","unit":"{score}","value":1.5239110503452378}}},{"resource":{"category":[{"coding":[{"code":"vital-signs","display":"vital-signs","system":"http://hl7.org/fhir/observation-category"}]}],"code":{"coding":[{"code":"29463-7","display":"Body Weight","system":"http://loinc.org"}],"text":"Body Weight"},"context":{"reference":"Encounter/405c34e1-af6a-43c8-977d-c84ff064c24d"},"effectiveDateTime":"2017-07-04T06:56:33-04:00","id":"0c587827-a0bd-40ab-886f-c2f284f20bfa","issued":"2017-07-04T06:56:33.117-04:00","meta":{"lastUpdated":"2019-04-09T10:23:33.271560+00:00","versionId":"MTU1NDgwNTQxMzI3MTU2MDAwMA"},"resourceType":"Observation","status":"final","subject":{"reference":"Patient/000b3ffb-bdb1-4ea6-85d6-1a2147570beb"},"valueQuantity":{"code":"kg","system":"http://unitsofmeasure.org","unit":"kg","value":88.33393034915335}}},{"resource":{"category":[{"coding":[{"code":"laboratory","display":"laboratory","system":"http://hl7.org/fhir/observation-category"}]}],"code":{"coding":[{"code":"2339-0","display":"Glucose","system":"http://loinc.org"}],"text":"Glucose"},"context":{"reference":"Encounter/fc9b3a0b-7522-42fd-a97e-0fdf5d422d1a"},"effectiveDateTime":"2018-07-10T06:56:33-04:00","id":"0f49fd3c-fabc-4e43-94ac-acccca5097aa","issued":"2018-07-10T06:56:33.117-04:00","meta":{"lastUpdated":"2019-04-09T10:23:34.287027+00:00","versionId":"MTU1NDgwNTQxNDI4NzAyNzAwMA"},"resourceType":"Observation","status":"final","subject":{"reference":"Patient/000b3ffb-bdb1-4ea6-85d6-1a2147570beb"},"valueQuantity":{"code":"mg/dL","system":"http://unitsofmeasure.org","unit":"mg/dL","value":79.43487479284602}}},{"resource":{"category":[{"coding":[{"code":"laboratory","display":"laboratory","system":"http://hl7.org/fhir/observation-category"}]}],"code":{"coding":[{"code":"789-8","display":"Erythrocytes [#/volume] in Blood by Automated count","system":"http://loinc.org"}],"text":"Erythrocytes [#/volume] in Blood by Automated count"},"context":{"reference":"Encounter/cc078a27-084a-451c-aa00-f0b7e16b010f"},"effectiveDateTime":"2014-11-18T05:56:33-05:00","id":"13ac7978-3af2-4f01-947b-3ef7abfc1e37","issued":"2014-11-18T05:56:33.117-05:00","meta":{"lastUpdated":"2019-04-09T10:23:30.204781+00:00","versionId":"MTU1NDgwNTQxMDIwNDc4MTAwMA"},"resourceType":"Observation","status":"final","subject":{"reference":"Patient/000b3ffb-bdb1-4ea6-85d6-1a2147570beb"},"valueQuantity":{"code":"10*6/uL","system":"http://unitsofmeasure.org","unit":"10*6/uL","value":3.97962604536497}}},{"resource":{"category":[{"coding":[{"code":"laboratory","display":"laboratory","system":"http://hl7.org/fhir/observation-category"}]}],"code":{"coding":[{"code":"20565-8","display":"Carbon Dioxide","system":"http://loinc.org"}],"text":"Carbon Dioxide"},"context":{"reference":"Encounter/fc9b3a0b-7522-42fd-a97e-0fdf5d422d1a"},"effectiveDateTime":"2018-07-10T06:56:33-04:00","id":"14eb0708-19d3-47dd-ba00-147fd8eedb79","issued":"2018-07-10T06:56:33.117-04:00","meta":{"lastUpdated":"2019-04-09T10:23:34.287023+00:00","versionId":"MTU1NDgwNTQxNDI4NzAyMzAwMA"},"resourceType":"Observation","status":"final","subject":{"reference":"Patient/000b3ffb-bdb1-4ea6-85d6-1a2147570beb"},"valueQuantity":{"code":"mmol/L","system":"http://unitsofmeasure.org","unit":"mmol/L","value":26.55056786923231}}},{"resource":{"category":[{"coding":[{"code":"laboratory","display":"laboratory","system":"http://hl7.org/fhir/observation-category"}]}],"code":{"coding":[{"code":"32207-3","display":"Platelet distribution width [Entitic volume] in Blood by Automated count","system":"http://loinc.org"}],"text":"Platelet distribution width [Entitic volume] in Blood by Automated count"},"context":{"reference":"Encounter/cc078a27-084a-451c-aa00-f0b7e16b010f"},"effectiveDateTime":"2014-11-18T05:56:33-05:00","id":"15ae137b-6a34-41b4-ab44-7c0eb395486d","issued":"2014-11-18T05:56:33.117-05:00","meta":{"lastUpdated":"2019-04-09T10:23:31.203151+00:00","versionId":"MTU1NDgwNTQxMTIwMzE1MTAwMA"},"resourceType":"Observation","status":"final","subject":{"reference":"Patient/000b3ffb-bdb1-4ea6-85d6-1a2147570beb"},"valueQuantity":{"code":"fL","system":"http://unitsofmeasure.org","unit":"fL","value":362.02111557663727}}},{"resource":{"category":[{"coding":[{"code":"laboratory","display":"laboratory","system":"http://hl7.org/fhir/observation-category"}]}],"code":{"coding":[{"code":"2069-3","display":"Chloride","system":"http://loinc.org"}],"text":"Chloride"},"context":{"reference":"Encounter/dfffcf0c-d927-4ece-8563-c88643b65733"},"effectiveDateTime":"2012-11-06T05:56:33-05:00","id":"18d3b872-6257-4562-bc08-e23a7c561606","issued":"2012-11-06T05:56:33.117-05:00","meta":{"lastUpdated":"2019-04-09T10:23:28.985074+00:00","versionId":"MTU1NDgwNTQwODk4NTA3NDAwMA"},"resourceType":"Observation","status":"final","subject":{"reference":"Patient/000b3ffb-bdb1-4ea6-85d6-1a2147570beb"},"valueQuantity":{"code":"mmol/L","system":"http://unitsofmeasure.org","unit":"mmol/L","value":102.15291294938794}}},{"resource":{"category":[{"coding":[{"code":"laboratory","display":"laboratory","system":"http://hl7.org/fhir/observation-category"}]}],"code":{"coding":[{"code":"789-8","display":"Erythrocytes [#/volume] in Blood by Automated count","system":"http://loinc.org"}],"text":"Erythrocytes [#/volume] in Blood by Automated count"},"context":{"reference":"Encounter/aa6409ed-2cdc-4614-adcb-b56829085731"},"effectiveDateTime":"2009-10-20T06:56:33-04:00","id":"194f9f61-d7ce-42c2-a54b-c998f5fb4c91","issued":"2009-10-20T06:56:33.117-04:00","meta":{"lastUpdated":"2019-04-09T10:23:25.861378+00:00","versionId":"MTU1NDgwNTQwNTg2MTM3ODAwMA"},"resourceType":"Observation","status":"final","subject":{"reference":"Patient/000b3ffb-bdb1-4ea6-85d6-1a2147570beb"},"valueQuantity":{"code":"10*6/uL","system":"http://unitsofmeasure.org","unit":"10*6/uL","value":4.781842267186561}}},{"resource":{"category":[{"coding":[{"code":"laboratory","display":"laboratory","system":"http://hl7.org/fhir/observation-category"}]}],"code":{"coding":[{"code":"4544-3","display":"Hematocrit [Volume Fraction] of Blood by Automated count","system":"http://loinc.org"}],"text":"Hematocrit [Volume Fraction] of Blood by Automated count"},"context":{"reference":"Encounter/cc078a27-084a-451c-aa00-f0b7e16b010f"},"effectiveDateTime":"2014-11-18T05:56:33-05:00","id":"199c205e-6332-4184-aff5-ffa8dc22585d","issued":"2014-11-18T05:56:33.117-05:00","meta":{"lastUpdated":"2019-04-09T10:23:31.203148+00:00","versionId":"MTU1NDgwNTQxMTIwMzE0ODAwMA"},"resourceType":"Observation","status":"final","subject":{"reference":"Patient/000b3ffb-bdb1-4ea6-85d6-1a2147570beb"},"valueQuantity":{"code":"%","system":"http://unitsofmeasure.org","unit":"%","value":45.14828316443985}}},{"resource":{"category":[{"coding":[{"code":"laboratory","display":"laboratory","system":"http://hl7.org/fhir/observation-category"}]}],"code":{"coding":[{"code":"4548-4","display":"Hemoglobin A1c/Hemoglobin.total in Blood","system":"http://loinc.org"}],"text":"Hemoglobin A1c/Hemoglobin.total in Blood"},"context":{"reference":"Encounter/f57f0265-31c9-4685-adcc-1be7b45b715b"},"effectiveDateTime":"2011-11-01T06:56:33-04:00","id":"1aef3c88-5c84-49cb-a35c-6fdb50fcb3d0","issued":"2011-11-01T06:56:33.117-04:00","meta":{"lastUpdated":"2019-04-09T10:23:27.897338+00:00","versionId":"MTU1NDgwNTQwNzg5NzMzODAwMA"},"resourceType":"Observation","status":"final","subject":{"reference":"Patient/000b3ffb-bdb1-4ea6-85d6-1a2147570beb"},"valueQuantity":{"code":"%","system":"http://unitsofmeasure.org","unit":"%","value":6.1695896321608625}}},{"resource":{"category":[{"coding":[{"code":"laboratory","display":"laboratory","system":"http://hl7.org/fhir/observation-category"}]}],"code":{"coding":[{"code":"2339-0","display":"Glucose","system":"http://loinc.org"}],"text":"Glucose"},"context":{"reference":"Encounter/f57f0265-31c9-4685-adcc-1be7b45b715b"},"effectiveDateTime":"2011-11-01T06:56:33-04:00","id":"1bc12d8c-66c4-4f23-8f9a-71d525e75926","issued":"2011-11-01T06:56:33.117-04:00","meta":{"lastUpdated":"2019-04-09T10:23:27.902948+00:00","versionId":"MTU1NDgwNTQwNzkwMjk0ODAwMA"},"resourceType":"Observation","status":"final","subject":{"reference":"Patient/000b3ffb-bdb1-4ea6-85d6-1a2147570beb"},"valueQuantity":{"code":"mg/dL","system":"http://unitsofmeasure.org","unit":"mg/dL","value":66.02672907118489}}},{"resource":{"category":[{"coding":[{"code":"laboratory","display":"laboratory","system":"http://hl7.org/fhir/observation-category"}]}],"code":{"coding":[{"code":"6298-4","display":"Potassium","system":"http://loinc.org"}],"text":"Potassium"},"context":{"reference":"Encounter/a31e0c75-b8b4-4bf1-be79-b15754be6d5c"},"effectiveDateTime":"2016-06-28T06:56:33-04:00","id":"1cff066f-b7a6-4059-b529-c22260480559","issued":"2016-06-28T06:56:33.117-04:00","meta":{"lastUpdated":"2019-04-09T10:23:32.248539+00:00","versionId":"MTU1NDgwNTQxMjI0ODUzOTAwMA"},"resourceType":"Observation","status":"final","subject":{"reference":"Patient/000b3ffb-bdb1-4ea6-85d6-1a2147570beb"},"valueQuantity":{"code":"mmol/L","system":"http://unitsofmeasure.org","unit":"mmol/L","value":3.8615661968181936}}},{"resource":{"category":[{"coding":[{"code":"laboratory","display":"laboratory","system":"http://hl7.org/fhir/observation-category"}]}],"code":{"coding":[{"code":"787-2","display":"MCV [Entitic volume] by Automated count","system":"http://loinc.org"}],"text":"MCV [Entitic volume] by Automated count"},"context":{"reference":"Encounter/cc078a27-084a-451c-aa00-f0b7e16b010f"},"effectiveDateTime":"2014-11-18T05:56:33-05:00","id":"1d3cfd94-9718-4c2c-8372-ee8cb3026a92","issued":"2014-11-18T05:56:33.117-05:00","meta":{"lastUpdated":"2019-04-09T10:23:31.203150+00:00","versionId":"MTU1NDgwNTQxMTIwMzE1MDAwMA"},"resourceType":"Observation","status":"final","subject":{"reference":"Patient/000b3ffb-bdb1-4ea6-85d6-1a2147570beb"},"valueQuantity":{"code":"fL","system":"http://unitsofmeasure.org","unit":"fL","value":84.75040279163258}}},{"resource":{"category":[{"coding":[{"code":"laboratory","display":"laboratory","system":"http://hl7.org/fhir/observation-category"}]}],"code":{"coding":[{"code":"49765-1","display":"Calcium","system":"http://loinc.org"}],"text":"Calcium"},"context":{"reference":"Encounter/a31e0c75-b8b4-4bf1-be79-b15754be6d5c"},"effectiveDateTime":"2016-06-28T06:56:33-04:00","id":"1d7f61b5-b7ea-42c9-b417-55a451b7c5f5","issued":"2016-06-28T06:56:33.117-04:00","meta":{"lastUpdated":"2019-04-09T10:23:32.245741+00:00","versionId":"MTU1NDgwNTQxMjI0NTc0MTAwMA"},"resourceType":"Observation","status":"final","subject":{"reference":"Patient/000b3ffb-bdb1-4ea6-85d6-1a2147570beb"},"valueQuantity":{"code":"mg/dL","system":"http://unitsofmeasure.org","unit":"mg/dL","value":9.432885429171039}}},{"resource":{"category":[{"coding":[{"code":"laboratory","display":"laboratory","system":"http://hl7.org/fhir/observation-category"}]}],"code":{"coding":[{"code":"38483-4","display":"Creatinine","system":"http://loinc.org"}],"text":"Creatinine"},"context":{"reference":"Encounter/83904028-4d8e-42eb-bf42-ad5454940766"},"effectiveDateTime":"2010-10-26T06:56:33-04:00","id":"20458b95-9671-4953-918a-7006763b77f4","issued":"2010-10-26T06:56:33.117-04:00","meta":{"lastUpdated":"2019-04-09T10:23:26.878502+00:00","versionId":"MTU1NDgwNTQwNjg3ODUwMjAwMA"},"resourceType":"Observation","status":"final","subject":{"reference":"Patient/000b3ffb-bdb1-4ea6-85d6-1a2147570beb"},"valueQuantity":{"code":"mg/dL","system":"http://unitsofmeasure.org","unit":"mg/dL","value":1.5477524645002916}}},{"resource":{"category":[{"coding":[{"code":"survey","display":"survey","system":"http://hl7.org/fhir/observation-category"}]}],"code":{"coding":[{"code":"72166-2","display":"Tobacco smoking status NHIS","system":"http://loinc.org"}],"text":"Tobacco smoking status NHIS"},"context":{"reference":"Encounter/405c34e1-af6a-43c8-977d-c84ff064c24d"},"effectiveDateTime":"2017-07-04T06:56:33-04:00","id":"23595df2-9d03-4c0b-a11f-53d80cdecf98","issued":"2017-07-04T06:56:33.117-04:00","meta":{"lastUpdated":"2019-04-09T10:23:33.278434+00:00","versionId":"MTU1NDgwNTQxMzI3ODQzNDAwMA"},"resourceType":"Observation","status":"final","subject":{"reference":"Patient/000b3ffb-bdb1-4ea6-85d6-1a2147570beb"},"valueCodeableConcept":{"coding":[{"code":"266919005","display":"Never smoker","system":"http://snomed.info/sct"}],"text":"Never smoker"}}},{"resource":{"category":[{"coding":[{"code":"vital-signs","display":"vital-signs","system":"http://hl7.org/fhir/observation-category"}]}],"code":{"coding":[{"code":"39156-5","display":"Body Mass Index","system":"http://loinc.org"}],"text":"Body Mass Index"},"context":{"reference":"Encounter/65d654ba-906b-45fe-be11-b813fc53ba62"},"effectiveDateTime":"2013-11-12T05:56:33-05:00","id":"263d172e-c28d-423e-8fe9-6045d2a7006b","issued":"2013-11-12T05:56:33.117-05:00","meta":{"lastUpdated":"2019-04-09T10:23:29.032320+00:00","versionId":"MTU1NDgwNTQwOTAzMjMyMDAwMA"},"resourceType":"Observation","status":"final","subject":{"reference":"Patient/000b3ffb-bdb1-4ea6-85d6-1a2147570beb"},"valueQuantity":{"code":"kg/m2","system":"http://unitsofmeasure.org","unit":"kg/m2","value":42.05211877292618}}},{"resource":{"category":[{"coding":[{"code":"vital-signs","display":"vital-signs","system":"http://hl7.org/fhir/observation-category"}]}],"code":{"coding":[{"code":"55284-4","display":"Blood Pressure","system":"http://loinc.org"}],"text":"Blood Pressure"},"component":[{"code":{"coding":[{"code":"8462-4","display":"Diastolic Blood Pressure","system":"http://loinc.org"}],"text":"Diastolic Blood Pressure"},"valueQuantity":{"code":"mmHg","system":"http://unitsofmeasure.org","unit":"mmHg","value":85.73085328969388}},{"code":{"coding":[{"code":"8480-6","display":"Systolic Blood Pressure","system":"http://loinc.org"}],"text":"Systolic Blood Pressure"},"valueQuantity":{"code":"mmHg","system":"http://unitsofmeasure.org","unit":"mmHg","value":119.31452525884697}}],"context":{"reference":"Encounter/6865e002-ec2e-4872-b222-2a66fbe24303"},"effectiveDateTime":"2015-06-23T06:56:33-04:00","id":"27664621-9254-4aa5-884f-6415ec8ef30a","issued":"2015-06-23T06:56:33.117-04:00","meta":{"lastUpdated":"2019-04-09T10:23:31.213577+00:00","versionId":"MTU1NDgwNTQxMTIxMzU3NzAwMA"},"resourceType":"Observation","status":"final","subject":{"reference":"Patient/000b3ffb-bdb1-4ea6-85d6-1a2147570beb"}}},{"resource":{"category":[{"coding":[{"code":"laboratory","display":"laboratory","system":"http://hl7.org/fhir/observation-category"}]}],"code":{"coding":[{"code":"6298-4","display":"Potassium","system":"http://loinc.org"}],"text":"Potassium"},"context":{"reference":"Encounter/fc9b3a0b-7522-42fd-a97e-0fdf5d422d1a"},"effectiveDateTime":"2018-07-10T06:56:33-04:00","id":"27761183-8e05-4494-ad9f-6c36151d49c0","issued":"2018-07-10T06:56:33.117-04:00","meta":{"lastUpdated":"2019-04-09T10:23:34.281997+00:00","versionId":"MTU1NDgwNTQxNDI4MTk5NzAwMA"},"resourceType":"Observation","status":"final","subject":{"reference":"Patient/000b3ffb-bdb1-4ea6-85d6-1a2147570beb"},"valueQuantity":{"code":"mmol/L","system":"http://unitsofmeasure.org","unit":"mmol/L","value":4.980217346192882}}},{"resource":{"category":[{"coding":[{"code":"vital-signs","display":"vital-signs","system":"http://hl7.org/fhir/observation-category"}]}],"code":{"coding":[{"code":"39156-5","display":"Body Mass Index","system":"http://loinc.org"}],"text":"Body Mass Index"},"context":{"reference":"Encounter/fc9b3a0b-7522-42fd-a97e-0fdf5d422d1a"},"effectiveDateTime":"2018-07-10T06:56:33-04:00","id":"29842585-20bc-4145-b98e-721a7e953216","issued":"2018-07-10T06:56:33.117-04:00","meta":{"lastUpdated":"2019-04-09T10:23:34.299726+00:00","versionId":"MTU1NDgwNTQxNDI5OTcyNjAwMA"},"resourceType":"Observation","status":"final","subject":{"reference":"Patient/000b3ffb-bdb1-4ea6-85d6-1a2147570beb"},"valueQuantity":{"code":"kg/m2","system":"http://unitsofmeasure.org","unit":"kg/m2","value":38.83846482110909}}},{"resource":{"category":[{"coding":[{"code":"vital-signs","display":"vital-signs","system":"http://hl7.org/fhir/observation-category"}]}],"code":{"coding":[{"code":"39156-5","display":"Body Mass Index","system":"http://loinc.org"}],"text":"Body Mass Index"},"context":{"reference":"Encounter/aa6409ed-2cdc-4614-adcb-b56829085731"},"effectiveDateTime":"2009-10-20T06:56:33-04:00","id":"299dd5b5-23ae-4e9a-96a7-5f184f445f3c","issued":"2009-10-20T06:56:33.117-04:00","meta":{"lastUpdated":"2019-04-09T10:23:25.877849+00:00","versionId":"MTU1NDgwNTQwNTg3Nzg0OTAwMA"},"resourceType":"Observation","status":"final","subject":{"reference":"Patient/000b3ffb-bdb1-4ea6-85d6-1a2147570beb"},"valueQuantity":{"code":"kg/m2","system":"http://unitsofmeasure.org","unit":"kg/m2","value":44.7651597788131}}},{"resource":{"category":[{"coding":[{"code":"laboratory","display":"laboratory","system":"http://hl7.org/fhir/observation-category"}]}],"code":{"coding":[{"code":"2571-8","display":"Triglycerides","system":"http://loinc.org"}],"text":"Triglycerides"},"context":{"reference":"Encounter/aa6409ed-2cdc-4614-adcb-b56829085731"},"effectiveDateTime":"2009-10-20T06:56:33-04:00","id":"2ac3b0a5-2999-4f87-b3d9-4d1d8eb8125c","issued":"2009-10-20T06:56:33.117-04:00","meta":{"lastUpdated":"2019-04-09T10:23:25.877850+00:00","versionId":"MTU1NDgwNTQwNTg3Nzg1MDAwMA"},"resourceType":"Observation","status":"final","subject":{"reference":"Patient/000b3ffb-bdb1-4ea6-85d6-1a2147570beb"},"valueQuantity":{"code":"mg/dL","system":"http://unitsofmeasure.org","unit":"mg/dL","value":144.46102919141666}}},{"resource":{"category":[{"coding":[{"code":"laboratory","display":"laboratory","system":"http://hl7.org/fhir/observation-category"}]}],"code":{"coding":[{"code":"18262-6","display":"Low Density Lipoprotein Cholesterol","system":"http://loinc.org"}],"text":"Low Density Lipoprotein Cholesterol"},"context":{"reference":"Encounter/aa6409ed-2cdc-4614-adcb-b56829085731"},"effectiveDateTime":"2009-10-20T06:56:33-04:00","id":"2aec8cc2-0bf1-4857-b793-b040963337e0","issued":"2009-10-20T06:56:33.117-04:00","meta":{"lastUpdated":"2019-04-09T10:23:25.865869+00:00","versionId":"MTU1NDgwNTQwNTg2NTg2OTAwMA"},"resourceType":"Observation","status":"final","subject":{"reference":"Patient/000b3ffb-bdb1-4ea6-85d6-1a2147570beb"},"valueQuantity":{"code":"mg/dL","system":"http://unitsofmeasure.org","unit":"mg/dL","value":61.562922626309586}}},{"resource":{"category":[{"coding":[{"code":"laboratory","display":"laboratory","system":"http://hl7.org/fhir/observation-category"}]}],"code":{"coding":[{"code":"2093-3","display":"Total Cholesterol","system":"http://loinc.org"}],"text":"Total Cholesterol"},"context":{"reference":"Encounter/a31e0c75-b8b4-4bf1-be79-b15754be6d5c"},"effectiveDateTime":"2016-06-28T06:56:33-04:00","id":"30c5e282-f4b3-4e2b-a8e6-3f2624b6ffbf","issued":"2016-06-28T06:56:33.117-04:00","meta":{"lastUpdated":"2019-04-09T10:23:32.246805+00:00","versionId":"MTU1NDgwNTQxMjI0NjgwNTAwMA"},"resourceType":"Observation","status":"final","subject":{"reference":"Patient/000b3ffb-bdb1-4ea6-85d6-1a2147570beb"},"valueQuantity":{"code":"mg/dL","system":"http://unitsofmeasure.org","unit":"mg/dL","value":178.87422146238765}}},{"resource":{"category":[{"coding":[{"code":"laboratory","display":"laboratory","system":"http://hl7.org/fhir/observation-category"}]}],"code":{"coding":[{"code":"2339-0","display":"Glucose","system":"http://loinc.org"}],"text":"Glucose"},"context":{"reference":"Encounter/6865e002-ec2e-4872-b222-2a66fbe24303"},"effectiveDateTime":"2015-06-23T06:56:33-04:00","id":"3114bf41-017c-4324-9471-a179329916ad","issued":"2015-06-23T06:56:33.117-04:00","meta":{"lastUpdated":"2019-04-09T10:23:31.207958+00:00","versionId":"MTU1NDgwNTQxMTIwNzk1ODAwMA"},"resourceType":"Observation","status":"final","subject":{"reference":"Patient/000b3ffb-bdb1-4ea6-85d6-1a2147570beb"},"valueQuantity":{"code":"mg/dL","system":"http://unitsofmeasure.org","unit":"mg/dL","value":94.52230419803661}}},{"resource":{"category":[{"coding":[{"code":"laboratory","display":"laboratory","system":"http://hl7.org/fhir/observation-category"}]}],"code":{"coding":[{"code":"49765-1","display":"Calcium","system":"http://loinc.org"}],"text":"Calcium"},"context":{"reference":"Encounter/65d654ba-906b-45fe-be11-b813fc53ba62"},"effectiveDateTime":"2013-11-12T05:56:33-05:00","id":"3177f6bd-10e4-4e5f-9ff5-7e2323cfaef9","issued":"2013-11-12T05:56:33.117-05:00","meta":{"lastUpdated":"2019-04-09T10:23:29.039415+00:00","versionId":"MTU1NDgwNTQwOTAzOTQxNTAwMA"},"resourceType":"Observation","status":"final","subject":{"reference":"Patient/000b3ffb-bdb1-4ea6-85d6-1a2147570beb"},"valueQuantity":{"code":"mg/dL","system":"http://unitsofmeasure.org","unit":"mg/dL","value":9.38801321196942}}},{"resource":{"category":[{"coding":[{"code":"laboratory","display":"laboratory","system":"http://hl7.org/fhir/observation-category"}]}],"code":{"coding":[{"code":"57905-2","display":"Hemoglobin.gastrointestinal [Presence] in Stool by Immunologic method","system":"http://loinc.org"}],"text":"Hemoglobin.gastrointestinal [Presence] in Stool by Immunologic method"},"context":{"reference":"Encounter/d3808c4f-f904-4f79-8daf-8a330e1f5d94"},"effectiveDateTime":"2018-03-08T05:56:33-05:00","id":"328262b8-93a8-49ef-b2bc-ba778e1f0c6e","issued":"2018-03-08T05:56:33.117-05:00","meta":{"lastUpdated":"2019-04-09T10:23:34.289201+00:00","versionId":"MTU1NDgwNTQxNDI4OTIwMTAwMA"},"resourceType":"Observation","status":"final","subject":{"reference":"Patient/000b3ffb-bdb1-4ea6-85d6-1a2147570beb"},"valueQuantity":{"code":"ng/mL","system":"http://unitsofmeasure.org","unit":"ng/mL","value":8.023704402154316}}},{"resource":{"category":[{"coding":[{"code":"laboratory","display":"laboratory","system":"http://hl7.org/fhir/observation-category"}]}],"code":{"coding":[{"code":"49765-1","display":"Calcium","system":"http://loinc.org"}],"text":"Calcium"},"context":{"reference":"Encounter/fc9b3a0b-7522-42fd-a97e-0fdf5d422d1a"},"effectiveDateTime":"2018-07-10T06:56:33-04:00","id":"33425898-b466-47eb-ad64-f4cb185af148","issued":"2018-07-10T06:56:33.117-04:00","meta":{"lastUpdated":"2019-04-09T10:23:34.289202+00:00","versionId":"MTU1NDgwNTQxNDI4OTIwMjAwMA"},"resourceType":"Observation","status":"final","subject":{"reference":"Patient/000b3ffb-bdb1-4ea6-85d6-1a2147570beb"},"valueQuantity":{"code":"mg/dL","system":"http://unitsofmeasure.org","unit":"mg/dL","value":10.196737493761068}}},{"resource":{"category":[{"coding":[{"code":"laboratory","display":"laboratory","system":"http://hl7.org/fhir/observation-category"}]}],"code":{"coding":[{"code":"38483-4","display":"Creatinine","system":"http://loinc.org"}],"text":"Creatinine"},"context":{"reference":"Encounter/fc9b3a0b-7522-42fd-a97e-0fdf5d422d1a"},"effectiveDateTime":"2018-07-10T06:56:33-04:00","id":"344b39d8-a277-4777-861d-72bff31468cb","issued":"2018-07-10T06:56:33.117-04:00","meta":{"lastUpdated":"2019-04-09T10:23:34.281614+00:00","versionId":"MTU1NDgwNTQxNDI4MTYxNDAwMA"},"resourceType":"Observation","status":"final","subject":{"reference":"Patient/000b3ffb-bdb1-4ea6-85d6-1a2147570beb"},"valueQuantity":{"code":"mg/dL","system":"http://unitsofmeasure.org","unit":"mg/dL","value":0.7083978641636061}}},{"resource":{"category":[{"coding":[{"code":"laboratory","display":"laboratory","system":"http://hl7.org/fhir/observation-category"}]}],"code":{"coding":[{"code":"6299-2","display":"Urea Nitrogen","system":"http://loinc.org"}],"text":"Urea Nitrogen"},"context":{"reference":"Encounter/405c34e1-af6a-43c8-977d-c84ff064c24d"},"effectiveDateTime":"2017-07-04T06:56:33-04:00","id":"34fecae1-8584-44f3-afde-4f7e8461675b","issued":"2017-07-04T06:56:33.117-04:00","meta":{"lastUpdated":"2019-04-09T10:23:33.278029+00:00","versionId":"MTU1NDgwNTQxMzI3ODAyOTAwMA"},"resourceType":"Observation","status":"final","subject":{"reference":"Patient/000b3ffb-bdb1-4ea6-85d6-1a2147570beb"},"valueQuantity":{"code":"mg/dL","system":"http://unitsofmeasure.org","unit":"mg/dL","value":19.271225953050045}}},{"resource":{"category":[{"coding":[{"code":"vital-signs","display":"vital-signs","system":"http://hl7.org/fhir/observation-category"}]}],"code":{"coding":[{"code":"8302-2","display":"Body Height","system":"http://loinc.org"}],"text":"Body Height"},"context":{"reference":"Encounter/6865e002-ec2e-4872-b222-2a66fbe24303"},"effectiveDateTime":"2015-06-23T06:56:33-04:00","id":"3678e632-b22e-4ade-8434-b1928cff1137","issued":"2015-06-23T06:56:33.117-04:00","meta":{"lastUpdated":"2019-04-09T10:23:31.212333+00:00","versionId":"MTU1NDgwNTQxMTIxMjMzMzAwMA"},"resourceType":"Observation","status":"final","subject":{"reference":"Patient/000b3ffb-bdb1-4ea6-85d6-1a2147570beb"},"valueQuantity":{"code":"cm","system":"http://unitsofmeasure.org","unit":"cm","value":149.63728988734977}}},{"resource":{"category":[{"coding":[{"code":"laboratory","display":"laboratory","system":"http://hl7.org/fhir/observation-category"}]}],"code":{"coding":[{"code":"2085-9","display":"High Density Lipoprotein Cholesterol","system":"http://loinc.org"}],"text":"High Density Lipoprotein Cholesterol"},"context":{"reference":"Encounter/a31e0c75-b8b4-4bf1-be79-b15754be6d5c"},"effectiveDateTime":"2016-06-28T06:56:33-04:00","id":"3884bfea-2d0b-4891-9142-09fc118cb78c","issued":"2016-06-28T06:56:33.117-04:00","meta":{"lastUpdated":"2019-04-09T10:23:32.248537+00:00","versionId":"MTU1NDgwNTQxMjI0ODUzNzAwMA"},"resourceType":"Observation","status":"final","subject":{"reference":"Patient/000b3ffb-bdb1-4ea6-85d6-1a2147570beb"},"valueQuantity":{"code":"mg/dL","system":"http://unitsofmeasure.org","unit":"mg/dL","value":67.44037404760479}}},{"resource":{"category":[{"coding":[{"code":"vital-signs","display":"vital-signs","system":"http://hl7.org/fhir/observation-category"}]}],"code":{"coding":[{"code":"29463-7","display":"Body Weight","system":"http://loinc.org"}],"text":"Body Weight"},"context":{"reference":"Encounter/65d654ba-906b-45fe-be11-b813fc53ba62"},"effectiveDateTime":"2013-11-12T05:56:33-05:00","id":"39b388cc-e2c1-42a6-bb70-f56672651f8f","issued":"2013-11-12T05:56:33.117-05:00","meta":{"lastUpdated":"2019-04-09T10:23:29.033350+00:00","versionId":"MTU1NDgwNTQwOTAzMzM1MDAwMA"},"resourceType":"Observation","status":"final","subject":{"reference":"Patient/000b3ffb-bdb1-4ea6-85d6-1a2147570beb"},"valueQuantity":{"code":"kg","system":"http://unitsofmeasure.org","unit":"kg","value":94.16023860886048}}},{"resource":{"category":[{"coding":[{"code":"laboratory","display":"laboratory","system":"http://hl7.org/fhir/observation-category"}]}],"code":{"coding":[{"code":"6298-4","display":"Potassium","system":"http://loinc.org"}],"text":"Potassium"},"context":{"reference":"Encounter/cc078a27-084a-451c-aa00-f0b7e16b010f"},"effectiveDateTime":"2014-11-18T05:56:33-05:00","id":"3bfec1ec-df70-4a6d-ad9d-ac577cb75fb4","issued":"2014-11-18T05:56:33.117-05:00","meta":{"lastUpdated":"2019-04-09T10:23:30.196404+00:00","versionId":"MTU1NDgwNTQxMDE5NjQwNDAwMA"},"resourceType":"Observation","status":"final","subject":{"reference":"Patient/000b3ffb-bdb1-4ea6-85d6-1a2147570beb"},"valueQuantity":{"code":"mmol/L","system":"http://unitsofmeasure.org","unit":"mmol/L","value":5.004902540212184}}},{"resource":{"category":[{"coding":[{"code":"laboratory","display":"laboratory","system":"http://hl7.org/fhir/observation-category"}]}],"code":{"coding":[{"code":"20565-8","display":"Carbon Dioxide","system":"http://loinc.org"}],"text":"Carbon Dioxide"},"context":{"reference":"Encounter/fc9b3a0b-7522-42fd-a97e-0fdf5d422d1a"},"effectiveDateTime":"2018-07-10T06:56:33-04:00","id":"3d43d2bb-26aa-47e6-8e95-576fe917a5d0","issued":"2018-07-10T06:56:33.117-04:00","meta":{"lastUpdated":"2019-04-09T10:23:34.289192+00:00","versionId":"MTU1NDgwNTQxNDI4OTE5MjAwMA"},"resourceType":"Observation","status":"final","subject":{"reference":"Patient/000b3ffb-bdb1-4ea6-85d6-1a2147570beb"},"valueQuantity":{"code":"mmol/L","system":"http://unitsofmeasure.org","unit":"mmol/L","value":24.89821015538453}}},{"resource":{"category":[{"coding":[{"code":"laboratory","display":"laboratory","system":"http://hl7.org/fhir/observation-category"}]}],"code":{"coding":[{"code":"2085-9","display":"High Density Lipoprotein Cholesterol","system":"http://loinc.org"}],"text":"High Density Lipoprotein Cholesterol"},"context":{"reference":"Encounter/dfffcf0c-d927-4ece-8563-c88643b65733"},"effectiveDateTime":"2012-11-06T05:56:33-05:00","id":"3d73b73e-e893-4e12-9383-ce60b464a232","issued":"2012-11-06T05:56:33.117-05:00","meta":{"lastUpdated":"2019-04-09T10:23:29.038955+00:00","versionId":"MTU1NDgwNTQwOTAzODk1NTAwMA"},"resourceType":"Observation","status":"final","subject":{"reference":"Patient/000b3ffb-bdb1-4ea6-85d6-1a2147570beb"},"valueQuantity":{"code":"mg/dL","system":"http://unitsofmeasure.org","unit":"mg/dL","value":68.31158984569817}}},{"resource":{"category":[{"coding":[{"code":"vital-signs","display":"vital-signs","system":"http://hl7.org/fhir/observation-category"}]}],"code":{"coding":[{"code":"39156-5","display":"Body Mass Index","system":"http://loinc.org"}],"text":"Body Mass Index"},"context":{"reference":"Encounter/cc078a27-084a-451c-aa00-f0b7e16b010f"},"effectiveDateTime":"2014-11-18T05:56:33-05:00","id":"3ebada53-2b05-4776-99c2-3e5039886f8d","issued":"2014-11-18T05:56:33.117-05:00","meta":{"lastUpdated":"2019-04-09T10:23:30.202782+00:00","versionId":"MTU1NDgwNTQxMDIwMjc4MjAwMA"},"resourceType":"Observation","status":"final","subject":{"reference":"Patient/000b3ffb-bdb1-4ea6-85d6-1a2147570beb"},"valueQuantity":{"code":"kg/m2","system":"http://unitsofmeasure.org","unit":"kg/m2","value":41.538411939738275}}},{"resource":{"category":[{"coding":[{"code":"laboratory","display":"laboratory","system":"http://hl7.org/fhir/observation-category"}]}],"code":{"coding":[{"code":"777-3","display":"Platelets [#/volume] in Blood by Automated count","system":"http://loinc.org"}],"text":"Platelets [#/volume] in Blood by Automated count"},"context":{"reference":"Encounter/cc078a27-084a-451c-aa00-f0b7e16b010f"},"effectiveDateTime":"2014-11-18T05:56:33-05:00","id":"404379ae-2a62-443d-b39e-9fe165a1544b","issued":"2014-11-18T05:56:33.117-05:00","meta":{"lastUpdated":"2019-04-09T10:23:31.203147+00:00","versionId":"MTU1NDgwNTQxMTIwMzE0NzAwMA"},"resourceType":"Observation","status":"final","subject":{"reference":"Patient/000b3ffb-bdb1-4ea6-85d6-1a2147570beb"},"valueQuantity":{"code":"10*3/uL","system":"http://unitsofmeasure.org","unit":"10*3/uL","value":423.7803756781636}}},{"resource":{"category":[{"coding":[{"code":"laboratory","display":"laboratory","system":"http://hl7.org/fhir/observation-category"}]}],"code":{"coding":[{"code":"6298-4","display":"Potassium","system":"http://loinc.org"}],"text":"Potassium"},"context":{"reference":"Encounter/fc9b3a0b-7522-42fd-a97e-0fdf5d422d1a"},"effectiveDateTime":"2018-07-10T06:56:33-04:00","id":"4167b925-239f-4485-b04f-50a7152e047c","issued":"2018-07-10T06:56:33.117-04:00","meta":{"lastUpdated":"2019-04-09T10:23:34.292731+00:00","versionId":"MTU1NDgwNTQxNDI5MjczMTAwMA"},"resourceType":"Observation","status":"final","subject":{"reference":"Patient/000b3ffb-bdb1-4ea6-85d6-1a2147570beb"},"valueQuantity":{"code":"mmol/L","system":"http://unitsofmeasure.org","unit":"mmol/L","value":3.7096122751035856}}},{"resource":{"category":[{"coding":[{"code":"laboratory","display":"laboratory","system":"http://hl7.org/fhir/observation-category"}]}],"code":{"coding":[{"code":"2069-3","display":"Chloride","system":"http://loinc.org"}],"text":"Chloride"},"context":{"reference":"Encounter/aa6409ed-2cdc-4614-adcb-b56829085731"},"effectiveDateTime":"2009-10-20T06:56:33-04:00","id":"41f33bd8-80ee-4110-b71f-2339a01d8c31","issued":"2009-10-20T06:56:33.117-04:00","meta":{"lastUpdated":"2019-04-09T10:23:25.861397+00:00","versionId":"MTU1NDgwNTQwNTg2MTM5NzAwMA"},"resourceType":"Observation","status":"final","subject":{"reference":"Patient/000b3ffb-bdb1-4ea6-85d6-1a2147570beb"},"valueQuantity":{"code":"mmol/L","system":"http://unitsofmeasure.org","unit":"mmol/L","value":104.53580640135819}}},{"resource":{"category":[{"coding":[{"code":"survey","display":"survey","system":"http://hl7.org/fhir/observation-category"}]}],"code":{"coding":[{"code":"72166-2","display":"Tobacco smoking status NHIS","system":"http://loinc.org"}],"text":"Tobacco smoking status NHIS"},"context":{"reference":"Encounter/aa6409ed-2cdc-4614-adcb-b56829085731"},"effectiveDateTime":"2009-10-20T06:56:33-04:00","id":"421cc49d-4490-490b-8d12-d6249b6cf6d0","issued":"2009-10-20T06:56:33.117-04:00","meta":{"lastUpdated":"2019-04-09T10:23:25.865862+00:00","versionId":"MTU1NDgwNTQwNTg2NTg2MjAwMA"},"resourceType":"Observation","status":"final","subject":{"reference":"Patient/000b3ffb-bdb1-4ea6-85d6-1a2147570beb"},"valueCodeableConcept":{"coding":[{"code":"266919005","display":"Never smoker","system":"http://snomed.info/sct"}],"text":"Never smoker"}}},{"resource":{"category":[{"coding":[{"code":"laboratory","display":"laboratory","system":"http://hl7.org/fhir/observation-category"}]}],"code":{"coding":[{"code":"2339-0","display":"Glucose","system":"http://loinc.org"}],"text":"Glucose"},"context":{"reference":"Encounter/aa6409ed-2cdc-4614-adcb-b56829085731"},"effectiveDateTime":"2009-10-20T06:56:33-04:00","id":"422511d1-b147-4c75-bfc5-06001e654269","issued":"2009-10-20T06:56:33.117-04:00","meta":{"lastUpdated":"2019-04-09T10:23:25.860907+00:00","versionId":"MTU1NDgwNTQwNTg2MDkwNzAwMA"},"resourceType":"Observation","status":"final","subject":{"reference":"Patient/000b3ffb-bdb1-4ea6-85d6-1a2147570beb"},"valueQuantity":{"code":"mg/dL","system":"http://unitsofmeasure.org","unit":"mg/dL","value":94.54187797643982}}},{"resource":{"category":[{"coding":[{"code":"laboratory","display":"laboratory","system":"http://hl7.org/fhir/observation-category"}]}],"code":{"coding":[{"code":"2947-0","display":"Sodium","system":"http://loinc.org"}],"text":"Sodium"},"context":{"reference":"Encounter/fc9b3a0b-7522-42fd-a97e-0fdf5d422d1a"},"effectiveDateTime":"2018-07-10T06:56:33-04:00","id":"442fbc66-6306-4e81-b8b2-378b7ad74361","issued":"2018-07-10T06:56:33.117-04:00","meta":{"lastUpdated":"2019-04-09T10:23:34.282329+00:00","versionId":"MTU1NDgwNTQxNDI4MjMyOTAwMA"},"resourceType":"Observation","status":"final","subject":{"reference":"Patient/000b3ffb-bdb1-4ea6-85d6-1a2147570beb"},"valueQuantity":{"code":"mmol/L","system":"http://unitsofmeasure.org","unit":"mmol/L","value":140.87054254969195}}},{"resource":{"category":[{"coding":[{"code":"laboratory","display":"laboratory","system":"http://hl7.org/fhir/observation-category"}]}],"code":{"coding":[{"code":"2069-3","display":"Chloride","system":"http://loinc.org"}],"text":"Chloride"},"context":{"reference":"Encounter/f57f0265-31c9-4685-adcc-1be7b45b715b"},"effectiveDateTime":"2011-11-01T06:56:33-04:00","id":"4552e6b9-1c22-45ac-9d78-49d47eecf1d6","issued":"2011-11-01T06:56:33.117-04:00","meta":{"lastUpdated":"2019-04-09T10:23:27.899476+00:00","versionId":"MTU1NDgwNTQwNzg5OTQ3NjAwMA"},"resourceType":"Observation","status":"final","subject":{"reference":"Patient/000b3ffb-bdb1-4ea6-85d6-1a2147570beb"},"valueQuantity":{"code":"mmol/L","system":"http://unitsofmeasure.org","unit":"mmol/L","value":106.22052966465944}}},{"resource":{"category":[{"coding":[{"code":"vital-signs","display":"vital-signs","system":"http://hl7.org/fhir/observation-category"}]}],"code":{"coding":[{"code":"29463-7","display":"Body Weight","system":"http://loinc.org"}],"text":"Body Weight"},"context":{"reference":"Encounter/fc9b3a0b-7522-42fd-a97e-0fdf5d422d1a"},"effectiveDateTime":"2018-07-10T06:56:33-04:00","id":"493d7c2e-eb28-400d-b74b-d488f5ec0b07","issued":"2018-07-10T06:56:33.117-04:00","meta":{"lastUpdated":"2019-04-09T10:23:34.287025+00:00","versionId":"MTU1NDgwNTQxNDI4NzAyNTAwMA"},"resourceType":"Observation","status":"final","subject":{"reference":"Patient/000b3ffb-bdb1-4ea6-85d6-1a2147570beb"},"valueQuantity":{"code":"kg","system":"http://unitsofmeasure.org","unit":"kg","value":86.96444368248874}}},{"resource":{"category":[{"coding":[{"code":"vital-signs","display":"vital-signs","system":"http://hl7.org/fhir/observation-category"}]}],"code":{"coding":[{"code":"72514-3","display":"Pain severity - 0-10 verbal numeric rating [Score] - Reported","system":"http://loinc.org"}],"text":"Pain severity - 0-10 verbal numeric rating [Score] - Reported"},"context":{"reference":"Encounter/f57f0265-31c9-4685-adcc-1be7b45b715b"},"effectiveDateTime":"2011-11-01T06:56:33-04:00","id":"4c883185-d126-4cac-93f5-6e26db940348","issued":"2011-11-01T06:56:33.117-04:00","meta":{"lastUpdated":"2019-04-09T10:23:27.899474+00:00","versionId":"MTU1NDgwNTQwNzg5OTQ3NDAwMA"},"resourceType":"Observation","status":"final","subject":{"reference":"Patient/000b3ffb-bdb1-4ea6-85d6-1a2147570beb"},"valueQuantity":{"code":"{score}","system":"http://unitsofmeasure.org","unit":"{score}","value":1.0695454473608859}}},{"resource":{"category":[{"coding":[{"code":"laboratory","display":"laboratory","system":"http://hl7.org/fhir/observation-category"}]}],"code":{"coding":[{"code":"6299-2","display":"Urea Nitrogen","system":"http://loinc.org"}],"text":"Urea Nitrogen"},"context":{"reference":"Encounter/fc9b3a0b-7522-42fd-a97e-0fdf5d422d1a"},"effectiveDateTime":"2018-07-10T06:56:33-04:00","id":"4d0e4394-6738-4324-a7e5-1f52cbfbb1d4","issued":"2018-07-10T06:56:33.117-04:00","meta":{"lastUpdated":"2019-04-09T10:23:34.287024+00:00","versionId":"MTU1NDgwNTQxNDI4NzAyNDAwMA"},"resourceType":"Observation","status":"final","subject":{"reference":"Patient/000b3ffb-bdb1-4ea6-85d6-1a2147570beb"},"valueQuantity":{"code":"mg/dL","system":"http://unitsofmeasure.org","unit":"mg/dL","value":13.329435333015471}}},{"resource":{"category":[{"coding":[{"code":"vital-signs","display":"vital-signs","system":"http://hl7.org/fhir/observation-category"}]}],"code":{"coding":[{"code":"8302-2","display":"Body Height","system":"http://loinc.org"}],"text":"Body Height"},"context":{"reference":"Encounter/405c34e1-af6a-43c8-977d-c84ff064c24d"},"effectiveDateTime":"2017-07-04T06:56:33-04:00","id":"4eeca3b5-32d2-4c2f-9e79-285ee065744d","issued":"2017-07-04T06:56:33.117-04:00","meta":{"lastUpdated":"2019-04-09T10:23:33.278431+00:00","versionId":"MTU1NDgwNTQxMzI3ODQzMTAwMA"},"resourceType":"Observation","status":"final","subject":{"reference":"Patient/000b3ffb-bdb1-4ea6-85d6-1a2147570beb"},"valueQuantity":{"code":"cm","system":"http://unitsofmeasure.org","unit":"cm","value":149.63728988734977}}},{"resource":{"category":[{"coding":[{"code":"laboratory","display":"laboratory","system":"http://hl7.org/fhir/observation-category"}]}],"code":{"coding":[{"code":"2339-0","display":"Glucose","system":"http://loinc.org"}],"text":"Glucose"},"context":{"reference":"Encounter/405c34e1-af6a-43c8-977d-c84ff064c24d"},"effectiveDateTime":"2017-07-04T06:56:33-04:00","id":"53990983-6b60-4535-b129-1b1e465ab4f6","issued":"2017-07-04T06:56:33.117-04:00","meta":{"lastUpdated":"2019-04-09T10:23:33.278432+00:00","versionId":"MTU1NDgwNTQxMzI3ODQzMjAwMA"},"resourceType":"Observation","status":"final","subject":{"reference":"Patient/000b3ffb-bdb1-4ea6-85d6-1a2147570beb"},"valueQuantity":{"code":"mg/dL","system":"http://unitsofmeasure.org","unit":"mg/dL","value":88.89859893436947}}},{"resource":{"category":[{"coding":[{"code":"laboratory","display":"laboratory","system":"http://hl7.org/fhir/observation-category"}]}],"code":{"coding":[{"code":"6298-4","display":"Potassium","system":"http://loinc.org"}],"text":"Potassium"},"context":{"reference":"Encounter/f57f0265-31c9-4685-adcc-1be7b45b715b"},"effectiveDateTime":"2011-11-01T06:56:33-04:00","id":"542e5ced-ec69-42cb-aa91-7e4831cd99c8","issued":"2011-11-01T06:56:33.117-04:00","meta":{"lastUpdated":"2019-04-09T10:23:27.899473+00:00","versionId":"MTU1NDgwNTQwNzg5OTQ3MzAwMA"},"resourceType":"Observation","status":"final","subject":{"reference":"Patient/000b3ffb-bdb1-4ea6-85d6-1a2147570beb"},"valueQuantity":{"code":"mmol/L","system":"http://unitsofmeasure.org","unit":"mmol/L","value":5.032693838621857}}},{"resource":{"category":[{"coding":[{"code":"laboratory","display":"laboratory","system":"http://hl7.org/fhir/observation-category"}]}],"code":{"coding":[{"code":"38483-4","display":"Creatinine","system":"http://loinc.org"}],"text":"Creatinine"},"context":{"reference":"Encounter/cc078a27-084a-451c-aa00-f0b7e16b010f"},"effectiveDateTime":"2014-11-18T05:56:33-05:00","id":"54a0b078-2587-400f-8e14-73da86b6a0a5","issued":"2014-11-18T05:56:33.117-05:00","meta":{"lastUpdated":"2019-04-09T10:23:30.207100+00:00","versionId":"MTU1NDgwNTQxMDIwNzEwMDAwMA"},"resourceType":"Observation","status":"final","subject":{"reference":"Patient/000b3ffb-bdb1-4ea6-85d6-1a2147570beb"},"valueQuantity":{"code":"mg/dL","system":"http://unitsofmeasure.org","unit":"mg/dL","value":0.8015651858562954}}},{"resource":{"category":[{"coding":[{"code":"vital-signs","display":"vital-signs","system":"http://hl7.org/fhir/observation-category"}]}],"code":{"coding":[{"code":"29463-7","display":"Body Weight","system":"http://loinc.org"}],"text":"Body Weight"},"context":{"reference":"Encounter/a31e0c75-b8b4-4bf1-be79-b15754be6d5c"},"effectiveDateTime":"2016-06-28T06:56:33-04:00","id":"555cb240-e630-4380-8e43-2f5743f041d3","issued":"2016-06-28T06:56:33.117-04:00","meta":{"lastUpdated":"2019-04-09T10:23:32.248538+00:00","versionId":"MTU1NDgwNTQxMjI0ODUzODAwMA"},"resourceType":"Observation","status":"final","subject":{"reference":"Patient/000b3ffb-bdb1-4ea6-85d6-1a2147570beb"},"valueQuantity":{"code":"kg","system":"http://unitsofmeasure.org","unit":"kg","value":89.84626854518332}}},{"resource":{"category":[{"coding":[{"code":"laboratory","display":"laboratory","system":"http://hl7.org/fhir/observation-category"}]}],"code":{"coding":[{"code":"32623-1","display":"Platelet mean volume [Entitic volume] in Blood by Automated count","system":"http://loinc.org"}],"text":"Platelet mean volume [Entitic volume] in Blood by Automated count"},"context":{"reference":"Encounter/aa6409ed-2cdc-4614-adcb-b56829085731"},"effectiveDateTime":"2009-10-20T06:56:33-04:00","id":"55e3af10-6e7a-46cb-ba80-13b54e624467","issued":"2009-10-20T06:56:33.117-04:00","meta":{"lastUpdated":"2019-04-09T10:23:25.876261+00:00","versionId":"MTU1NDgwNTQwNTg3NjI2MTAwMA"},"resourceType":"Observation","status":"final","subject":{"reference":"Patient/000b3ffb-bdb1-4ea6-85d6-1a2147570beb"},"valueQuantity":{"code":"fL","system":"http://unitsofmeasure.org","unit":"fL","value":10.61977866409368}}},{"resource":{"category":[{"coding":[{"code":"survey","display":"survey","system":"http://hl7.org/fhir/observation-category"}]}],"code":{"coding":[{"code":"72166-2","display":"Tobacco smoking status NHIS","system":"http://loinc.org"}],"text":"Tobacco smoking status NHIS"},"context":{"reference":"Encounter/65d654ba-906b-45fe-be11-b813fc53ba62"},"effectiveDateTime":"2013-11-12T05:56:33-05:00","id":"56961d05-947b-4b7d-843b-9b8b97e73629","issued":"2013-11-12T05:56:33.117-05:00","meta":{"lastUpdated":"2019-04-09T10:23:29.031980+00:00","versionId":"MTU1NDgwNTQwOTAzMTk4MDAwMA"},"resourceType":"Observation","status":"final","subject":{"reference":"Patient/000b3ffb-bdb1-4ea6-85d6-1a2147570beb"},"valueCodeableConcept":{"coding":[{"code":"266919005","display":"Never smoker","system":"http://snomed.info/sct"}],"text":"Never smoker"}}},{"resource":{"category":[{"coding":[{"code":"laboratory","display":"laboratory","system":"http://hl7.org/fhir/observation-category"}]}],"code":{"coding":[{"code":"2093-3","display":"Total Cholesterol","system":"http://loinc.org"}],"text":"Total Cholesterol"},"context":{"reference":"Encounter/fc9b3a0b-7522-42fd-a97e-0fdf5d422d1a"},"effectiveDateTime":"2018-07-10T06:56:33-04:00","id":"57579ba8-08ec-491f-9541-7a6bd9e3e696","issued":"2018-07-10T06:56:33.117-04:00","meta":{"lastUpdated":"2019-04-09T10:23:34.287026+00:00","versionId":"MTU1NDgwNTQxNDI4NzAyNjAwMA"},"resourceType":"Observation","status":"final","subject":{"reference":"Patient/000b3ffb-bdb1-4ea6-85d6-1a2147570beb"},"valueQuantity":{"code":"mg/dL","system":"http://unitsofmeasure.org","unit":"mg/dL","value":222.54604102702612}}},{"resource":{"category":[{"coding":[{"code":"laboratory","display":"laboratory","system":"http://hl7.org/fhir/observation-category"}]}],"code":{"coding":[{"code":"21000-5","display":"Erythrocyte distribution width [Entitic volume] by Automated count","system":"http://loinc.org"}],"text":"Erythrocyte distribution width [Entitic volume] by Automated count"},"context":{"reference":"Encounter/cc078a27-084a-451c-aa00-f0b7e16b010f"},"effectiveDateTime":"2014-11-18T05:56:33-05:00","id":"585cc194-8dd1-4a6f-9918-dcfe9e9803fb","issued":"2014-11-18T05:56:33.117-05:00","meta":{"lastUpdated":"2019-04-09T10:23:31.209374+00:00","versionId":"MTU1NDgwNTQxMTIwOTM3NDAwMA"},"resourceType":"Observation","status":"final","subject":{"reference":"Patient/000b3ffb-bdb1-4ea6-85d6-1a2147570beb"},"valueQuantity":{"code":"fL","system":"http://unitsofmeasure.org","unit":"fL","value":43.68175644877154}}},{"resource":{"category":[{"coding":[{"code":"laboratory","display":"laboratory","system":"http://hl7.org/fhir/observation-category"}]}],"code":{"coding":[{"code":"2339-0","display":"Glucose","system":"http://loinc.org"}],"text":"Glucose"},"context":{"reference":"Encounter/dfffcf0c-d927-4ece-8563-c88643b65733"},"effectiveDateTime":"2012-11-06T05:56:33-05:00","id":"58937c0a-aba6-42d7-a904-0969a526d563","issued":"2012-11-06T05:56:33.117-05:00","meta":{"lastUpdated":"2019-04-09T10:23:27.897266+00:00","versionId":"MTU1NDgwNTQwNzg5NzI2NjAwMA"},"resourceType":"Observation","status":"final","subject":{"reference":"Patient/000b3ffb-bdb1-4ea6-85d6-1a2147570beb"},"valueQuantity":{"code":"mg/dL","system":"http://unitsofmeasure.org","unit":"mg/dL","value":96.19137636340102}}},{"resource":{"category":[{"coding":[{"code":"vital-signs","display":"vital-signs","system":"http://hl7.org/fhir/observation-category"}]}],"code":{"coding":[{"code":"39156-5","display":"Body Mass Index","system":"http://loinc.org"}],"text":"Body Mass Index"},"context":{"reference":"Encounter/405c34e1-af6a-43c8-977d-c84ff064c24d"},"effectiveDateTime":"2017-07-04T06:56:33-04:00","id":"59bd980c-694e-4d3f-a797-e7b9f3429eb6","issued":"2017-07-04T06:56:33.117-04:00","meta":{"lastUpdated":"2019-04-09T10:23:33.272015+00:00","versionId":"MTU1NDgwNTQxMzI3MjAxNTAwMA"},"resourceType":"Observation","status":"final","subject":{"reference":"Patient/000b3ffb-bdb1-4ea6-85d6-1a2147570beb"},"valueQuantity":{"code":"kg/m2","system":"http://unitsofmeasure.org","unit":"kg/m2","value":39.45007983839623}}},{"resource":{"category":[{"coding":[{"code":"laboratory","display":"laboratory","system":"http://hl7.org/fhir/observation-category"}]}],"code":{"coding":[{"code":"2085-9","display":"High Density Lipoprotein Cholesterol","system":"http://loinc.org"}],"text":"High Density Lipoprotein Cholesterol"},"context":{"reference":"Encounter/aa6409ed-2cdc-4614-adcb-b56829085731"},"effectiveDateTime":"2009-10-20T06:56:33-04:00","id":"5b4acce2-0b60-427f-b273-086d2824a66a","issued":"2009-10-20T06:56:33.117-04:00","meta":{"lastUpdated":"2019-04-09T10:23:25.867081+00:00","versionId":"MTU1NDgwNTQwNTg2NzA4MTAwMA"},"resourceType":"Observation","status":"final","subject":{"reference":"Patient/000b3ffb-bdb1-4ea6-85d6-1a2147570beb"},"valueQuantity":{"code":"mg/dL","system":"http://unitsofmeasure.org","unit":"mg/dL","value":78.26791446048986}}},{"resource":{"category":[{"coding":[{"code":"laboratory","display":"laboratory","system":"http://hl7.org/fhir/observation-category"}]}],"code":{"coding":[{"code":"6298-4","display":"Potassium","system":"http://loinc.org"}],"text":"Potassium"},"context":{"reference":"Encounter/83904028-4d8e-42eb-bf42-ad5454940766"},"effectiveDateTime":"2010-10-26T06:56:33-04:00","id":"5c79bd6b-5619-40f3-b301-b499b1820cf0","issued":"2010-10-26T06:56:33.117-04:00","meta":{"lastUpdated":"2019-04-09T10:23:26.885217+00:00","versionId":"MTU1NDgwNTQwNjg4NTIxNzAwMA"},"resourceType":"Observation","status":"final","subject":{"reference":"Patient/000b3ffb-bdb1-4ea6-85d6-1a2147570beb"},"valueQuantity":{"code":"mmol/L","system":"http://unitsofmeasure.org","unit":"mmol/L","value":4.366322875612703}}},{"resource":{"category":[{"coding":[{"code":"laboratory","display":"laboratory","system":"http://hl7.org/fhir/observation-category"}]}],"code":{"coding":[{"code":"20565-8","display":"Carbon Dioxide","system":"http://loinc.org"}],"text":"Carbon Dioxide"},"context":{"reference":"Encounter/405c34e1-af6a-43c8-977d-c84ff064c24d"},"effectiveDateTime":"2017-07-04T06:56:33-04:00","id":"5f5fc615-a9fa-49cf-9080-ce48262279a9","issued":"2017-07-04T06:56:33.117-04:00","meta":{"lastUpdated":"2019-04-09T10:23:33.271250+00:00","versionId":"MTU1NDgwNTQxMzI3MTI1MDAwMA"},"resourceType":"Observation","status":"final","subject":{"reference":"Patient/000b3ffb-bdb1-4ea6-85d6-1a2147570beb"},"valueQuantity":{"code":"mmol/L","system":"http://unitsofmeasure.org","unit":"mmol/L","value":28.110096625955876}}},{"resource":{"category":[{"coding":[{"code":"laboratory","display":"laboratory","system":"http://hl7.org/fhir/observation-category"}]}],"code":{"coding":[{"code":"2571-8","display":"Triglycerides","system":"http://loinc.org"}],"text":"Triglycerides"},"context":{"reference":"Encounter/a31e0c75-b8b4-4bf1-be79-b15754be6d5c"},"effectiveDateTime":"2016-06-28T06:56:33-04:00","id":"6384c3f4-c3c6-453a-87a7-7316a50024f2","issued":"2016-06-28T06:56:33.117-04:00","meta":{"lastUpdated":"2019-04-09T10:23:32.236433+00:00","versionId":"MTU1NDgwNTQxMjIzNjQzMzAwMA"},"resourceType":"Observation","status":"final","subject":{"reference":"Patient/000b3ffb-bdb1-4ea6-85d6-1a2147570beb"},"valueQuantity":{"code":"mg/dL","system":"http://unitsofmeasure.org","unit":"mg/dL","value":147.70297567335876}}},{"resource":{"category":[{"coding":[{"code":"vital-signs","display":"vital-signs","system":"http://hl7.org/fhir/observation-category"}]}],"code":{"coding":[{"code":"39156-5","display":"Body Mass Index","system":"http://loinc.org"}],"text":"Body Mass Index"},"context":{"reference":"Encounter/83904028-4d8e-42eb-bf42-ad5454940766"},"effectiveDateTime":"2010-10-26T06:56:33-04:00","id":"655e2be1-7b48-45c9-9457-6406d5a34e14","issued":"2010-10-26T06:56:33.117-04:00","meta":{"lastUpdated":"2019-04-09T10:23:26.885219+00:00","versionId":"MTU1NDgwNTQwNjg4NTIxOTAwMA"},"resourceType":"Observation","status":"final","subject":{"reference":"Patient/000b3ffb-bdb1-4ea6-85d6-1a2147570beb"},"valueQuantity":{"code":"kg/m2","system":"http://unitsofmeasure.org","unit":"kg/m2","value":44.08801595525846}}},{"resource":{"category":[{"coding":[{"code":"vital-signs","display":"vital-signs","system":"http://hl7.org/fhir/observation-category"}]}],"code":{"coding":[{"code":"29463-7","display":"Body Weight","system":"http://loinc.org"}],"text":"Body Weight"},"context":{"reference":"Encounter/dfffcf0c-d927-4ece-8563-c88643b65733"},"effectiveDateTime":"2012-11-06T05:56:33-05:00","id":"655e7512-8d57-473f-abdc-f75af3171270","issued":"2012-11-06T05:56:33.117-05:00","meta":{"lastUpdated":"2019-04-09T10:23:27.897152+00:00","versionId":"MTU1NDgwNTQwNzg5NzE1MjAwMA"},"resourceType":"Observation","status":"final","subject":{"reference":"Patient/000b3ffb-bdb1-4ea6-85d6-1a2147570beb"},"valueQuantity":{"code":"kg","system":"http://unitsofmeasure.org","unit":"kg","value":95.7827225569394}}},{"resource":{"category":[{"coding":[{"code":"laboratory","display":"laboratory","system":"http://hl7.org/fhir/observation-category"}]}],"code":{"coding":[{"code":"6298-4","display":"Potassium","system":"http://loinc.org"}],"text":"Potassium"},"context":{"reference":"Encounter/405c34e1-af6a-43c8-977d-c84ff064c24d"},"effectiveDateTime":"2017-07-04T06:56:33-04:00","id":"6af1a661-0585-47fa-864c-745d7bea80d4","issued":"2017-07-04T06:56:33.117-04:00","meta":{"lastUpdated":"2019-04-09T10:23:33.278027+00:00","versionId":"MTU1NDgwNTQxMzI3ODAyNzAwMA"},"resourceType":"Observation","status":"final","subject":{"reference":"Patient/000b3ffb-bdb1-4ea6-85d6-1a2147570beb"},"valueQuantity":{"code":"mmol/L","system":"http://unitsofmeasure.org","unit":"mmol/L","value":5.19413965078054}}},{"resource":{"category":[{"coding":[{"code":"laboratory","display":"laboratory","system":"http://hl7.org/fhir/observation-category"}]}],"code":{"coding":[{"code":"2069-3","display":"Chloride","system":"http://loinc.org"}],"text":"Chloride"},"context":{"reference":"Encounter/fc9b3a0b-7522-42fd-a97e-0fdf5d422d1a"},"effectiveDateTime":"2018-07-10T06:56:33-04:00","id":"6b514816-4f02-40a1-983e-c31f4892c2a2","issued":"2018-07-10T06:56:33.117-04:00","meta":{"lastUpdated":"2019-04-09T10:23:34.289195+00:00","versionId":"MTU1NDgwNTQxNDI4OTE5NTAwMA"},"resourceType":"Observation","status":"final","subject":{"reference":"Patient/000b3ffb-bdb1-4ea6-85d6-1a2147570beb"},"valueQuantity":{"code":"mmol/L","system":"http://unitsofmeasure.org","unit":"mmol/L","value":106.73505887300836}}},{"resource":{"category":[{"coding":[{"code":"vital-signs","display":"vital-signs","system":"http://hl7.org/fhir/observation-category"}]}],"code":{"coding":[{"code":"8302-2","display":"Body Height","system":"http://loinc.org"}],"text":"Body Height"},"context":{"reference":"Encounter/a31e0c75-b8b4-4bf1-be79-b15754be6d5c"},"effectiveDateTime":"2016-06-28T06:56:33-04:00","id":"6c044cbb-5919-448a-b69c-8c44928e7e49","issued":"2016-06-28T06:56:33.117-04:00","meta":{"lastUpdated":"2019-04-09T10:23:32.232212+00:00","versionId":"MTU1NDgwNTQxMjIzMjIxMjAwMA"},"resourceType":"Observation","status":"final","subject":{"reference":"Patient/000b3ffb-bdb1-4ea6-85d6-1a2147570beb"},"valueQuantity":{"code":"cm","system":"http://unitsofmeasure.org","unit":"cm","value":149.63728988734977}}},{"resource":{"category":[{"coding":[{"code":"vital-signs","display":"vital-signs","system":"http://hl7.org/fhir/observation-category"}]}],"code":{"coding":[{"code":"29463-7","display":"Body Weight","system":"http://loinc.org"}],"text":"Body Weight"},"context":{"reference":"Encounter/f57f0265-31c9-4685-adcc-1be7b45b715b"},"effectiveDateTime":"2011-11-01T06:56:33-04:00","id":"6e2434ab-460a-4d42-8b7b-c34c14f339a4","issued":"2011-11-01T06:56:33.117-04:00","meta":{"lastUpdated":"2019-04-09T10:23:27.902950+00:00","versionId":"MTU1NDgwNTQwNzkwMjk1MDAwMA"},"resourceType":"Observation","status":"final","subject":{"reference":"Patient/000b3ffb-bdb1-4ea6-85d6-1a2147570beb"},"valueQuantity":{"code":"kg","system":"http://unitsofmeasure.org","unit":"kg","value":97.43000010083675}}},{"resource":{"category":[{"coding":[{"code":"laboratory","display":"laboratory","system":"http://hl7.org/fhir/observation-category"}]}],"code":{"coding":[{"code":"10834-0","display":"Globulin [Mass/volume] in Serum by calculation","system":"http://loinc.org"}],"text":"Globulin [Mass/volume] in Serum by calculation"},"context":{"reference":"Encounter/fc9b3a0b-7522-42fd-a97e-0fdf5d422d1a"},"effectiveDateTime":"2018-07-10T06:56:33-04:00","id":"6f4c6118-850d-4dab-90c4-826bafa69167","issued":"2018-07-10T06:56:33.117-04:00","meta":{"lastUpdated":"2019-04-09T10:23:35.295164+00:00","versionId":"MTU1NDgwNTQxNTI5NTE2NDAwMA"},"resourceType":"Observation","status":"final","subject":{"reference":"Patient/000b3ffb-bdb1-4ea6-85d6-1a2147570beb"},"valueQuantity":{"code":"g/L","system":"http://unitsofmeasure.org","unit":"g/L","value":2.754895789422437}}},{"resource":{"category":[{"coding":[{"code":"laboratory","display":"laboratory","system":"http://hl7.org/fhir/observation-category"}]}],"code":{"coding":[{"code":"6299-2","display":"Urea Nitrogen","system":"http://loinc.org"}],"text":"Urea Nitrogen"},"context":{"reference":"Encounter/a31e0c75-b8b4-4bf1-be79-b15754be6d5c"},"effectiveDateTime":"2016-06-28T06:56:33-04:00","id":"707773fa-c21d-49ad-988c-0c8f8d3da3ae","issued":"2016-06-28T06:56:33.117-04:00","meta":{"lastUpdated":"2019-04-09T10:23:32.245854+00:00","versionId":"MTU1NDgwNTQxMjI0NTg1NDAwMA"},"resourceType":"Observation","status":"final","subject":{"reference":"Patient/000b3ffb-bdb1-4ea6-85d6-1a2147570beb"},"valueQuantity":{"code":"mg/dL","system":"http://unitsofmeasure.org","unit":"mg/dL","value":17.17813284376215}}}],"link":[{"url":"https://syntheticmass.mitre.org/v1/fhir/Patient/000b3ffb-bdb1-4ea6-85d6-1a2147570beb/$everything?_count=100&page_token=CoIBcHJvamVjdHMvc3ludGhlYS9sb2NhdGlvbnMvdXMtY2VudHJhbDEvZGF0YXNldHMvMjAxOTAyL2ZoaXJTdG9yZXMvc3ludGhldGljLW1hc3MvZmhpci9QYXRpZW50LzAwMGIzZmZiLWJkYjEtNGVhNi04NWQ2LTFhMjE0NzU3MGJlYg%3D%3D","relation":"previous"},{"url":"https://syntheticmass.mitre.org/v1/fhir/Patient/000b3ffb-bdb1-4ea6-85d6-1a2147570beb/$everything?_count=100&page_token=CoIBcHJvamVjdHMvc3ludGhlYS9sb2NhdGlvbnMvdXMtY2VudHJhbDEvZGF0YXNldHMvMjAxOTAyL2ZoaXJTdG9yZXMvc3ludGhldGljLW1hc3MvZmhpci9QYXRpZW50LzAwMGIzZmZiLWJkYjEtNGVhNi04NWQ2LTFhMjE0NzU3MGJlYiDIAQ%3D%3D","relation":"next"}],"total":345}
