{"resourceType":"Bundle","type":"searchset","entry":[{"resource":{"abatementDateTime":"2013-04-25T23:28:14-04:00","assertedDate":"2013-04-11T23:28:14-04:00","clinicalStatus":"resolved","code":{"coding":[{"code":"10509002","display":"Acute bronchitis (disorder)","system":"http://snomed.info/sct"}],"text":"Acute bronchitis (disorder)"},"context":{"reference":"Encounter/fdb0ecdf-c023-4cfe-b874-4bf5369607ee"},"id":"b1e3f689-747b-4c29-a941-5abbf70ca5a7","meta":{"lastUpdated":"2019-04-09T09:55:22.595566+00:00","versionId":"MTU1NDgwMzcyMjU5NTU2NjAwMA"},"onsetDateTime":"2013-04-11T23:28:14-04:00","resourceType":"Condition","subject":{"reference":"Patient/00d48a80-ce29-4d28-a8d1-f41e705aee29"},"verificationStatus":"confirmed"}},{"resource":{"assertedDate":"1990-11-05T22:28:14-05:00","clinicalStatus":"active","code":{"coding":[{"code":"124171000119105","display":"Chronic intractable migraine without aura","system":"http://snomed.info/sct"}],"text":"Chronic intractable migraine without aura"},"context":{"reference":"Encounter/f3ce3bfe-dd8f-4deb-b16a-4e4ed58a7f80"},"id":"db12949d-6334-4393-a712-31542dd83acf","meta":{"lastUpdated":"2019-04-09T09:55:15.393007+00:00","versionId":"MTU1NDgwMzcxNTM5MzAwNzAwMA"},"onsetDateTime":"1990-11-05T22:28:14-05:00","resourceType":"Condition","subject":{"reference":"Patient/00d48a80-ce29-4d28-a8d1-f41e705aee29"},"verificationStatus":"confirmed"}},{"resource":{"assertedDate":"1988-09-24T23:28:14-04:00","clinicalStatus":"active","code":{"coding":[{"code":"40055000","display":"Chronic sinusitis (disorder)","system":"http://snomed.info/sct"}],"text":"Chronic sinusitis (disorder)"},"context":{"reference":"Encounter/d89beb10-3df8-42d2-bdef-7b13c9666c3b"},"id":"e07539e3-37c5-46d2-9675-a756b65f332a","meta":{"lastUpdated":"2019-04-09T09:55:14.367263+00:00","versionId":"MTU1NDgwMzcxNDM2NzI2MzAwMA"},"onsetDateTime":"1988-09-24T23:28:14-04:00","resourceType":"Condition","subject":{"reference":"Patient/00d48a80-ce29-4d28-a8d1-f41e705aee29"},"verificationStatus":"confirmed"}},{"resource":{"assertedDate":"1990-05-18T23:28:14-04:00","clinicalStatus":"active","code":{"coding":[{"code":"196416002","display":"Impacted molars","system":"http://snomed.info/sct"}],"text":"Impacted molars"},"context":{"reference":"Encounter/b490914d-4e4b-4fbc-8ffb-96d4e9692223"},"id":"f6c05a28-8663-462b-a68a-af4b637dcb75","meta":{"lastUpdated":"2019-04-09T09:55:14.374938+00:00","versionId":"MTU1NDgwMzcxNDM3NDkzODAwMA"},"onsetDateTime":"1990-05-18T23:28:14-04:00","resourceType":"Condition","subject":{"reference":"Patient/00d48a80-ce29-4d28-a8d1-f41e705aee29"},"verificationStatus":"confirmed"}},{"resource":{"code":{"coding":[{"code":"58410-2","display":"Complete blood count (hemogram) panel - Blood by Automated count","system":"http://loinc.org"}],"text":"Complete blood count (hemogram) panel - Blood by Automated count"},"context":{"reference":"Encounter/7ed0f59e-b539-4147-b93e-3ae23392b58c"},"effectiveDateTime":"2012-10-11T23:28:14-04:00","id":"14354fc9-5fc6-438f-b0d9-96aac3125840","issued":"2012-10-11T23:28:14.771-04:00","meta":{"lastUpdated":"2019-04-09T09:55:22.594516+00:00","versionId":"MTU1NDgwMzcyMjU5NDUxNjAwMA"},"resourceType":"DiagnosticReport","result":[{"display":"Leukocytes [#/volume] in Blood by Automated count","reference":"Observation/ba02ae67-71c7-4fcd-ba0e-88c4c73b1962"},{"display":"Erythrocytes [#/volume] in Blood by Automated count","reference":"Observation/f5a47615-aea9-4eec-a628-f6c1a1b5e6cd"},{"display":"Hemoglobin [Mass/volume] in Blood","reference":"Observation/a7319bbc-0dac-4cea-9d7b-a98ea1339cd1"},{"display":"Hematocrit [Volume Fraction] of Blood by Automated count","reference":"Observation/b45dd73e-ed5f-4819-9666-1cedeeac9874"},{"display":"MCV [Entitic volume] by Automated count","reference":"Observation/34d1e42a-78b3-4baa-b3e6-75398a8ed27c"},{"display":"MCH [Entitic mass] by Automated count","reference":"Observation/d9cce131-f490-470c-aac3-8e24184f1a31"},{"display":"MCHC [Mass/volume] by Automated count","reference":"Observation/ae230c90-0ae9-4716-b2de-aed60553d122"},{"display":"Erythrocyte distribution width [Entitic volume] by Automated count","reference":"Observation/4b5f7312-4c52-425d-b577-adc1ae15f2c7"},{"display":"Platelets [#/volume] in Blood by Automated count","reference":"Observation/9100762c-bc07-4c14-95dd-b5892f3632b1"},{"display":"Platelet distribution width [Entitic volume] in Blood by Automated count","reference":"Observation/7176aecb-1c4c-4260-bdaa-0209e55664d0"},{"display":"Platelet mean volume [Entitic volume] in Blood by Automated count","reference":"Observation/31dde4ce-fdd7-4cc4-afef-c7f82148be9b"}],"status":"final","subject":{"reference":"Patient/00d48a80-ce29-4d28-a8d1-f41e705aee29"}}},{"resource":{"code":{"coding":[{"code":"57698-3","display":"Lipid Panel","system":"http://loinc.org"}],"text":"Lipid Panel"},"context":{"reference":"Encounter/17bfd904-3584-4231-99e5-406abb219f9c"},"effectiveDateTime":"2008-09-18T23:28:14-04:00","id":"4b37dca8-5a06-4289-ad7a-d85825575268","issued":"2008-09-18T23:28:14.771-04:00","meta":{"lastUpdated":"2019-04-09T09:55:19.529474+00:00","versionId":"MTU1NDgwMzcxOTUyOTQ3NDAwMA"},"resourceType":"DiagnosticReport","result":[{"display":"Total Cholesterol","reference":"Observation/bc4493f4-471a-4a11-af5a-986227aab45a"},{"display":"Triglycerides","reference":"Observation/badfed2d-4e37-435e-bef3-95c3b9a5395c"},{"display":"Low Density Lipoprotein Cholesterol","reference":"Observation/e4605a6b-e1f6-45c8-9996-fb18d38f5655"},{"display":"High Density Lipoprotein Cholesterol","reference":"Observation/3b3d684c-e260-4046-bbee-f7b0aa2cb999"}],"status":"final","subject":{"reference":"Patient/00d48a80-ce29-4d28-a8d1-f41e705aee29"}}},{"resource":{"code":{"coding":[{"code":"57698-3","display":"Lipid Panel","system":"http://loinc.org"}],"text":"Lipid Panel"},"context":{"reference":"Encounter/6a639d30-9f66-480b-a558-84919ff6338a"},"effectiveDateTime":"2011-10-06T23:28:14-04:00","id":"516aeee5-a823-40ad-b8d7-98915c7f6b11","issued":"2011-10-06T23:28:14.771-04:00","meta":{"lastUpdated":"2019-04-09T09:55:21.571072+00:00","versionId":"MTU1NDgwMzcyMTU3MTA3MjAwMA"},"resourceType":"DiagnosticReport","result":[{"display":"Total Cholesterol","reference":"Observation/656e5340-dd26-4afe-9fe4-8b889f8e8557"},{"display":"Triglycerides","reference":"Observation/29337095-09d1-4a9c-a646-b4902760337a"},{"display":"Low Density Lipoprotein Cholesterol","reference":"Observation/8f1c8d6d-7533-49f2-b02f-80c9ce8e33b3"},{"display":"High Density Lipoprotein Cholesterol","reference":"Observation/13a22ee5-3092-4f91-a4da-c306ee399ae3"}],"status":"final","subject":{"reference":"Patient/00d48a80-ce29-4d28-a8d1-f41e705aee29"}}},{"resource":{"code":{"coding":[{"code":"69409-1","display":"U.S. standard certificate of death - 2003 revision","system":"http://loinc.org"}],"text":"U.S. standard certificate of death - 2003 revision"},"context":{"reference":"Encounter/7834a48c-84f1-49f1-8528-5376d13ae713"},"effectiveDateTime":"2014-05-29T23:28:14-04:00","id":"599d6d5c-707f-4f50-ac73-0b210f831d6f","issued":"2014-05-29T23:28:14.771-04:00","meta":{"lastUpdated":"2019-04-09T09:55:23.581861+00:00","versionId":"MTU1NDgwMzcyMzU4MTg2MTAwMA"},"resourceType":"DiagnosticReport","result":[{"display":"Cause of Death [US Standard Certificate of Death]","reference":"Observation/0591e89e-c392-4d6c-bce8-2f0fd9ba4111"}],"status":"final","subject":{"reference":"Patient/00d48a80-ce29-4d28-a8d1-f41e705aee29"}}},{"resource":{"code":{"coding":[{"code":"58410-2","display":"Complete blood count (hemogram) panel - Blood by Automated count","system":"http://loinc.org"}],"text":"Complete blood count (hemogram) panel - Blood by Automated count"},"context":{"reference":"Encounter/c6418205-db26-4607-b481-ba59db41d165"},"effectiveDateTime":"2007-09-13T23:28:14-04:00","id":"c544d9f1-af5d-4602-a8d1-286388ed575b","issued":"2007-09-13T23:28:14.771-04:00","meta":{"lastUpdated":"2019-04-09T09:55:18.422654+00:00","versionId":"MTU1NDgwMzcxODQyMjY1NDAwMA"},"resourceType":"DiagnosticReport","result":[{"display":"Leukocytes [#/volume] in Blood by Automated count","reference":"Observation/3fd8e1be-9e27-4dc0-a827-10dcf1aabf48"},{"display":"Erythrocytes [#/volume] in Blood by Automated count","reference":"Observation/79187fb4-4d25-4a48-a24a-1c1c68b69376"},{"display":"Hemoglobin [Mass/volume] in Blood","reference":"Observation/de1e688d-a6f0-4526-ac26-89f0aa32b92b"},{"display":"Hematocrit [Volume Fraction] of Blood by Automated count","reference":"Observation/ff88e658-1596-4fd6-974e-4a0f48b3c9f3"},{"display":"MCV [Entitic volume] by Automated count","reference":"Observation/a562d556-83e6-4bb5-ac39-15382f1eed14"},{"display":"MCH [Entitic mass] by Automated count","reference":"Observation/283667f6-288c-40f7-bb11-96d9524b0fda"},{"display":"MCHC [Mass/volume] by Automated count","reference":"Observation/49cbfe32-b427-461b-8479-b6cbef950a51"},{"display":"Erythrocyte distribution width [Entitic volume] by Automated count","reference":"Observation/30d80453-47fa-48cf-b5c1-66feb671b6a4"},{"display":"Platelets [#/volume] in Blood by Automated count","reference":"Observation/8f3f116a-edc0-4cc8-902a-ae30d32c221b"},{"display":"Platelet distribution width [Entitic volume] in Blood by Automated count","reference":"Observation/5f846db4-acd6-4e92-be0d-81cd83a0c75a"},{"display":"Platelet mean volume [Entitic volume] in Blood by Automated count","reference":"Observation/34c0aab5-960d-4696-a2a7-237734db7a77"}],"status":"final","subject":{"reference":"Patient/00d48a80-ce29-4d28-a8d1-f41e705aee29"}}},{"resource":{"code":{"coding":[{"code":"57698-3","display":"Lipid Panel","system":"http://loinc.org"}],"text":"Lipid Panel"},"context":{"reference":"Encounter/1fc324e2-5ed4-4211-85ff-48a823a09da4"},"effectiveDateTime":"2005-04-14T23:28:14-04:00","id":"dec1694d-5817-4c00-a0bc-0231d23378de","issued":"2005-04-14T23:28:14.771-04:00","meta":{"lastUpdated":"2019-04-09T09:55:16.402333+00:00","versionId":"MTU1NDgwMzcxNjQwMjMzMzAwMA"},"resourceType":"DiagnosticReport","result":[{"display":"Total Cholesterol","reference":"Observation/bb50bc65-9163-4ed2-a33b-9c8ee9064e11"},{"display":"Triglycerides","reference":"Observation/a6e7b3d3-2bfe-4237-b00c-1167ee41cc12"},{"display":"Low Density Lipoprotein Cholesterol","reference":"Observation/25111d1c-4292-41d0-8a0f-41b8ce19eaa1"},{"display":"High Density Lipoprotein Cholesterol","reference":"Observation/67c12ebb-2919-4dbc-9053-9b9df47c5776"}],"status":"final","subject":{"reference":"Patient/00d48a80-ce29-4d28-a8d1-f41e705aee29"}}},{"resource":{"class":{"code":"outpatient"},"id":"00932633-4ebf-4262-ab13-577132ab093e","meta":{"lastUpdated":"2019-04-09T09:55:15.380083+00:00","versionId":"MTU1NDgwMzcxNTM4MDA4MzAwMA"},"participant":[{"individual":{"reference":"Practitioner/9c1e389b-2076-44ab-917f-7e80069ab8d8"}}],"period":{"end":"2004-07-07T23:43:14-04:00","start":"2004-07-07T23:28:14-04:00"},"resourceType":"Encounter","serviceProvider":{"reference":"Organization/fea46cf5-78cb-45ba-a53c-1889a8b8ee75"},"status":"finished","subject":{"reference":"Patient/00d48a80-ce29-4d28-a8d1-f41e705aee29"},"type":[{"coding":[{"code":"185347001","display":"Encounter for problem (procedure)","system":"http://snomed.info/sct"}],"text":"Encounter for problem (procedure)"}]}},{"resource":{"class":{"code":"WELLNESS"},"id":"04301fbd-2321-45c2-bdb9-7fca344f8912","meta":{"lastUpdated":"2019-04-09T09:55:15.378589+00:00","versionId":"MTU1NDgwMzcxNTM3ODU4OTAwMA"},"participant":[{"individual":{"reference":"Practitioner/9c1e389b-2076-44ab-917f-7e80069ab8d8"}}],"period":{"end":"2000-03-16T23:13:14-05:00","start":"2000-03-16T22:28:14-05:00"},"resourceType":"Encounter","serviceProvider":{"reference":"Organization/fea46cf5-78cb-45ba-a53c-1889a8b8ee75"},"status":"finished","subject":{"reference":"Patient/00d48a80-ce29-4d28-a8d1-f41e705aee29"},"type":[{"coding":[{"code":"185349003","display":"Encounter for check up (procedure)","system":"http://snomed.info/sct"}],"text":"Encounter for check up (procedure)"}]}},{"resource":{"class":{"code":"outpatient"},"id":"049a0473-98ac-4aaa-859d-3229fec6c4e5","meta":{"lastUpdated":"2019-04-09T09:55:16.410444+00:00","versionId":"MTU1NDgwMzcxNjQxMDQ0NDAwMA"},"participant":[{"individual":{"reference":"Practitioner/9c1e389b-2076-44ab-917f-7e80069ab8d8"}}],"period":{"end":"2006-05-15T23:43:14-04:00","start":"2006-05-15T23:28:14-04:00"},"resourceType":"Encounter","serviceProvider":{"reference":"Organization/fea46cf5-78cb-45ba-a53c-1889a8b8ee75"},"status":"finished","subject":{"reference":"Patient/00d48a80-ce29-4d28-a8d1-f41e705aee29"},"type":[{"coding":[{"code":"185347001","display":"Encounter for problem (procedure)","system":"http://snomed.info/sct"}],"text":"Encounter for problem (procedure)"}]}},{"resource":{"class":{"code":"outpatient"},"id":"06ddcd04-62bd-4b17-99e4-deb79dcc0bf9","meta":{"lastUpdated":"2019-04-09T09:55:17.411330+00:00","versionId":"MTU1NDgwMzcxNzQxMTMzMDAwMA"},"participant":[{"individual":{"reference":"Practitioner/9c1e389b-2076-44ab-917f-7e80069ab8d8"}}],"period":{"end":"2007-04-12T23:43:14-04:00","start":"2007-04-12T23:28:14-04:00"},"resourceType":"Encounter","serviceProvider":{"reference":"Organization/fea46cf5-78cb-45ba-a53c-1889a8b8ee75"},"status":"finished","subject":{"reference":"Patient/00d48a80-ce29-4d28-a8d1-f41e705aee29"},"type":[{"coding":[{"code":"185347001","display":"Encounter for problem (procedure)","system":"http://snomed.info/sct"}],"text":"Encounter for problem (procedure)"}]}},{"resource":{"class":{"code":"WELLNESS"},"id":"10460f4f-b844-44d5-95cd-48a7b7b8d806","meta":{"lastUpdated":"2019-04-09T09:55:14.368642+00:00","versionId":"MTU1NDgwMzcxNDM2ODY0MjAwMA"},"participant":[{"individual":{"reference":"Practitioner/9c1e389b-2076-44ab-917f-7e80069ab8d8"}}],"period":{"end":"1958-05-15T23:58:14-04:00","start":"1958-05-15T23:28:14-04:00"},"resourceType":"Encounter","serviceProvider":{"reference":"Organization/fea46cf5-78cb-45ba-a53c-1889a8b8ee75"},"status":"finished","subject":{"reference":"Patient/00d48a80-ce29-4d28-a8d1-f41e705aee29"},"type":[{"coding":[{"code":"185349003","display":"Encounter for check up (procedure)","system":"http://snomed.info/sct"}],"text":"Encounter for check up (procedure)"}]}},{"resource":{"class":{"code":"outpatient"},"id":"109a2fc9-7293-470f-8eec-0dfe5ffe902a","meta":{"lastUpdated":"2019-04-09T09:55:21.559920+00:00","versionId":"MTU1NDgwMzcyMTU1OTkyMDAwMA"},"participant":[{"individual":{"reference":"Practitioner/9c1e389b-2076-44ab-917f-7e80069ab8d8"}}],"period":{"end":"2012-05-14T23:43:14-04:00","start":"2012-05-14T23:28:14-04:00"},"resourceType":"Encounter","serviceProvider":{"reference":"Organization/fea46cf5-78cb-45ba-a53c-1889a8b8ee75"},"status":"finished","subject":{"reference":"Patient/00d48a80-ce29-4d28-a8d1-f41e705aee29"},"type":[{"coding":[{"code":"185347001","display":"Encounter for problem (procedure)","system":"http://snomed.info/sct"}],"text":"Encounter for problem (procedure)"}]}},{"resource":{"class":{"code":"inpatient"},"id":"117535aa-bb96-41f5-8274-f9d8aa35faa0","meta":{"lastUpdated":"2019-04-09T09:55:17.402364+00:00","versionId":"MTU1NDgwMzcxNzQwMjM2NDAwMA"},"participant":[{"individual":{"reference":"Practitioner/9c1e389b-2076-44ab-917f-7e80069ab8d8"}}],"period":{"end":"2006-09-09T23:28:14-04:00","start":"2006-09-08T23:28:14-04:00"},"resourceType":"Encounter","serviceProvider":{"reference":"Organization/fea46cf5-78cb-45ba-a53c-1889a8b8ee75"},"status":"finished","subject":{"reference":"Patient/00d48a80-ce29-4d28-a8d1-f41e705aee29"},"type":[{"coding":[{"code":"56876005","display":"Drug rehabilitation and detoxification","system":"http://snomed.info/sct"}],"text":"Drug rehabilitation and detoxification"}]}},{"resource":{"class":{"code":"outpatient"},"id":"13f42127-98b4-48a4-8ae3-33c69175b86b","meta":{"lastUpdated":"2019-04-09T09:55:15.387403+00:00","versionId":"MTU1NDgwMzcxNTM4NzQwMzAwMA"},"participant":[{"individual":{"reference":"Practitioner/9c1e389b-2076-44ab-917f-7e80069ab8d8"}}],"period":{"end":"2004-08-06T23:43:14-04:00","start":"2004-08-06T23:28:14-04:00"},"resourceType":"Encounter","serviceProvider":{"reference":"Organization/fea46cf5-78cb-45ba-a53c-1889a8b8ee75"},"status":"finished","subject":{"reference":"Patient/00d48a80-ce29-4d28-a8d1-f41e705aee29"},"type":[{"coding":[{"code":"185347001","display":"Encounter for problem (procedure)","system":"http://snomed.info/sct"}],"text":"Encounter for problem (procedure)"}]}},{"resource":{"class":{"code":"WELLNESS"},"id":"17bfd904-3584-4231-99e5-406abb219f9c","meta":{"lastUpdated":"2019-04-09T09:55:19.538958+00:00","versionId":"MTU1NDgwMzcxOTUzODk1ODAwMA"},"participant":[{"individual":{"reference":"Practitioner/9c1e389b-2076-44ab-917f-7e80069ab8d8"}}],"period":{"end":"2008-09-19T00:13:14-04:00","start":"2008-09-18T23:28:14-04:00"},"resourceType":"Encounter","serviceProvider":{"reference":"Organization/fea46cf5-78cb-45ba-a53c-1889a8b8ee75"},"status":"finished","subject":{"reference":"Patient/00d48a80-ce29-4d28-a8d1-f41e705aee29"},"type":[{"coding":[{"code":"185349003","display":"Encounter for check up (procedure)","system":"http://snomed.info/sct"}],"text":"Encounter for check up (procedure)"}]}},{"resource":{"class":{"code":"emergency"},"id":"1bebd37a-3a58-4104-bb02-47739e22811a","meta":{"lastUpdated":"2019-04-09T09:55:20.597349+00:00","versionId":"MTU1NDgwMzcyMDU5NzM0OTAwMA"},"period":{"end":"2010-09-06T23:28:14-04:00","start":"2010-09-02T23:28:14-04:00"},"resourceType":"Encounter","serviceProvider":{"reference":"Organization/fea46cf5-78cb-45ba-a53c-1889a8b8ee75"},"status":"finished","subject":{"reference":"Patient/00d48a80-ce29-4d28-a8d1-f41e705aee29"},"type":[{"coding":[{"code":"50849002","display":"Emergency Encounter","system":"http://snomed.info/sct"}],"text":"Emergency Encounter"}]}},{"resource":{"class":{"code":"WELLNESS"},"id":"1fc324e2-5ed4-4211-85ff-48a823a09da4","meta":{"lastUpdated":"2019-04-09T09:55:15.379629+00:00","versionId":"MTU1NDgwMzcxNTM3OTYyOTAwMA"},"participant":[{"individual":{"reference":"Practitioner/9c1e389b-2076-44ab-917f-7e80069ab8d8"}}],"period":{"end":"2005-04-15T00:13:14-04:00","start":"2005-04-14T23:28:14-04:00"},"resourceType":"Encounter","serviceProvider":{"reference":"Organization/fea46cf5-78cb-45ba-a53c-1889a8b8ee75"},"status":"finished","subject":{"reference":"Patient/00d48a80-ce29-4d28-a8d1-f41e705aee29"},"type":[{"coding":[{"code":"185349003","display":"Encounter for check up (procedure)","system":"http://snomed.info/sct"}],"text":"Encounter for check up (procedure)"}]}},{"resource":{"class":{"code":"outpatient"},"id":"20606fbe-828b-466f-89d7-2da9b4df1df5","meta":{"lastUpdated":"2019-04-09T09:55:18.424419+00:00","versionId":"MTU1NDgwMzcxODQyNDQxOTAwMA"},"participant":[{"individual":{"reference":"Practitioner/9c1e389b-2076-44ab-917f-7e80069ab8d8"}}],"period":{"end":"2007-08-10T23:43:14-04:00","start":"2007-08-10T23:28:14-04:00"},"resourceType":"Encounter","serviceProvider":{"reference":"Organization/fea46cf5-78cb-45ba-a53c-1889a8b8ee75"},"status":"finished","subject":{"reference":"Patient/00d48a80-ce29-4d28-a8d1-f41e705aee29"},"type":[{"coding":[{"code":"185347001","display":"Encounter for problem (procedure)","system":"http://snomed.info/sct"}],"text":"Encounter for problem (procedure)"}]}},{"resource":{"class":{"code":"outpatient"},"id":"225f3789-e4fd-4bcd-9ac7-aa1158b3fb4c","meta":{"lastUpdated":"2019-04-09T09:55:21.560489+00:00","versionId":"MTU1NDgwMzcyMTU2MDQ4OTAwMA"},"participant":[{"individual":{"reference":"Practitioner/9c1e389b-2076-44ab-917f-7e80069ab8d8"}}],"period":{"end":"2012-07-13T23:43:14-04:00","start":"2012-07-13T23:28:14-04:00"},"resourceType":"Encounter","serviceProvider":{"reference":"Organization/fea46cf5-78cb-45ba-a53c-1889a8b8ee75"},"status":"finished","subject":{"reference":"Patient/00d48a80-ce29-4d28-a8d1-f41e705aee29"},"type":[{"coding":[{"code":"185347001","display":"Encounter for problem (procedure)","system":"http://snomed.info/sct"}],"text":"Encounter for problem (procedure)"}]}},{"resource":{"class":{"code":"outpatient"},"id":"24b4829e-cf8a-4e47-98a2-33e2c9eafc01","meta":{"lastUpdated":"2019-04-09T09:55:18.421313+00:00","versionId":"MTU1NDgwMzcxODQyMTMxMzAwMA"},"participant":[{"individual":{"reference":"Practitioner/9c1e389b-2076-44ab-917f-7e80069ab8d8"}}],"period":{"end":"2008-06-08T23:43:14-04:00","start":"2008-06-08T23:28:14-04:00"},"resourceType":"Encounter","serviceProvider":{"reference":"Organization/fea46cf5-78cb-45ba-a53c-1889a8b8ee75"},"status":"finished","subject":{"reference":"Patient/00d48a80-ce29-4d28-a8d1-f41e705aee29"},"type":[{"coding":[{"code":"185347001","display":"Encounter for problem (procedure)","system":"http://snomed.info/sct"}],"text":"Encounter for problem (procedure)"}]}},{"resource":{"class":{"code":"outpatient"},"id":"273a9b1e-11ef-49e6-9773-d94738c08978","meta":{"lastUpdated":"2019-04-09T09:55:15.379695+00:00","versionId":"MTU1NDgwMzcxNTM3OTY5NTAwMA"},"participant":[{"individual":{"reference":"Practitioner/9c1e389b-2076-44ab-917f-7e80069ab8d8"}}],"period":{"end":"2004-09-05T23:43:14-04:00","start":"2004-09-05T23:28:14-04:00"},"resourceType":"Encounter","serviceProvider":{"reference":"Organization/fea46cf5-78cb-45ba-a53c-1889a8b8ee75"},"status":"finished","subject":{"reference":"Patient/00d48a80-ce29-4d28-a8d1-f41e705aee29"},"type":[{"coding":[{"code":"185347001","display":"Encounter for problem (procedure)","system":"http://snomed.info/sct"}],"text":"Encounter for problem (procedure)"}]}},{"resource":{"class":{"code":"WELLNESS"},"id":"2750db96-3020-412a-ab3e-fd89edb0f218","meta":{"lastUpdated":"2019-04-09T09:55:14.363018+00:00","versionId":"MTU1NDgwMzcxNDM2MzAxODAwMA"},"participant":[{"individual":{"reference":"Practitioner/9c1e389b-2076-44ab-917f-7e80069ab8d8"}}],"period":{"end":"1942-04-16T23:43:14-04:00","start":"1942-04-16T23:28:14-04:00"},"resourceType":"Encounter","serviceProvider":{"reference":"Organization/fea46cf5-78cb-45ba-a53c-1889a8b8ee75"},"status":"finished","subject":{"reference":"Patient/00d48a80-ce29-4d28-a8d1-f41e705aee29"},"type":[{"coding":[{"code":"185349003","display":"Encounter for check up (procedure)","system":"http://snomed.info/sct"}],"text":"Encounter for check up (procedure)"}]}},{"resource":{"class":{"code":"ambulatory"},"id":"278df2fb-5471-4b75-a6fc-3ebc56adaafd","meta":{"lastUpdated":"2019-04-09T09:55:16.401923+00:00","versionId":"MTU1NDgwMzcxNjQwMTkyMzAwMA"},"participant":[{"individual":{"reference":"Practitioner/9c1e389b-2076-44ab-917f-7e80069ab8d8"}}],"period":{"end":"2006-08-30T23:43:14-04:00","start":"2006-08-30T23:28:14-04:00"},"reason":[{"coding":[{"code":"195662009","display":"Acute viral pharyngitis (disorder)","system":"http://snomed.info/sct"}]}],"resourceType":"Encounter","serviceProvider":{"reference":"Organization/fea46cf5-78cb-45ba-a53c-1889a8b8ee75"},"status":"finished","subject":{"reference":"Patient/00d48a80-ce29-4d28-a8d1-f41e705aee29"},"type":[{"coding":[{"code":"185345009","display":"Encounter for symptom","system":"http://snomed.info/sct"}],"text":"Encounter for symptom"}]}},{"resource":{"class":{"code":"outpatient"},"id":"2de43fdf-7580-4c50-9a02-2a01f63ac1bd","meta":{"lastUpdated":"2019-04-09T09:55:19.529677+00:00","versionId":"MTU1NDgwMzcxOTUyOTY3NzAwMA"},"participant":[{"individual":{"reference":"Practitioner/9c1e389b-2076-44ab-917f-7e80069ab8d8"}}],"period":{"end":"2009-08-21T23:43:14-04:00","start":"2009-08-21T23:28:14-04:00"},"resourceType":"Encounter","serviceProvider":{"reference":"Organization/fea46cf5-78cb-45ba-a53c-1889a8b8ee75"},"status":"finished","subject":{"reference":"Patient/00d48a80-ce29-4d28-a8d1-f41e705aee29"},"type":[{"coding":[{"code":"185347001","display":"Encounter for problem (procedure)","system":"http://snomed.info/sct"}],"text":"Encounter for problem (procedure)"}]}},{"resource":{"class":{"code":"ambulatory"},"id":"2f1fe68d-b8d5-40ef-8eab-2a370ff37afc","meta":{"lastUpdated":"2019-04-09T09:55:22.585587+00:00","versionId":"MTU1NDgwMzcyMjU4NTU4NzAwMA"},"participant":[{"individual":{"reference":"Practitioner/9c1e389b-2076-44ab-917f-7e80069ab8d8"}}],"period":{"end":"2014-01-31T22:43:14-05:00","start":"2014-01-31T22:28:14-05:00"},"reason":[{"coding":[{"code":"195662009","display":"Acute viral pharyngitis (disorder)","system":"http://snomed.info/sct"}]}],"resourceType":"Encounter","serviceProvider":{"reference":"Organization/fea46cf5-78cb-45ba-a53c-1889a8b8ee75"},"status":"finished","subject":{"reference":"Patient/00d48a80-ce29-4d28-a8d1-f41e705aee29"},"type":[{"coding":[{"code":"185345009","display":"Encounter for symptom","system":"http://snomed.info/sct"}],"text":"Encounter for symptom"}]}},{"resource":{"class":{"code":"WELLNESS"},"id":"2f356eeb-9cb4-4d9c-9ae9-f13c2ca84858","meta":{"lastUpdated":"2019-04-09T09:55:16.402215+00:00","versionId":"MTU1NDgwMzcxNjQwMjIxNTAwMA"},"participant":[{"individual":{"reference":"Practitioner/9c1e389b-2076-44ab-917f-7e80069ab8d8"}}],"period":{"end":"2006-04-20T23:58:14-04:00","start":"2006-04-20T23:28:14-04:00"},"resourceType":"Encounter","serviceProvider":{"reference":"Organization/fea46cf5-78cb-45ba-a53c-1889a8b8ee75"},"status":"finished","subject":{"reference":"Patient/00d48a80-ce29-4d28-a8d1-f41e705aee29"},"type":[{"coding":[{"code":"185349003","display":"Encounter for check up (procedure)","system":"http://snomed.info/sct"}],"text":"Encounter for check up (procedure)"}]}},{"resource":{"class":{"code":"outpatient"},"id":"315d6c88-1acc-48df-8ce1-0dded26d80a4","meta":{"lastUpdated":"2019-04-09T09:55:19.538960+00:00","versionId":"MTU1NDgwMzcxOTUzODk2MDAwMA"},"participant":[{"individual":{"reference":"Practitioner/9c1e389b-2076-44ab-917f-7e80069ab8d8"}}],"period":{"end":"2009-07-22T23:43:14-04:00","start":"2009-07-22T23:28:14-04:00"},"resourceType":"Encounter","serviceProvider":{"reference":"Organization/fea46cf5-78cb-45ba-a53c-1889a8b8ee75"},"status":"finished","subject":{"reference":"Patient/00d48a80-ce29-4d28-a8d1-f41e705aee29"},"type":[{"coding":[{"code":"185347001","display":"Encounter for problem (procedure)","system":"http://snomed.info/sct"}],"text":"Encounter for problem (procedure)"}]}},{"resource":{"class":{"code":"outpatient"},"id":"31802089-fb58-4e29-a06f-78e010e51a14","meta":{"lastUpdated":"2019-04-09T09:55:17.405329+00:00","versionId":"MTU1NDgwMzcxNzQwNTMyOTAwMA"},"participant":[{"individual":{"reference":"Practitioner/9c1e389b-2076-44ab-917f-7e80069ab8d8"}}],"period":{"end":"2006-10-13T23:43:14-04:00","start":"2006-10-13T23:28:14-04:00"},"resourceType":"Encounter","serviceProvider":{"reference":"Organization/fea46cf5-78cb-45ba-a53c-1889a8b8ee75"},"status":"finished","subject":{"reference":"Patient/00d48a80-ce29-4d28-a8d1-f41e705aee29"},"type":[{"coding":[{"code":"185347001","display":"Encounter for problem (procedure)","system":"http://snomed.info/sct"}],"text":"Encounter for problem (procedure)"}]}},{"resource":{"class":{"code":"outpatient"},"id":"396bc903-2f12-4937-914e-d693e7163041","meta":{"lastUpdated":"2019-04-09T09:55:22.597345+00:00","versionId":"MTU1NDgwMzcyMjU5NzM0NTAwMA"},"participant":[{"individual":{"reference":"Practitioner/9c1e389b-2076-44ab-917f-7e80069ab8d8"}}],"period":{"end":"2014-01-23T22:43:14-05:00","start":"2014-01-23T22:28:14-05:00"},"resourceType":"Encounter","serviceProvider":{"reference":"Organization/fea46cf5-78cb-45ba-a53c-1889a8b8ee75"},"status":"finished","subject":{"reference":"Patient/00d48a80-ce29-4d28-a8d1-f41e705aee29"},"type":[{"coding":[{"code":"185347001","display":"Encounter for problem (procedure)","system":"http://snomed.info/sct"}],"text":"Encounter for problem (procedure)"}]}},{"resource":{"class":{"code":"WELLNESS"},"id":"3c32531a-7119-423d-954b-d68f705d118b","meta":{"lastUpdated":"2019-04-09T09:55:19.538957+00:00","versionId":"MTU1NDgwMzcxOTUzODk1NzAwMA"},"participant":[{"individual":{"reference":"Practitioner/9c1e389b-2076-44ab-917f-7e80069ab8d8"}}],"period":{"end":"2009-09-24T23:58:14-04:00","start":"2009-09-24T23:28:14-04:00"},"resourceType":"Encounter","serviceProvider":{"reference":"Organization/fea46cf5-78cb-45ba-a53c-1889a8b8ee75"},"status":"finished","subject":{"reference":"Patient/00d48a80-ce29-4d28-a8d1-f41e705aee29"},"type":[{"coding":[{"code":"185349003","display":"Encounter for check up (procedure)","system":"http://snomed.info/sct"}],"text":"Encounter for check up (procedure)"}]}},{"resource":{"class":{"code":"outpatient"},"id":"401ebf88-3fe0-4ba9-a866-5b99e4665d14","meta":{"lastUpdated":"2019-04-09T09:55:17.401846+00:00","versionId":"MTU1NDgwMzcxNzQwMTg0NjAwMA"},"participant":[{"individual":{"reference":"Practitioner/9c1e389b-2076-44ab-917f-7e80069ab8d8"}}],"period":{"end":"2006-12-12T22:43:14-05:00","start":"2006-12-12T22:28:14-05:00"},"resourceType":"Encounter","serviceProvider":{"reference":"Organization/fea46cf5-78cb-45ba-a53c-1889a8b8ee75"},"status":"finished","subject":{"reference":"Patient/00d48a80-ce29-4d28-a8d1-f41e705aee29"},"type":[{"coding":[{"code":"185347001","display":"Encounter for problem (procedure)","system":"http://snomed.info/sct"}],"text":"Encounter for problem (procedure)"}]}},{"resource":{"class":{"code":"outpatient"},"id":"497751e1-6302-4623-84a3-3ac31600fa9c","meta":{"lastUpdated":"2019-04-09T09:55:16.401933+00:00","versionId":"MTU1NDgwMzcxNjQwMTkzMzAwMA"},"participant":[{"individual":{"reference":"Practitioner/9c1e389b-2076-44ab-917f-7e80069ab8d8"}}],"period":{"end":"2006-04-15T23:43:14-04:00","start":"2006-04-15T23:28:14-04:00"},"resourceType":"Encounter","serviceProvider":{"reference":"Organization/fea46cf5-78cb-45ba-a53c-1889a8b8ee75"},"status":"finished","subject":{"reference":"Patient/00d48a80-ce29-4d28-a8d1-f41e705aee29"},"type":[{"coding":[{"code":"185347001","display":"Encounter for problem (procedure)","system":"http://snomed.info/sct"}],"text":"Encounter for problem (procedure)"}]}},{"resource":{"class":{"code":"outpatient"},"id":"53f3e25b-a425-4ad3-a335-51494b325c97","meta":{"lastUpdated":"2019-04-09T09:55:19.540899+00:00","versionId":"MTU1NDgwMzcxOTU0MDg5OTAwMA"},"participant":[{"individual":{"reference":"Practitioner/9c1e389b-2076-44ab-917f-7e80069ab8d8"}}],"period":{"end":"2009-06-22T23:43:14-04:00","start":"2009-06-22T23:28:14-04:00"},"resourceType":"Encounter","serviceProvider":{"reference":"Organization/fea46cf5-78cb-45ba-a53c-1889a8b8ee75"},"status":"finished","subject":{"reference":"Patient/00d48a80-ce29-4d28-a8d1-f41e705aee29"},"type":[{"coding":[{"code":"185347001","display":"Encounter for problem (procedure)","system":"http://snomed.info/sct"}],"text":"Encounter for problem (procedure)"}]}},{"resource":{"class":{"code":"inpatient"},"id":"547b6427-2254-4d53-9445-8a2e3fa51552","meta":{"lastUpdated":"2019-04-09T09:55:19.540898+00:00","versionId":"MTU1NDgwMzcxOTU0MDg5ODAwMA"},"participant":[{"individual":{"reference":"Practitioner/9c1e389b-2076-44ab-917f-7e80069ab8d8"}}],"period":{"end":"2009-04-17T23:28:14-04:00","start":"2009-04-16T23:28:14-04:00"},"resourceType":"Encounter","serviceProvider":{"reference":"Organization/fea46cf5-78cb-45ba-a53c-1889a8b8ee75"},"status":"finished","subject":{"reference":"Patient/00d48a80-ce29-4d28-a8d1-f41e705aee29"},"type":[{"coding":[{"code":"56876005","display":"Drug rehabilitation and detoxification","system":"http://snomed.info/sct"}],"text":"Drug rehabilitation and detoxification"}]}},{"resource":{"class":{"code":"outpatient"},"id":"5908379b-027c-4282-ac57-d1bac95b64f7","meta":{"lastUpdated":"2019-04-09T09:55:22.585586+00:00","versionId":"MTU1NDgwMzcyMjU4NTU4NjAwMA"},"participant":[{"individual":{"reference":"Practitioner/9c1e389b-2076-44ab-917f-7e80069ab8d8"}}],"period":{"end":"2014-02-22T22:43:14-05:00","start":"2014-02-22T22:28:14-05:00"},"resourceType":"Encounter","serviceProvider":{"reference":"Organization/fea46cf5-78cb-45ba-a53c-1889a8b8ee75"},"status":"finished","subject":{"reference":"Patient/00d48a80-ce29-4d28-a8d1-f41e705aee29"},"type":[{"coding":[{"code":"185347001","display":"Encounter for problem (procedure)","system":"http://snomed.info/sct"}],"text":"Encounter for problem (procedure)"}]}},{"resource":{"class":{"code":"inpatient"},"id":"5a304558-23fa-46c3-a418-d6183cb13217","meta":{"lastUpdated":"2019-04-09T09:55:15.379121+00:00","versionId":"MTU1NDgwMzcxNTM3OTEyMTAwMA"},"participant":[{"individual":{"reference":"Practitioner/9c1e389b-2076-44ab-917f-7e80069ab8d8"}}],"period":{"end":"1991-02-25T22:28:14-05:00","start":"1991-02-24T22:28:14-05:00"},"reason":[{"coding":[{"code":"82423001","display":"Chronic pain","system":"http://snomed.info/sct"}]}],"resourceType":"Encounter","serviceProvider":{"reference":"Organization/fea46cf5-78cb-45ba-a53c-1889a8b8ee75"},"status":"finished","subject":{"reference":"Patient/00d48a80-ce29-4d28-a8d1-f41e705aee29"},"type":[{"coding":[{"code":"183452005","display":"Encounter Inpatient","system":"http://snomed.info/sct"}],"text":"Encounter Inpatient"}]}},{"resource":{"class":{"code":"WELLNESS"},"id":"5d482966-bc93-4a65-b2de-401012557e7b","meta":{"lastUpdated":"2019-04-09T09:55:16.402320+00:00","versionId":"MTU1NDgwMzcxNjQwMjMyMDAwMA"},"participant":[{"individual":{"reference":"Practitioner/9c1e389b-2076-44ab-917f-7e80069ab8d8"}}],"period":{"end":"2006-09-07T23:58:14-04:00","start":"2006-09-07T23:28:14-04:00"},"resourceType":"Encounter","serviceProvider":{"reference":"Organization/fea46cf5-78cb-45ba-a53c-1889a8b8ee75"},"status":"finished","subject":{"reference":"Patient/00d48a80-ce29-4d28-a8d1-f41e705aee29"},"type":[{"coding":[{"code":"185349003","display":"Encounter for check up (procedure)","system":"http://snomed.info/sct"}],"text":"Encounter for check up (procedure)"}]}},{"resource":{"class":{"code":"emergency"},"hospitalization":{"dischargeDisposition":{"coding":[{"code":"01","display":"Discharged to home care or self care (routine discharge)","system":"http://www.nubc.org/patient-discharge"}],"text":"Discharged to home care or self care (routine discharge)"}},"id":"5ee86f8a-1188-4f87-b53a-1bd132af356e","meta":{"lastUpdated":"2019-04-09T09:55:13.364879+00:00","versionId":"MTU1NDgwMzcxMzM2NDg3OTAwMA"},"participant":[{"individual":{"reference":"Practitioner/9c1e389b-2076-44ab-917f-7e80069ab8d8"}}],"period":{"end":"1909-07-30T01:35:14-05:00","start":"1909-07-29T22:28:14-05:00"},"reason":[{"coding":[{"code":"128613002","display":"Seizure disorder","system":"http://snomed.info/sct"}]}],"resourceType":"Encounter","serviceProvider":{"reference":"Organization/fea46cf5-78cb-45ba-a53c-1889a8b8ee75"},"status":"finished","subject":{"reference":"Patient/00d48a80-ce29-4d28-a8d1-f41e705aee29"},"type":[{"coding":[{"code":"50849002","display":"Emergency Room Admission","system":"http://snomed.info/sct"}],"text":"Emergency Room Admission"}]}},{"resource":{"class":{"code":"WELLNESS"},"id":"66a93e81-fe55-47e4-b8c8-95a889d7d07a","meta":{"lastUpdated":"2019-04-09T09:55:22.597031+00:00","versionId":"MTU1NDgwMzcyMjU5NzAzMTAwMA"},"participant":[{"individual":{"reference":"Practitioner/9c1e389b-2076-44ab-917f-7e80069ab8d8"}}],"period":{"end":"2014-05-02T00:13:14-04:00","start":"2014-05-01T23:28:14-04:00"},"resourceType":"Encounter","serviceProvider":{"reference":"Organization/fea46cf5-78cb-45ba-a53c-1889a8b8ee75"},"status":"finished","subject":{"reference":"Patient/00d48a80-ce29-4d28-a8d1-f41e705aee29"},"type":[{"coding":[{"code":"185349003","display":"Encounter for check up (procedure)","system":"http://snomed.info/sct"}],"text":"Encounter for check up (procedure)"}]}},{"resource":{"class":{"code":"ambulatory"},"id":"6812456f-d8cc-4b03-8218-9cf76d0ba69a","meta":{"lastUpdated":"2019-04-09T09:55:14.368643+00:00","versionId":"MTU1NDgwMzcxNDM2ODY0MzAwMA"},"participant":[{"individual":{"reference":"Practitioner/9c1e389b-2076-44ab-917f-7e80069ab8d8"}}],"period":{"end":"1939-11-30T23:13:14-05:00","start":"1939-11-30T22:28:14-05:00"},"reason":[{"coding":[{"code":"72892002","display":"Normal pregnancy","system":"http://snomed.info/sct"}]}],"resourceType":"Encounter","serviceProvider":{"reference":"Organization/fea46cf5-78cb-45ba-a53c-1889a8b8ee75"},"status":"finished","subject":{"reference":"Patient/00d48a80-ce29-4d28-a8d1-f41e705aee29"},"type":[{"coding":[{"code":"424441002","display":"Prenatal initial visit","system":"http://snomed.info/sct"}],"text":"Prenatal initial visit"}]}},{"resource":{"class":{"code":"WELLNESS"},"id":"6a639d30-9f66-480b-a558-84919ff6338a","meta":{"lastUpdated":"2019-04-09T09:55:20.597928+00:00","versionId":"MTU1NDgwMzcyMDU5NzkyODAwMA"},"participant":[{"individual":{"reference":"Practitioner/9c1e389b-2076-44ab-917f-7e80069ab8d8"}}],"period":{"end":"2011-10-07T00:13:14-04:00","start":"2011-10-06T23:28:14-04:00"},"resourceType":"Encounter","serviceProvider":{"reference":"Organization/fea46cf5-78cb-45ba-a53c-1889a8b8ee75"},"status":"finished","subject":{"reference":"Patient/00d48a80-ce29-4d28-a8d1-f41e705aee29"},"type":[{"coding":[{"code":"185349003","display":"Encounter for check up (procedure)","system":"http://snomed.info/sct"}],"text":"Encounter for check up (procedure)"}]}},{"resource":{"class":{"code":"outpatient"},"id":"6e308200-1c01-4714-b0a9-d81778b31a75","meta":{"lastUpdated":"2019-04-09T09:55:15.380091+00:00","versionId":"MTU1NDgwMzcxNTM4MDA5MTAwMA"},"participant":[{"individual":{"reference":"Practitioner/9c1e389b-2076-44ab-917f-7e80069ab8d8"}}],"period":{"end":"2004-10-05T23:43:14-04:00","start":"2004-10-05T23:28:14-04:00"},"resourceType":"Encounter","serviceProvider":{"reference":"Organization/fea46cf5-78cb-45ba-a53c-1889a8b8ee75"},"status":"finished","subject":{"reference":"Patient/00d48a80-ce29-4d28-a8d1-f41e705aee29"},"type":[{"coding":[{"code":"185347001","display":"Encounter for problem (procedure)","system":"http://snomed.info/sct"}],"text":"Encounter for problem (procedure)"}]}},{"resource":{"class":{"code":"outpatient"},"id":"7631d0a9-d94a-4a65-8c20-8a3d386343cc","meta":{"lastUpdated":"2019-04-09T09:55:19.540906+00:00","versionId":"MTU1NDgwMzcxOTU0MDkwNjAwMA"},"participant":[{"individual":{"reference":"Practitioner/9c1e389b-2076-44ab-917f-7e80069ab8d8"}}],"period":{"end":"2009-04-23T23:43:14-04:00","start":"2009-04-23T23:28:14-04:00"},"resourceType":"Encounter","serviceProvider":{"reference":"Organization/fea46cf5-78cb-45ba-a53c-1889a8b8ee75"},"status":"finished","subject":{"reference":"Patient/00d48a80-ce29-4d28-a8d1-f41e705aee29"},"type":[{"coding":[{"code":"185347001","display":"Encounter for problem (procedure)","system":"http://snomed.info/sct"}],"text":"Encounter for problem (procedure)"}]}},{"resource":{"class":{"code":"WELLNESS"},"id":"77ef751b-5c85-43d4-9ab6-c3a504fe462a","meta":{"lastUpdated":"2019-04-09T09:55:14.368644+00:00","versionId":"MTU1NDgwMzcxNDM2ODY0NDAwMA"},"participant":[{"individual":{"reference":"Practitioner/9c1e389b-2076-44ab-917f-7e80069ab8d8"}}],"period":{"end":"1984-12-20T23:13:14-05:00","start":"1984-12-20T22:28:14-05:00"},"resourceType":"Encounter","serviceProvider":{"reference":"Organization/fea46cf5-78cb-45ba-a53c-1889a8b8ee75"},"status":"finished","subject":{"reference":"Patient/00d48a80-ce29-4d28-a8d1-f41e705aee29"},"type":[{"coding":[{"code":"185349003","display":"Encounter for check up (procedure)","system":"http://snomed.info/sct"}],"text":"Encounter for check up (procedure)"}]}},{"resource":{"class":{"code":"ambulatory"},"id":"7834a48c-84f1-49f1-8528-5376d13ae713","meta":{"lastUpdated":"2019-04-09T09:55:23.576293+00:00","versionId":"MTU1NDgwMzcyMzU3NjI5MzAwMA"},"period":{"end":"2014-05-29T23:43:14-04:00","start":"2014-05-29T23:28:14-04:00"},"resourceType":"Encounter","serviceProvider":{"reference":"Organization/fea46cf5-78cb-45ba-a53c-1889a8b8ee75"},"status":"finished","subject":{"reference":"Patient/00d48a80-ce29-4d28-a8d1-f41e705aee29"},"type":[{"coding":[{"code":"308646001","display":"Death Certification","system":"http://snomed.info/sct"}],"text":"Death Certification"}]}},{"resource":{"class":{"code":"WELLNESS"},"id":"7ed0f59e-b539-4147-b93e-3ae23392b58c","meta":{"lastUpdated":"2019-04-09T09:55:21.563636+00:00","versionId":"MTU1NDgwMzcyMTU2MzYzNjAwMA"},"participant":[{"individual":{"reference":"Practitioner/9c1e389b-2076-44ab-917f-7e80069ab8d8"}}],"period":{"end":"2012-10-11T23:58:14-04:00","start":"2012-10-11T23:28:14-04:00"},"resourceType":"Encounter","serviceProvider":{"reference":"Organization/fea46cf5-78cb-45ba-a53c-1889a8b8ee75"},"status":"finished","subject":{"reference":"Patient/00d48a80-ce29-4d28-a8d1-f41e705aee29"},"type":[{"coding":[{"code":"185349003","display":"Encounter for check up (procedure)","system":"http://snomed.info/sct"}],"text":"Encounter for check up (procedure)"}]}},{"resource":{"class":{"code":"outpatient"},"id":"826237ff-94ba-4df1-a473-37cce0ddbdcd","meta":{"lastUpdated":"2019-04-09T09:55:18.421702+00:00","versionId":"MTU1NDgwMzcxODQyMTcwMjAwMA"},"participant":[{"individual":{"reference":"Practitioner/9c1e389b-2076-44ab-917f-7e80069ab8d8"}}],"period":{"end":"2007-10-24T23:43:14-04:00","start":"2007-10-24T23:28:14-04:00"},"reason":[{"coding":[{"code":"65363002","display":"Otitis media","system":"http://snomed.info/sct"}]}],"resourceType":"Encounter","serviceProvider":{"reference":"Organization/fea46cf5-78cb-45ba-a53c-1889a8b8ee75"},"status":"finished","subject":{"reference":"Patient/00d48a80-ce29-4d28-a8d1-f41e705aee29"},"type":[{"coding":[{"code":"185345009","display":"Encounter for symptom","system":"http://snomed.info/sct"}],"text":"Encounter for symptom"}]}},{"resource":{"class":{"code":"WELLNESS"},"id":"87011fdb-2773-4f31-9fa1-7ab2e94c8da4","meta":{"lastUpdated":"2019-04-09T09:55:13.345968+00:00","versionId":"MTU1NDgwMzcxMzM0NTk2ODAwMA"},"participant":[{"individual":{"reference":"Practitioner/9c1e389b-2076-44ab-917f-7e80069ab8d8"}}],"period":{"end":"1929-02-28T22:58:14-05:00","start":"1929-02-28T22:28:14-05:00"},"resourceType":"Encounter","serviceProvider":{"reference":"Organization/fea46cf5-78cb-45ba-a53c-1889a8b8ee75"},"status":"finished","subject":{"reference":"Patient/00d48a80-ce29-4d28-a8d1-f41e705aee29"},"type":[{"coding":[{"code":"185349003","display":"Encounter for check up (procedure)","system":"http://snomed.info/sct"}],"text":"Encounter for check up (procedure)"}]}},{"resource":{"class":{"code":"emergency"},"id":"8a33f1fe-4bcb-45d2-860c-828240f34323","meta":{"lastUpdated":"2019-04-09T09:55:15.379315+00:00","versionId":"MTU1NDgwMzcxNTM3OTMxNTAwMA"},"participant":[{"individual":{"reference":"Practitioner/9c1e389b-2076-44ab-917f-7e80069ab8d8"}}],"period":{"end":"1994-09-10T00:28:14-04:00","start":"1994-09-09T23:28:14-04:00"},"reason":[{"coding":[{"code":"55680006","display":"Drug overdose","system":"http://snomed.info/sct"}]}],"resourceType":"Encounter","serviceProvider":{"reference":"Organization/fea46cf5-78cb-45ba-a53c-1889a8b8ee75"},"status":"finished","subject":{"reference":"Patient/00d48a80-ce29-4d28-a8d1-f41e705aee29"},"type":[{"coding":[{"code":"50849002","display":"Emergency Room Admission","system":"http://snomed.info/sct"}],"text":"Emergency Room Admission"}]}},{"resource":{"class":{"code":"outpatient"},"id":"8db993db-8c8d-4ac8-862a-ec267b37f869","meta":{"lastUpdated":"2019-04-09T09:55:17.411331+00:00","versionId":"MTU1NDgwMzcxNzQxMTMzMTAwMA"},"participant":[{"individual":{"reference":"Practitioner/9c1e389b-2076-44ab-917f-7e80069ab8d8"}}],"period":{"end":"2007-07-11T23:43:14-04:00","start":"2007-07-11T23:28:14-04:00"},"resourceType":"Encounter","serviceProvider":{"reference":"Organization/fea46cf5-78cb-45ba-a53c-1889a8b8ee75"},"status":"finished","subject":{"reference":"Patient/00d48a80-ce29-4d28-a8d1-f41e705aee29"},"type":[{"coding":[{"code":"185347001","display":"Encounter for problem (procedure)","system":"http://snomed.info/sct"}],"text":"Encounter for problem (procedure)"}]}},{"resource":{"class":{"code":"outpatient"},"id":"8eb89053-4fd4-4bf4-bdbb-f3f140c7e8f2","meta":{"lastUpdated":"2019-04-09T09:55:19.519269+00:00","versionId":"MTU1NDgwMzcxOTUxOTI2OTAwMA"},"participant":[{"individual":{"reference":"Practitioner/9c1e389b-2076-44ab-917f-7e80069ab8d8"}}],"period":{"end":"2009-05-23T23:43:14-04:00","start":"2009-05-23T23:28:14-04:00"},"resourceType":"Encounter","serviceProvider":{"reference":"Organization/fea46cf5-78cb-45ba-a53c-1889a8b8ee75"},"status":"finished","subject":{"reference":"Patient/00d48a80-ce29-4d28-a8d1-f41e705aee29"},"type":[{"coding":[{"code":"185347001","display":"Encounter for problem (procedure)","system":"http://snomed.info/sct"}],"text":"Encounter for problem (procedure)"}]}},{"resource":{"class":{"code":"outpatient"},"id":"965608da-f18e-4407-a553-875308ab0df1","meta":{"lastUpdated":"2019-04-09T09:55:19.538956+00:00","versionId":"MTU1NDgwMzcxOTUzODk1NjAwMA"},"participant":[{"individual":{"reference":"Practitioner/9c1e389b-2076-44ab-917f-7e80069ab8d8"}}],"period":{"end":"2008-07-08T23:43:14-04:00","start":"2008-07-08T23:28:14-04:00"},"resourceType":"Encounter","serviceProvider":{"reference":"Organization/fea46cf5-78cb-45ba-a53c-1889a8b8ee75"},"status":"finished","subject":{"reference":"Patient/00d48a80-ce29-4d28-a8d1-f41e705aee29"},"type":[{"coding":[{"code":"185347001","display":"Encounter for problem (procedure)","system":"http://snomed.info/sct"}],"text":"Encounter for problem (procedure)"}]}},{"resource":{"class":{"code":"inpatient"},"id":"9a42c396-d8ba-417d-9b3c-af1942f442de","meta":{"lastUpdated":"2019-04-09T09:55:21.563637+00:00","versionId":"MTU1NDgwMzcyMTU2MzYzNzAwMA"},"participant":[{"individual":{"reference":"Practitioner/9c1e389b-2076-44ab-917f-7e80069ab8d8"}}],"period":{"end":"2011-10-09T23:28:14-04:00","start":"2011-10-08T23:28:14-04:00"},"resourceType":"Encounter","serviceProvider":{"reference":"Organization/fea46cf5-78cb-45ba-a53c-1889a8b8ee75"},"status":"finished","subject":{"reference":"Patient/00d48a80-ce29-4d28-a8d1-f41e705aee29"},"type":[{"coding":[{"code":"56876005","display":"Drug rehabilitation and detoxification","system":"http://snomed.info/sct"}],"text":"Drug rehabilitation and detoxification"}]}},{"resource":{"class":{"code":"outpatient"},"id":"9c4afbb5-49bf-455e-8cea-073b95a1c4b3","meta":{"lastUpdated":"2019-04-09T09:55:17.401821+00:00","versionId":"MTU1NDgwMzcxNzQwMTgyMTAwMA"},"participant":[{"individual":{"reference":"Practitioner/9c1e389b-2076-44ab-917f-7e80069ab8d8"}}],"period":{"end":"2007-05-12T23:43:14-04:00","start":"2007-05-12T23:28:14-04:00"},"resourceType":"Encounter","serviceProvider":{"reference":"Organization/fea46cf5-78cb-45ba-a53c-1889a8b8ee75"},"status":"finished","subject":{"reference":"Patient/00d48a80-ce29-4d28-a8d1-f41e705aee29"},"type":[{"coding":[{"code":"185347001","display":"Encounter for problem (procedure)","system":"http://snomed.info/sct"}],"text":"Encounter for problem (procedure)"}]}},{"resource":{"class":{"code":"outpatient"},"id":"9ebd1272-b664-4651-ac4b-46300c8c698f","meta":{"lastUpdated":"2019-04-09T09:55:20.604166+00:00","versionId":"MTU1NDgwMzcyMDYwNDE2NjAwMA"},"participant":[{"individual":{"reference":"Practitioner/9c1e389b-2076-44ab-917f-7e80069ab8d8"}}],"period":{"end":"2009-12-10T22:43:14-05:00","start":"2009-12-10T22:28:14-05:00"},"resourceType":"Encounter","serviceProvider":{"reference":"Organization/fea46cf5-78cb-45ba-a53c-1889a8b8ee75"},"status":"finished","subject":{"reference":"Patient/00d48a80-ce29-4d28-a8d1-f41e705aee29"},"type":[{"coding":[{"code":"185347001","display":"Encounter for problem (procedure)","system":"http://snomed.info/sct"}],"text":"Encounter for problem (procedure)"}]}},{"resource":{"class":{"code":"outpatient"},"id":"9fe4905d-0e04-44c2-8db7-2929b4291852","meta":{"lastUpdated":"2019-04-09T09:55:16.402322+00:00","versionId":"MTU1NDgwMzcxNjQwMjMyMjAwMA"},"participant":[{"individual":{"reference":"Practitioner/9c1e389b-2076-44ab-917f-7e80069ab8d8"}}],"period":{"end":"2006-06-14T23:43:14-04:00","start":"2006-06-14T23:28:14-04:00"},"resourceType":"Encounter","serviceProvider":{"reference":"Organization/fea46cf5-78cb-45ba-a53c-1889a8b8ee75"},"status":"finished","subject":{"reference":"Patient/00d48a80-ce29-4d28-a8d1-f41e705aee29"},"type":[{"coding":[{"code":"185347001","display":"Encounter for problem (procedure)","system":"http://snomed.info/sct"}],"text":"Encounter for problem (procedure)"}]}},{"resource":{"class":{"code":"WELLNESS"},"id":"a12ae156-6ea2-4b3d-b2a7-09484ac4cf74","meta":{"lastUpdated":"2019-04-09T09:55:13.345437+00:00","versionId":"MTU1NDgwMzcxMzM0NTQzNzAwMA"},"participant":[{"individual":{"reference":"Practitioner/9c1e389b-2076-44ab-917f-7e80069ab8d8"}}],"period":{"end":"1928-02-23T22:58:14-05:00","start":"1928-02-23T22:28:14-05:00"},"resourceType":"Encounter","serviceProvider":{"reference":"Organization/fea46cf5-78cb-45ba-a53c-1889a8b8ee75"},"status":"finished","subject":{"reference":"Patient/00d48a80-ce29-4d28-a8d1-f41e705aee29"},"type":[{"coding":[{"code":"185349003","display":"Encounter for check up (procedure)","system":"http://snomed.info/sct"}],"text":"Encounter for check up (procedure)"}]}},{"resource":{"class":{"code":"outpatient"},"id":"a2812cd7-aea1-48d6-b0fb-fa37bb87e4f7","meta":{"lastUpdated":"2019-04-09T09:55:20.604167+00:00","versionId":"MTU1NDgwMzcyMDYwNDE2NzAwMA"},"participant":[{"individual":{"reference":"Practitioner/9c1e389b-2076-44ab-917f-7e80069ab8d8"}}],"period":{"end":"2009-11-10T22:43:14-05:00","start":"2009-11-10T22:28:14-05:00"},"resourceType":"Encounter","serviceProvider":{"reference":"Organization/fea46cf5-78cb-45ba-a53c-1889a8b8ee75"},"status":"finished","subject":{"reference":"Patient/00d48a80-ce29-4d28-a8d1-f41e705aee29"},"type":[{"coding":[{"code":"185347001","display":"Encounter for problem (procedure)","system":"http://snomed.info/sct"}],"text":"Encounter for problem (procedure)"}]}},{"resource":{"class":{"code":"WELLNESS"},"id":"b1e18408-23ea-4d87-8466-07dcf0cd64d5","meta":{"lastUpdated":"2019-04-09T09:55:20.601284+00:00","versionId":"MTU1NDgwMzcyMDYwMTI4NDAwMA"},"participant":[{"individual":{"reference":"Practitioner/9c1e389b-2076-44ab-917f-7e80069ab8d8"}}],"period":{"end":"2010-10-01T00:13:14-04:00","start":"2010-09-30T23:28:14-04:00"},"resourceType":"Encounter","serviceProvider":{"reference":"Organization/fea46cf5-78cb-45ba-a53c-1889a8b8ee75"},"status":"finished","subject":{"reference":"Patient/00d48a80-ce29-4d28-a8d1-f41e705aee29"},"type":[{"coding":[{"code":"185349003","display":"Encounter for check up (procedure)","system":"http://snomed.info/sct"}],"text":"Encounter for check up (procedure)"}]}},{"resource":{"class":{"code":"outpatient"},"id":"b44e264b-6c27-4228-869a-d22733edae05","meta":{"lastUpdated":"2019-04-09T09:55:17.401946+00:00","versionId":"MTU1NDgwMzcxNzQwMTk0NjAwMA"},"participant":[{"individual":{"reference":"Practitioner/9c1e389b-2076-44ab-917f-7e80069ab8d8"}}],"period":{"end":"2006-11-12T22:43:14-05:00","start":"2006-11-12T22:28:14-05:00"},"resourceType":"Encounter","serviceProvider":{"reference":"Organization/fea46cf5-78cb-45ba-a53c-1889a8b8ee75"},"status":"finished","subject":{"reference":"Patient/00d48a80-ce29-4d28-a8d1-f41e705aee29"},"type":[{"coding":[{"code":"185347001","display":"Encounter for problem (procedure)","system":"http://snomed.info/sct"}],"text":"Encounter for problem (procedure)"}]}},{"resource":{"class":{"code":"inpatient"},"id":"b490914d-4e4b-4fbc-8ffb-96d4e9692223","meta":{"lastUpdated":"2019-04-09T09:55:14.380117+00:00","versionId":"MTU1NDgwMzcxNDM4MDExNzAwMA"},"participant":[{"individual":{"reference":"Practitioner/9c1e389b-2076-44ab-917f-7e80069ab8d8"}}],"period":{"end":"1990-05-19T23:43:14-04:00","start":"1990-05-18T23:28:14-04:00"},"reason":[{"coding":[{"code":"196416002","display":"Impacted molars","system":"http://snomed.info/sct"}]}],"resourceType":"Encounter","serviceProvider":{"reference":"Organization/fea46cf5-78cb-45ba-a53c-1889a8b8ee75"},"status":"finished","subject":{"reference":"Patient/00d48a80-ce29-4d28-a8d1-f41e705aee29"},"type":[{"coding":[{"code":"183452005","display":"Encounter Inpatient","system":"http://snomed.info/sct"}],"text":"Encounter Inpatient"}]}},{"resource":{"class":{"code":"outpatient"},"id":"bb04eba1-97c7-4d2c-b622-b9a982ca83b1","meta":{"lastUpdated":"2019-04-09T09:55:16.401622+00:00","versionId":"MTU1NDgwMzcxNjQwMTYyMjAwMA"},"participant":[{"individual":{"reference":"Practitioner/9c1e389b-2076-44ab-917f-7e80069ab8d8"}}],"period":{"end":"2006-03-16T22:43:14-05:00","start":"2006-03-16T22:28:14-05:00"},"resourceType":"Encounter","serviceProvider":{"reference":"Organization/fea46cf5-78cb-45ba-a53c-1889a8b8ee75"},"status":"finished","subject":{"reference":"Patient/00d48a80-ce29-4d28-a8d1-f41e705aee29"},"type":[{"coding":[{"code":"185347001","display":"Encounter for problem (procedure)","system":"http://snomed.info/sct"}],"text":"Encounter for problem (procedure)"}]}},{"resource":{"class":{"code":"outpatient"},"id":"bbc57e2d-c113-49cc-955d-fa577ee7ab47","meta":{"lastUpdated":"2019-04-09T09:55:19.538959+00:00","versionId":"MTU1NDgwMzcxOTUzODk1OTAwMA"},"participant":[{"individual":{"reference":"Practitioner/9c1e389b-2076-44ab-917f-7e80069ab8d8"}}],"period":{"end":"2009-10-11T23:43:14-04:00","start":"2009-10-11T23:28:14-04:00"},"resourceType":"Encounter","serviceProvider":{"reference":"Organization/fea46cf5-78cb-45ba-a53c-1889a8b8ee75"},"status":"finished","subject":{"reference":"Patient/00d48a80-ce29-4d28-a8d1-f41e705aee29"},"type":[{"coding":[{"code":"185347001","display":"Encounter for problem (procedure)","system":"http://snomed.info/sct"}],"text":"Encounter for problem (procedure)"}]}},{"resource":{"class":{"code":"outpatient"},"id":"bce824b0-cedd-4a06-a528-12325bacaa1f","meta":{"lastUpdated":"2019-04-09T09:55:21.559560+00:00","versionId":"MTU1NDgwMzcyMTU1OTU2MDAwMA"},"participant":[{"individual":{"reference":"Practitioner/9c1e389b-2076-44ab-917f-7e80069ab8d8"}}],"period":{"end":"2012-04-14T23:43:14-04:00","start":"2012-04-14T23:28:14-04:00"},"resourceType":"Encounter","serviceProvider":{"reference":"Organization/fea46cf5-78cb-45ba-a53c-1889a8b8ee75"},"status":"finished","subject":{"reference":"Patient/00d48a80-ce29-4d28-a8d1-f41e705aee29"},"type":[{"coding":[{"code":"185347001","display":"Encounter for problem (procedure)","system":"http://snomed.info/sct"}],"text":"Encounter for problem (procedure)"}]}},{"resource":{"class":{"code":"outpatient"},"id":"c26af216-5a12-485f-8fc5-83798bacb609","meta":{"lastUpdated":"2019-04-09T09:55:21.563632+00:00","versionId":"MTU1NDgwMzcyMTU2MzYzMjAwMA"},"participant":[{"individual":{"reference":"Practitioner/9c1e389b-2076-44ab-917f-7e80069ab8d8"}}],"period":{"end":"2012-06-13T23:43:14-04:00","start":"2012-06-13T23:28:14-04:00"},"resourceType":"Encounter","serviceProvider":{"reference":"Organization/fea46cf5-78cb-45ba-a53c-1889a8b8ee75"},"status":"finished","subject":{"reference":"Patient/00d48a80-ce29-4d28-a8d1-f41e705aee29"},"type":[{"coding":[{"code":"185347001","display":"Encounter for problem (procedure)","system":"http://snomed.info/sct"}],"text":"Encounter for problem (procedure)"}]}},{"resource":{"class":{"code":"outpatient"},"id":"c2a0b7b5-1b0b-4c42-866d-246317365a3a","meta":{"lastUpdated":"2019-04-09T09:55:21.560490+00:00","versionId":"MTU1NDgwMzcyMTU2MDQ5MDAwMA"},"participant":[{"individual":{"reference":"Practitioner/9c1e389b-2076-44ab-917f-7e80069ab8d8"}}],"period":{"end":"2012-09-16T23:43:14-04:00","start":"2012-09-16T23:28:14-04:00"},"resourceType":"Encounter","serviceProvider":{"reference":"Organization/fea46cf5-78cb-45ba-a53c-1889a8b8ee75"},"status":"finished","subject":{"reference":"Patient/00d48a80-ce29-4d28-a8d1-f41e705aee29"},"type":[{"coding":[{"code":"185347001","display":"Encounter for problem (procedure)","system":"http://snomed.info/sct"}],"text":"Encounter for problem (procedure)"}]}},{"resource":{"class":{"code":"WELLNESS"},"id":"c44299e0-d940-4400-b422-feafdf224475","meta":{"lastUpdated":"2019-04-09T09:55:22.590750+00:00","versionId":"MTU1NDgwMzcyMjU5MDc1MDAwMA"},"participant":[{"individual":{"reference":"Practitioner/9c1e389b-2076-44ab-917f-7e80069ab8d8"}}],"period":{"end":"2013-04-25T23:58:14-04:00","start":"2013-04-25T23:28:14-04:00"},"resourceType":"Encounter","serviceProvider":{"reference":"Organization/fea46cf5-78cb-45ba-a53c-1889a8b8ee75"},"status":"finished","subject":{"reference":"Patient/00d48a80-ce29-4d28-a8d1-f41e705aee29"},"type":[{"coding":[{"code":"185349003","display":"Encounter for check up (procedure)","system":"http://snomed.info/sct"}],"text":"Encounter for check up (procedure)"}]}},{"resource":{"class":{"code":"WELLNESS"},"id":"c6418205-db26-4607-b481-ba59db41d165","meta":{"lastUpdated":"2019-04-09T09:55:18.421755+00:00","versionId":"MTU1NDgwMzcxODQyMTc1NTAwMA"},"participant":[{"individual":{"reference":"Practitioner/9c1e389b-2076-44ab-917f-7e80069ab8d8"}}],"period":{"end":"2007-09-14T00:13:14-04:00","start":"2007-09-13T23:28:14-04:00"},"resourceType":"Encounter","serviceProvider":{"reference":"Organization/fea46cf5-78cb-45ba-a53c-1889a8b8ee75"},"status":"finished","subject":{"reference":"Patient/00d48a80-ce29-4d28-a8d1-f41e705aee29"},"type":[{"coding":[{"code":"185349003","display":"Encounter for check up (procedure)","system":"http://snomed.info/sct"}],"text":"Encounter for check up (procedure)"}]}},{"resource":{"class":{"code":"URGENTCARE"},"id":"c7e777c8-644d-44fc-bda5-54816f38c8c9","meta":{"lastUpdated":"2019-04-09T09:55:22.593541+00:00","versionId":"MTU1NDgwMzcyMjU5MzU0MTAwMA"},"participant":[{"individual":{"reference":"Practitioner/cc7d749d-d1e2-48e9-a800-85292a4d02e5"}}],"period":{"end":"2013-04-18T23:43:14-04:00","start":"2013-04-18T23:28:14-04:00"},"resourceType":"Encounter","serviceProvider":{"reference":"Organization/7f4ee8f4-bbd2-4ab5-a9c5-f72c446dfb00"},"status":"finished","subject":{"reference":"Patient/00d48a80-ce29-4d28-a8d1-f41e705aee29"},"type":[{"coding":[{"code":"371883000","display":"Outpatient procedure (procedure)","system":"http://snomed.info/sct"}],"text":"Outpatient procedure (procedure)"}]}},{"resource":{"class":{"code":"outpatient"},"id":"c936bbcd-5869-42bc-870d-6031e62f4292","meta":{"lastUpdated":"2019-04-09T09:55:22.590776+00:00","versionId":"MTU1NDgwMzcyMjU5MDc3NjAwMA"},"participant":[{"individual":{"reference":"Practitioner/9c1e389b-2076-44ab-917f-7e80069ab8d8"}}],"period":{"end":"2013-12-24T22:43:14-05:00","start":"2013-12-24T22:28:14-05:00"},"resourceType":"Encounter","serviceProvider":{"reference":"Organization/fea46cf5-78cb-45ba-a53c-1889a8b8ee75"},"status":"finished","subject":{"reference":"Patient/00d48a80-ce29-4d28-a8d1-f41e705aee29"},"type":[{"coding":[{"code":"185347001","display":"Encounter for problem (procedure)","system":"http://snomed.info/sct"}],"text":"Encounter for problem (procedure)"}]}},{"resource":{"class":{"code":"outpatient"},"id":"d0e10bdd-3955-4ff0-8ffd-ad9a3295d2dc","meta":{"lastUpdated":"2019-04-09T09:55:15.380082+00:00","versionId":"MTU1NDgwMzcxNTM4MDA4MjAwMA"},"participant":[{"individual":{"reference":"Practitioner/9c1e389b-2076-44ab-917f-7e80069ab8d8"}}],"period":{"end":"2004-06-07T23:43:14-04:00","start":"2004-06-07T23:28:14-04:00"},"resourceType":"Encounter","serviceProvider":{"reference":"Organization/fea46cf5-78cb-45ba-a53c-1889a8b8ee75"},"status":"finished","subject":{"reference":"Patient/00d48a80-ce29-4d28-a8d1-f41e705aee29"},"type":[{"coding":[{"code":"185347001","display":"Encounter for problem (procedure)","system":"http://snomed.info/sct"}],"text":"Encounter for problem (procedure)"}]}},{"resource":{"class":{"code":"ambulatory"},"id":"d89beb10-3df8-42d2-bdef-7b13c9666c3b","meta":{"lastUpdated":"2019-04-09T09:55:14.380120+00:00","versionId":"MTU1NDgwMzcxNDM4MDEyMDAwMA"},"participant":[{"individual":{"reference":"Practitioner/9c1e389b-2076-44ab-917f-7e80069ab8d8"}}],"period":{"end":"1988-09-24T23:43:14-04:00","start":"1988-09-24T23:28:14-04:00"},"reason":[{"coding":[{"code":"75498004","display":"Acute bacterial sinusitis (disorder)","system":"http://snomed.info/sct"}]}],"resourceType":"Encounter","serviceProvider":{"reference":"Organization/fea46cf5-78cb-45ba-a53c-1889a8b8ee75"},"status":"finished","subject":{"reference":"Patient/00d48a80-ce29-4d28-a8d1-f41e705aee29"},"type":[{"coding":[{"code":"185345009","display":"Encounter for symptom","system":"http://snomed.info/sct"}],"text":"Encounter for symptom"}]}},{"resource":{"class":{"code":"WELLNESS"},"id":"e80a8778-3def-42e1-8d69-eaf68ef58a8c","meta":{"lastUpdated":"2019-04-09T09:55:14.380118+00:00","versionId":"MTU1NDgwMzcxNDM4MDExODAwMA"},"participant":[{"individual":{"reference":"Practitioner/9c1e389b-2076-44ab-917f-7e80069ab8d8"}}],"period":{"end":"1985-12-26T22:58:14-05:00","start":"1985-12-26T22:28:14-05:00"},"resourceType":"Encounter","serviceProvider":{"reference":"Organization/fea46cf5-78cb-45ba-a53c-1889a8b8ee75"},"status":"finished","subject":{"reference":"Patient/00d48a80-ce29-4d28-a8d1-f41e705aee29"},"type":[{"coding":[{"code":"185349003","display":"Encounter for check up (procedure)","system":"http://snomed.info/sct"}],"text":"Encounter for check up (procedure)"}]}},{"resource":{"class":{"code":"inpatient"},"id":"eb2f98cf-7258-41dd-9c1d-fd9617ed415f","meta":{"lastUpdated":"2019-04-09T09:55:16.402247+00:00","versionId":"MTU1NDgwMzcxNjQwMjI0NzAwMA"},"participant":[{"individual":{"reference":"Practitioner/9c1e389b-2076-44ab-917f-7e80069ab8d8"}}],"period":{"end":"2005-11-25T22:28:14-05:00","start":"2005-11-24T22:28:14-05:00"},"resourceType":"Encounter","serviceProvider":{"reference":"Organization/fea46cf5-78cb-45ba-a53c-1889a8b8ee75"},"status":"finished","subject":{"reference":"Patient/00d48a80-ce29-4d28-a8d1-f41e705aee29"},"type":[{"coding":[{"code":"56876005","display":"Drug rehabilitation and detoxification","system":"http://snomed.info/sct"}],"text":"Drug rehabilitation and detoxification"}]}},{"resource":{"class":{"code":"ambulatory"},"id":"f34e75db-0a34-4837-b69c-db10f7ce04bd","meta":{"lastUpdated":"2019-04-09T09:55:14.368641+00:00","versionId":"MTU1NDgwMzcxNDM2ODY0MTAwMA"},"participant":[{"individual":{"reference":"Practitioner/9c1e389b-2076-44ab-917f-7e80069ab8d8"}}],"period":{"end":"1956-04-19T23:13:14-05:00","start":"1956-04-19T22:28:14-05:00"},"reason":[{"coding":[{"code":"72892002","display":"Normal pregnancy","system":"http://snomed.info/sct"}]}],"resourceType":"Encounter","serviceProvider":{"reference":"Organization/fea46cf5-78cb-45ba-a53c-1889a8b8ee75"},"status":"finished","subject":{"reference":"Patient/00d48a80-ce29-4d28-a8d1-f41e705aee29"},"type":[{"coding":[{"code":"424441002","display":"Prenatal initial visit","system":"http://snomed.info/sct"}],"text":"Prenatal initial visit"}]}},{"resource":{"class":{"code":"inpatient"},"id":"f3ce3bfe-dd8f-4deb-b16a-4e4ed58a7f80","meta":{"lastUpdated":"2019-04-09T09:55:15.391815+00:00","versionId":"MTU1NDgwMzcxNTM5MTgxNTAwMA"},"participant":[{"individual":{"reference":"Practitioner/9c1e389b-2076-44ab-917f-7e80069ab8d8"}}],"period":{"end":"1990-11-06T22:28:14-05:00","start":"1990-11-05T22:28:14-05:00"},"reason":[{"coding":[{"code":"124171000119105","display":"Chronic intractable migraine without aura","system":"http://snomed.info/sct"}]}],"resourceType":"Encounter","serviceProvider":{"reference":"Organization/fea46cf5-78cb-45ba-a53c-1889a8b8ee75"},"status":"finished","subject":{"reference":"Patient/00d48a80-ce29-4d28-a8d1-f41e705aee29"},"type":[{"coding":[{"code":"183452005","display":"Encounter Inpatient","system":"http://snomed.info/sct"}],"text":"Encounter Inpatient"}]}},{"resource":{"class":{"code":"outpatient"},"id":"fbf1dd32-6e1a-4dd7-afbe-75b37c2fbb3b","meta":{"lastUpdated":"2019-04-09T09:55:17.405330+00:00","versionId":"MTU1NDgwMzcxNzQwNTMzMDAwMA"},"participant":[{"individual":{"reference":"Practitioner/9c1e389b-2076-44ab-917f-7e80069ab8d8"}}],"period":{"end":"2007-06-11T23:43:14-04:00","start":"2007-06-11T23:28:14-04:00"},"resourceType":"Encounter","serviceProvider":{"reference":"Organization/fea46cf5-78cb-45ba-a53c-1889a8b8ee75"},"status":"finished","subject":{"reference":"Patient/00d48a80-ce29-4d28-a8d1-f41e705aee29"},"type":[{"coding":[{"code":"185347001","display":"Encounter for problem (procedure)","system":"http://snomed.info/sct"}],"text":"Encounter for problem (procedure)"}]}},{"resource":{"class":{"code":"emergency"},"id":"fced0f38-487e-49ba-a023-2d12659f9be6","meta":{"lastUpdated":"2019-04-09T09:55:23.580758+00:00","versionId":"MTU1NDgwMzcyMzU4MDc1ODAwMA"},"participant":[{"individual":{"reference":"Practitioner/9c1e389b-2076-44ab-917f-7e80069ab8d8"}}],"period":{"end":"2014-05-20T00:28:14-04:00","start":"2014-05-19T23:28:14-04:00"},"reason":[{"coding":[{"code":"55680006","display":"Drug overdose","system":"http://snomed.info/sct"}]}],"resourceType":"Encounter","serviceProvider":{"reference":"Organization/fea46cf5-78cb-45ba-a53c-1889a8b8ee75"},"status":"finished","subject":{"reference":"Patient/00d48a80-ce29-4d28-a8d1-f41e705aee29"},"type":[{"coding":[{"code":"50849002","display":"Emergency Room Admission","system":"http://snomed.info/sct"}],"text":"Emergency Room Admission"}]}},{"resource":{"class":{"code":"ambulatory"},"id":"fdb0ecdf-c023-4cfe-b874-4bf5369607ee","meta":{"lastUpdated":"2019-04-09T09:55:22.590566+00:00","versionId":"MTU1NDgwMzcyMjU5MDU2NjAwMA"},"participant":[{"individual":{"reference":"Practitioner/9c1e389b-2076-44ab-917f-7e80069ab8d8"}}],"period":{"end":"2013-04-11T23:43:14-04:00","start":"2013-04-11T23:28:14-04:00"},"reason":[{"coding":[{"code":"10509002","display":"Acute bronchitis (disorder)","system":"http://snomed.info/sct"}]}],"resourceType":"Encounter","serviceProvider":{"reference":"Organization/fea46cf5-78cb-45ba-a53c-1889a8b8ee75"},"status":"finished","subject":{"reference":"Patient/00d48a80-ce29-4d28-a8d1-f41e705aee29"},"type":[{"coding":[{"code":"185345009","display":"Encounter for symptom","system":"http://snomed.info/sct"}],"text":"Encounter for symptom"}]}},{"resource":{"billablePeriod":{"end":"2013-04-14T23:43:14-04:00","extension":[{"url":"https://bluebutton.cms.gov/assets/ig/StructureDefinition-bluebutton-outpatient-claim-query-cd-extension","valueCoding":{"code":"3","display":"Final Bill","system":"https://bluebutton.cms.gov/assets/ig/ValueSet-claim-query-cd"}}],"start":"2012-04-14T23:43:14-04:00"},"careTeam":[{"provider":{"identifier":{"system":"http://hl7.org/fhir/sid/us-npi","value":"99999999"}},"role":{"coding":[{"code":"primary","display":"Primary Care Practitioner","system":"http://hl7.org/fhir/claimcareteamrole"}]},"sequence":1}],"contained":[{"id":"coverage","resourceType":"Coverage","type":{"text":"medicare"}}],"extension":[{"url":"https://bluebutton.cms.gov/assets/ig/StructureDefinition-bluebutton-outpatient-nch-profnl-cmpnt-chrg-amt-extension","valueMoney":{"code":"USD","system":"urn:iso:std:iso:4217","value":0}},{"url":"https://bluebutton.cms.gov/assets/ig/StructureDefinition-bluebutton-outpatient-nch-bene-ptb-ddctbl-amt-extension","valueMoney":{"code":"USD","system":"urn:iso:std:iso:4217","value":0}},{"url":"https://bluebutton.cms.gov/assets/ig/StructureDefinition-bluebutton-outpatient-nch-bene-ptb-coinsrnc-amt-extension","valueMoney":{"code":"USD","system":"urn:iso:std:iso:4217","value":0}},{"url":"https://bluebutton.cms.gov/assets/ig/StructureDefinition-bluebutton-outpatient-clm-op-prvdr-pmt-amt-extension","valueMoney":{"code":"USD","system":"urn:iso:std:iso:4217","value":0}},{"url":"https://bluebutton.cms.gov/assets/ig/StructureDefinition-bluebutton-outpatient-clm-op-bene-pmt-amt-extension","valueMoney":{"code":"USD","system":"urn:iso:std:iso:4217","value":0}},{"url":"https://bluebutton.cms.gov/assets/ig/StructureDefinition-bluebutton-outpatient-nch-bene-blood-ddctbl-lblty-am-extension","valueMoney":{"code":"USD","system":"urn:iso:std:iso:4217","value":0}},{"url":"https://bluebutton.cms.gov/assets/ig/StructureDefinition-bluebutton-outpatient-clm-mdcr-non-pmt-rsn-cd-extension","valueCoding":{"code":"N","display":"All other reasons for non-payment","system":"https://bluebutton.cms.gov/assets/ig/CodeSystem-clm-mdcr-non-pmt-rsn-cd"}},{"url":"https://bluebutton.cms.gov/assets/ig/StructureDefinition-bluebutton-outpatient-prpayamt-extension","valueMoney":{"code":"USD","system":"urn:iso:std:iso:4217","value":0}},{"url":"https://bluebutton.cms.gov/assets/ig/StructureDefinition-bluebutton-outpatient-fi-num-extension","valueIdentifier":{"system":"https://bluebutton.cms.gov/assets/ig/CodeSystem-fi-num","value":"002000"}}],"id":"016fc1b0-ec92-4c00-91ed-39b8aa32eb64","identifier":[{"system":"https://bluebutton.cms.gov/resources/variables/clm_id","value":"e99ef8ad-ba4c-4297-95e0-113fc09e2b27"},{"system":"https://bluebutton.cms.gov/resources/identifier/claim-group","value":"99999999999"}],"insurance":{"coverage":{"reference":"#coverage"}},"item":[{"extension":[{"url":"https://bluebutton.cms.gov/assets/ig/StructureDefinition-bluebutton-outpatient-rev-cntr-ndc-qty-extension","valueQuantity":{"value":0}}],"locationCodeableConcept":{"coding":[{"code":"21","display":"Inpatient Hospital","system":"https://bluebutton.cms.gov/resources/variables/line_place_of_srvc_cd"}]},"sequence":1}],"meta":{"lastUpdated":"2019-04-09T09:55:21.557177+00:00","profile":["https://bluebutton.cms.gov/assets/ig/StructureDefinition-bluebutton-outpatient-claim"],"versionId":"MTU1NDgwMzcyMTU1NzE3NzAwMA"},"organization":{"identifier":{"value":"fea46cf5-78cb-45ba-a53c-1889a8b8ee75"}},"patient":{"reference":"Patient/00d48a80-ce29-4d28-a8d1-f41e705aee29"},"payment":{"amount":{"code":"USD","system":"urn:iso:std:iso:4217","value":0}},"provider":{"identifier":{"value":"9c1e389b-2076-44ab-917f-7e80069ab8d8"}},"resourceType":"ExplanationOfBenefit","status":"active","totalCost":{"code":"USD","system":"urn:iso:std:iso:4217","value":125},"type":{"coding":[{"code":"71","display":"Local carrier non-durable medical equipment, prosthetics, orthotics, and supplies (DMEPOS) claim","system":"https://bluebutton.cms.gov/resources/variables/nch_clm_type_cd"},{"code":"CARRIER","display":"EOB Type","system":"https://bluebutton.cms.gov/resources/codesystem/eob-type"},{"code":"professional","display":"Claim Type","system":"http://hl7.org/fhir/ex-claimtype"},{"code":"O","display":"Part B physician/supplier claim record (processed by local carriers; can include DMEPOS services)","system":"https://bluebutton.cms.gov/resources/variables/nch_near_line_rec_ident_cd"}]}}},{"resource":{"billablePeriod":{"end":"2013-10-11T23:58:14-04:00","start":"2012-10-11T23:58:14-04:00"},"careTeam":[{"provider":{"identifier":{"system":"http://hl7.org/fhir/sid/us-npi","value":"99999999"}},"role":{"coding":[{"code":"primary","display":"Primary Care Practitioner","system":"http://hl7.org/fhir/claimcareteamrole"}]},"sequence":1}],"claim":{"reference":"Claim/013b8a76-abcd-4829-b344-a91ad83760e6"},"contained":[{"id":"1","intent":"order","recipient":[{"identifier":{"system":"http://hl7.org/fhir/sid/us-npi","value":"99999999"}}],"requester":{"agent":{"identifier":{"system":"http://hl7.org/fhir/sid/us-npi","value":"99999999"}}},"resourceType":"ReferralRequest","status":"completed","subject":{"reference":"Patient/00d48a80-ce29-4d28-a8d1-f41e705aee29"}},{"id":"coverage","resourceType":"Coverage","type":{"text":"medicare"}}],"created":"2012-10-11T23:58:14-04:00","id":"018b03d5-5c9b-440a-9f93-e44e61d0dd28","identifier":[{"system":"https://bluebutton.cms.gov/resources/variables/clm_id","value":"013b8a76-abcd-4829-b344-a91ad83760e6"},{"system":"https://bluebutton.cms.gov/resources/identifier/claim-group","value":"99999999999"}],"insurance":{"coverage":{"reference":"#coverage"}},"item":[{"category":{"coding":[{"code":"1","display":"Medical care","system":"https://bluebutton.cms.gov/resources/variables/line_cms_type_srvc_cd"}]},"encounter":[{"reference":"Encounter/7ed0f59e-b539-4147-b93e-3ae23392b58c"}],"locationCodeableConcept":{"coding":[{"code":"21","display":"Inpatient Hospital","system":"https://bluebutton.cms.gov/resources/variables/line_place_of_srvc_cd"}]},"sequence":1,"servicedPeriod":{"end":"2012-10-11T23:58:14-04:00","start":"2012-10-11T23:28:14-04:00"}},{"adjudication":[{"amount":{"code":"USD","system":"urn:iso:std:iso:4217","value":8425.92},"category":{"coding":[{"code":"https://bluebutton.cms.gov/resources/variables/line_coinsrnc_amt","display":"Line Beneficiary Coinsurance Amount","system":"https://bluebutton.cms.gov/resources/codesystem/adjudication"}]}},{"amount":{"code":"USD","system":"urn:iso:std:iso:4217","value":33703.68},"category":{"coding":[{"code":"https://bluebutton.cms.gov/resources/variables/line_prvdr_pmt_amt","display":"Line Provider Payment Amount","system":"https://bluebutton.cms.gov/resources/codesystem/adjudication"}]}},{"amount":{"code":"USD","system":"urn:iso:std:iso:4217","value":42129.6},"category":{"coding":[{"code":"https://bluebutton.cms.gov/resources/variables/line_sbmtd_chrg_amt","display":"Line Submitted Charge Amount","system":"https://bluebutton.cms.gov/resources/codesystem/adjudication"}]}},{"amount":{"code":"USD","system":"urn:iso:std:iso:4217","value":42129.6},"category":{"coding":[{"code":"https://bluebutton.cms.gov/resources/variables/line_alowd_chrg_amt","display":"Line Allowed Charge Amount","system":"https://bluebutton.cms.gov/resources/codesystem/adjudication"}]}},{"amount":{"code":"USD","system":"urn:iso:std:iso:4217","value":0},"category":{"coding":[{"code":"https://bluebutton.cms.gov/resources/variables/line_bene_ptb_ddctbl_amt","display":"Line Beneficiary Part B Deductible Amount","system":"https://bluebutton.cms.gov/resources/codesystem/adjudication"}]}},{"category":{"coding":[{"code":"https://bluebutton.cms.gov/resources/variables/line_prcsg_ind_cd","display":"Line Processing Indicator Code","system":"https://bluebutton.cms.gov/resources/codesystem/adjudication"}]},"reason":{"coding":[{"code":"A","display":"Allowed","system":"https://bluebutton.cms.gov/resources/variables/line_prcsg_ind_cd"}]}}],"category":{"coding":[{"code":"1","display":"Medical care","system":"https://bluebutton.cms.gov/resources/variables/line_cms_type_srvc_cd"}]},"locationCodeableConcept":{"coding":[{"code":"21","display":"Inpatient Hospital","system":"https://bluebutton.cms.gov/resources/variables/line_place_of_srvc_cd"}]},"net":{"code":"USD","system":"urn:iso:std:iso:4217","value":42129.6},"sequence":2,"service":{"coding":[{"code":"180325003","system":"http://snomed.info/sct","version":"v1"}]},"servicedPeriod":{"end":"2012-10-11T23:58:14-04:00","start":"2012-10-11T23:28:14-04:00"}}],"meta":{"lastUpdated":"2019-04-09T09:55:22.598202+00:00","versionId":"MTU1NDgwMzcyMjU5ODIwMjAwMA"},"organization":{"identifier":{"value":"fea46cf5-78cb-45ba-a53c-1889a8b8ee75"}},"patient":{"reference":"Patient/00d48a80-ce29-4d28-a8d1-f41e705aee29"},"payment":{"amount":{"code":"USD","system":"urn:iso:std:iso:4217","value":33703.68}},"provider":{"identifier":{"value":"9c1e389b-2076-44ab-917f-7e80069ab8d8"}},"referral":{"reference":"#1"},"resourceType":"ExplanationOfBenefit","status":"active","totalCost":{"code":"USD","system":"urn:iso:std:iso:4217","value":42254.6},"type":{"coding":[{"code":"71","display":"Local carrier non-durable medical equipment, prosthetics, orthotics, and supplies (DMEPOS) claim","system":"https://bluebutton.cms.gov/resources/variables/nch_clm_type_cd"},{"code":"CARRIER","display":"EOB Type","system":"https://bluebutton.cms.gov/resources/codesystem/eob-type"},{"code":"professional","display":"Claim Type","system":"http://hl7.org/fhir/ex-claimtype"},{"code":"O","display":"Part B physician/supplier claim record (processed by local carriers; can include DMEPOS services)","system":"https://bluebutton.cms.gov/resources/variables/nch_near_line_rec_ident_cd"}]}}},{"resource":{"billablePeriod":{"end":"2008-10-24T23:43:14-04:00","extension":[{"url":"https://bluebutton.cms.gov/assets/ig/StructureDefinition-bluebutton-outpatient-claim-query-cd-extension","valueCoding":{"code":"3","display":"Final Bill","system":"https://bluebutton.cms.gov/assets/ig/ValueSet-claim-query-cd"}}],"start":"2007-10-24T23:43:14-04:00"},"careTeam":[{"provider":{"identifier":{"system":"http://hl7.org/fhir/sid/us-npi","value":"99999999"}},"role":{"coding":[{"code":"primary","display":"Primary Care Practitioner","system":"http://hl7.org/fhir/claimcareteamrole"}]},"sequence":1}],"contained":[{"id":"coverage","resourceType":"Coverage","type":{"text":"medicare"}}],"diagnosis":[{"diagnosisReference":{"reference":"Condition/25f9f2e6-eb27-4730-b634-f5caeddd91e8"},"extension":[{"url":"https://bluebutton.cms.gov/assets/ig/StructureDefinition-bluebutton-inpatient-clm-poa-ind-sw1-extension","valueCoding":{"code":"Y","display":"Diagnosis present at time of admission","system":"https://bluebutton.cms.gov/assets/ig/CodeSystem-clm-poa-ind-sw1"}}],"sequence":1,"type":[{"coding":[{"code":"principal","system":"https://bluebutton.cms.gov/resources/codesystem/diagnosis-type"}]}]}],"extension":[{"url":"https://bluebutton.cms.gov/assets/ig/StructureDefinition-bluebutton-outpatient-nch-profnl-cmpnt-chrg-amt-extension","valueMoney":{"code":"USD","system":"urn:iso:std:iso:4217","value":0}},{"url":"https://bluebutton.cms.gov/assets/ig/StructureDefinition-bluebutton-outpatient-nch-bene-ptb-ddctbl-amt-extension","valueMoney":{"code":"USD","system":"urn:iso:std:iso:4217","value":0}},{"url":"https://bluebutton.cms.gov/assets/ig/StructureDefinition-bluebutton-outpatient-nch-bene-ptb-coinsrnc-amt-extension","valueMoney":{"code":"USD","system":"urn:iso:std:iso:4217","value":0}},{"url":"https://bluebutton.cms.gov/assets/ig/StructureDefinition-bluebutton-outpatient-clm-op-prvdr-pmt-amt-extension","valueMoney":{"code":"USD","system":"urn:iso:std:iso:4217","value":0}},{"url":"https://bluebutton.cms.gov/assets/ig/StructureDefinition-bluebutton-outpatient-clm-op-bene-pmt-amt-extension","valueMoney":{"code":"USD","system":"urn:iso:std:iso:4217","value":0}},{"url":"https://bluebutton.cms.gov/assets/ig/StructureDefinition-bluebutton-outpatient-nch-bene-blood-ddctbl-lblty-am-extension","valueMoney":{"code":"USD","system":"urn:iso:std:iso:4217","value":0}},{"url":"https://bluebutton.cms.gov/assets/ig/StructureDefinition-bluebutton-outpatient-clm-mdcr-non-pmt-rsn-cd-extension","valueCoding":{"code":"N","display":"All other reasons for non-payment","system":"https://bluebutton.cms.gov/assets/ig/CodeSystem-clm-mdcr-non-pmt-rsn-cd"}},{"url":"https://bluebutton.cms.gov/assets/ig/StructureDefinition-bluebutton-outpatient-prpayamt-extension","valueMoney":{"code":"USD","system":"urn:iso:std:iso:4217","value":0}},{"url":"https://bluebutton.cms.gov/assets/ig/StructureDefinition-bluebutton-outpatient-fi-num-extension","valueIdentifier":{"system":"https://bluebutton.cms.gov/assets/ig/CodeSystem-fi-num","value":"002000"}}],"id":"0240c3bf-bb52-4eb2-8a22-491de450aa0d","identifier":[{"system":"https://bluebutton.cms.gov/resources/variables/clm_id","value":"13117100-06f7-4f7b-94fb-02805a70e744"},{"system":"https://bluebutton.cms.gov/resources/identifier/claim-group","value":"99999999999"}],"insurance":{"coverage":{"reference":"#coverage"}},"item":[{"extension":[{"url":"https://bluebutton.cms.gov/assets/ig/StructureDefinition-bluebutton-outpatient-rev-cntr-ndc-qty-extension","valueQuantity":{"value":0}}],"locationCodeableConcept":{"coding":[{"code":"21","display":"Inpatient Hospital","system":"https://bluebutton.cms.gov/resources/variables/line_place_of_srvc_cd"}]},"sequence":1},{"extension":[{"url":"https://bluebutton.cms.gov/assets/ig/StructureDefinition-bluebutton-outpatient-rev-cntr-ndc-qty-extension","valueQuantity":{"value":0}}],"locationCodeableConcept":{"coding":[{"code":"21","display":"Inpatient Hospital","system":"https://bluebutton.cms.gov/resources/variables/line_place_of_srvc_cd"}]},"sequence":2}],"meta":{"lastUpdated":"2019-04-09T09:55:18.424423+00:00","profile":["https://bluebutton.cms.gov/assets/ig/StructureDefinition-bluebutton-outpatient-claim"],"versionId":"MTU1NDgwMzcxODQyNDQyMzAwMA"},"organization":{"identifier":{"value":"fea46cf5-78cb-45ba-a53c-1889a8b8ee75"}},"patient":{"reference":"Patient/00d48a80-ce29-4d28-a8d1-f41e705aee29"},"payment":{"amount":{"code":"USD","system":"urn:iso:std:iso:4217","value":0}},"provider":{"identifier":{"value":"9c1e389b-2076-44ab-917f-7e80069ab8d8"}},"resourceType":"ExplanationOfBenefit","status":"active","totalCost":{"code":"USD","system":"urn:iso:std:iso:4217","value":125},"type":{"coding":[{"code":"71","display":"Local carrier non-durable medical equipment, prosthetics, orthotics, and supplies (DMEPOS) claim","system":"https://bluebutton.cms.gov/resources/variables/nch_clm_type_cd"},{"code":"CARRIER","display":"EOB Type","system":"https://bluebutton.cms.gov/resources/codesystem/eob-type"},{"code":"professional","display":"Claim Type","system":"http://hl7.org/fhir/ex-claimtype"},{"code":"O","display":"Part B physician/supplier claim record (processed by local carriers; can include DMEPOS services)","system":"https://bluebutton.cms.gov/resources/variables/nch_near_line_rec_ident_cd"}]}}},{"resource":{"billablePeriod":{"end":"2010-04-23T23:43:14-04:00","extension":[{"url":"https://bluebutton.cms.gov/assets/ig/StructureDefinition-bluebutton-outpatient-claim-query-cd-extension","valueCoding":{"code":"3","display":"Final Bill","system":"https://bluebutton.cms.gov/assets/ig/ValueSet-claim-query-cd"}}],"start":"2009-04-23T23:43:14-04:00"},"careTeam":[{"provider":{"identifier":{"system":"http://hl7.org/fhir/sid/us-npi","value":"99999999"}},"role":{"coding":[{"code":"primary","display":"Primary Care Practitioner","system":"http://hl7.org/fhir/claimcareteamrole"}]},"sequence":1}],"contained":[{"id":"coverage","resourceType":"Coverage","type":{"text":"medicare"}}],"extension":[{"url":"https://bluebutton.cms.gov/assets/ig/StructureDefinition-bluebutton-outpatient-nch-profnl-cmpnt-chrg-amt-extension","valueMoney":{"code":"USD","system":"urn:iso:std:iso:4217","value":0}},{"url":"https://bluebutton.cms.gov/assets/ig/StructureDefinition-bluebutton-outpatient-nch-bene-ptb-ddctbl-amt-extension","valueMoney":{"code":"USD","system":"urn:iso:std:iso:4217","value":0}},{"url":"https://bluebutton.cms.gov/assets/ig/StructureDefinition-bluebutton-outpatient-nch-bene-ptb-coinsrnc-amt-extension","valueMoney":{"code":"USD","system":"urn:iso:std:iso:4217","value":0}},{"url":"https://bluebutton.cms.gov/assets/ig/StructureDefinition-bluebutton-outpatient-clm-op-prvdr-pmt-amt-extension","valueMoney":{"code":"USD","system":"urn:iso:std:iso:4217","value":0}},{"url":"https://bluebutton.cms.gov/assets/ig/StructureDefinition-bluebutton-outpatient-clm-op-bene-pmt-amt-extension","valueMoney":{"code":"USD","system":"urn:iso:std:iso:4217","value":0}},{"url":"https://bluebutton.cms.gov/assets/ig/StructureDefinition-bluebutton-outpatient-nch-bene-blood-ddctbl-lblty-am-extension","valueMoney":{"code":"USD","system":"urn:iso:std:iso:4217","value":0}},{"url":"https://bluebutton.cms.gov/assets/ig/StructureDefinition-bluebutton-outpatient-clm-mdcr-non-pmt-rsn-cd-extension","valueCoding":{"code":"N","display":"All other reasons for non-payment","system":"https://bluebutton.cms.gov/assets/ig/CodeSystem-clm-mdcr-non-pmt-rsn-cd"}},{"url":"https://bluebutton.cms.gov/assets/ig/StructureDefinition-bluebutton-outpatient-prpayamt-extension","valueMoney":{"code":"USD","system":"urn:iso:std:iso:4217","value":0}},{"url":"https://bluebutton.cms.gov/assets/ig/StructureDefinition-bluebutton-outpatient-fi-num-extension","valueIdentifier":{"system":"https://bluebutton.cms.gov/assets/ig/CodeSystem-fi-num","value":"002000"}}],"id":"02f2f074-4c72-4231-b8b4-c88f44321199","identifier":[{"system":"https://bluebutton.cms.gov/resources/variables/clm_id","value":"27462464-7f89-4517-9e3d-cd549884554a"},{"system":"https://bluebutton.cms.gov/resources/identifier/claim-group","value":"99999999999"}],"insurance":{"coverage":{"reference":"#coverage"}},"item":[{"extension":[{"url":"https://bluebutton.cms.gov/assets/ig/StructureDefinition-bluebutton-outpatient-rev-cntr-ndc-qty-extension","valueQuantity":{"value":0}}],"locationCodeableConcept":{"coding":[{"code":"21","display":"Inpatient Hospital","system":"https://bluebutton.cms.gov/resources/variables/line_place_of_srvc_cd"}]},"sequence":1}],"meta":{"lastUpdated":"2019-04-09T09:55:19.519268+00:00","profile":["https://bluebutton.cms.gov/assets/ig/StructureDefinition-bluebutton-outpatient-claim"],"versionId":"MTU1NDgwMzcxOTUxOTI2ODAwMA"},"organization":{"identifier":{"value":"fea46cf5-78cb-45ba-a53c-1889a8b8ee75"}},"patient":{"reference":"Patient/00d48a80-ce29-4d28-a8d1-f41e705aee29"},"payment":{"amount":{"code":"USD","system":"urn:iso:std:iso:4217","value":0}},"provider":{"identifier":{"value":"9c1e389b-2076-44ab-917f-7e80069ab8d8"}},"resourceType":"ExplanationOfBenefit","status":"active","totalCost":{"code":"USD","system":"urn:iso:std:iso:4217","value":125},"type":{"coding":[{"code":"71","display":"Local carrier non-durable medical equipment, prosthetics, orthotics, and supplies (DMEPOS) claim","system":"https://bluebutton.cms.gov/resources/variables/nch_clm_type_cd"},{"code":"CARRIER","display":"EOB Type","system":"https://bluebutton.cms.gov/resources/codesystem/eob-type"},{"code":"professional","display":"Claim Type","system":"http://hl7.org/fhir/ex-claimtype"},{"code":"O","display":"Part B physician/supplier claim record (processed by local carriers; can include DMEPOS services)","system":"https://bluebutton.cms.gov/resources/variables/nch_near_line_rec_ident_cd"}]}}},{"resource":{"billablePeriod":{"end":"2014-04-18T23:43:14-04:00","start":"2013-04-18T23:43:14-04:00"},"careTeam":[{"provider":{"identifier":{"system":"http://hl7.org/fhir/sid/us-npi","value":"99999999"}},"role":{"coding":[{"code":"primary","display":"Primary Care Practitioner","system":"http://hl7.org/fhir/claimcareteamrole"}]},"sequence":1}],"claim":{"reference":"Claim/67a798e6-c009-4bb9-a9fe-6326b52c1a48"},"contained":[{"id":"1","intent":"order","recipient":[{"identifier":{"system":"http://hl7.org/fhir/sid/us-npi","value":"99999999"}}],"requester":{"agent":{"identifier":{"system":"http://hl7.org/fhir/sid/us-npi","value":"99999999"}}},"resourceType":"ReferralRequest","status":"completed","subject":{"reference":"Patient/00d48a80-ce29-4d28-a8d1-f41e705aee29"}},{"id":"coverage","resourceType":"Coverage","type":{"text":"medicare"}}],"created":"2013-04-18T23:43:14-04:00","id":"050d117f-b4f6-4c7d-8e98-00a2bc47d5d4","identifier":[{"system":"https://bluebutton.cms.gov/resources/variables/clm_id","value":"67a798e6-c009-4bb9-a9fe-6326b52c1a48"},{"system":"https://bluebutton.cms.gov/resources/identifier/claim-group","value":"99999999999"}],"insurance":{"coverage":{"reference":"#coverage"}},"item":[{"category":{"coding":[{"code":"1","display":"Medical care","system":"https://bluebutton.cms.gov/resources/variables/line_cms_type_srvc_cd"}]},"encounter":[{"reference":"Encounter/c7e777c8-644d-44fc-bda5-54816f38c8c9"}],"locationCodeableConcept":{"coding":[{"code":"21","display":"Inpatient Hospital","system":"https://bluebutton.cms.gov/resources/variables/line_place_of_srvc_cd"}]},"sequence":1,"servicedPeriod":{"end":"2013-04-18T23:43:14-04:00","start":"2013-04-18T23:28:14-04:00"}},{"adjudication":[{"amount":{"code":"USD","system":"urn:iso:std:iso:4217","value":4811.238},"category":{"coding":[{"code":"https://bluebutton.cms.gov/resources/variables/line_coinsrnc_amt","display":"Line Beneficiary Coinsurance Amount","system":"https://bluebutton.cms.gov/resources/codesystem/adjudication"}]}},{"amount":{"code":"USD","system":"urn:iso:std:iso:4217","value":19244.952},"category":{"coding":[{"code":"https://bluebutton.cms.gov/resources/variables/line_prvdr_pmt_amt","display":"Line Provider Payment Amount","system":"https://bluebutton.cms.gov/resources/codesystem/adjudication"}]}},{"amount":{"code":"USD","system":"urn:iso:std:iso:4217","value":24056.19},"category":{"coding":[{"code":"https://bluebutton.cms.gov/resources/variables/line_sbmtd_chrg_amt","display":"Line Submitted Charge Amount","system":"https://bluebutton.cms.gov/resources/codesystem/adjudication"}]}},{"amount":{"code":"USD","system":"urn:iso:std:iso:4217","value":24056.19},"category":{"coding":[{"code":"https://bluebutton.cms.gov/resources/variables/line_alowd_chrg_amt","display":"Line Allowed Charge Amount","system":"https://bluebutton.cms.gov/resources/codesystem/adjudication"}]}},{"amount":{"code":"USD","system":"urn:iso:std:iso:4217","value":0},"category":{"coding":[{"code":"https://bluebutton.cms.gov/resources/variables/line_bene_ptb_ddctbl_amt","display":"Line Beneficiary Part B Deductible Amount","system":"https://bluebutton.cms.gov/resources/codesystem/adjudication"}]}},{"category":{"coding":[{"code":"https://bluebutton.cms.gov/resources/variables/line_prcsg_ind_cd","display":"Line Processing Indicator Code","system":"https://bluebutton.cms.gov/resources/codesystem/adjudication"}]},"reason":{"coding":[{"code":"A","display":"Allowed","system":"https://bluebutton.cms.gov/resources/variables/line_prcsg_ind_cd"}]}}],"category":{"coding":[{"code":"1","display":"Medical care","system":"https://bluebutton.cms.gov/resources/variables/line_cms_type_srvc_cd"}]},"locationCodeableConcept":{"coding":[{"code":"21","display":"Inpatient Hospital","system":"https://bluebutton.cms.gov/resources/variables/line_place_of_srvc_cd"}]},"net":{"code":"USD","system":"urn:iso:std:iso:4217","value":24056.19},"sequence":2,"service":{"coding":[{"code":"180325003","system":"http://snomed.info/sct","version":"v1"}]},"servicedPeriod":{"end":"2013-04-18T23:43:14-04:00","start":"2013-04-18T23:28:14-04:00"}}],"meta":{"lastUpdated":"2019-04-09T09:55:22.598502+00:00","versionId":"MTU1NDgwMzcyMjU5ODUwMjAwMA"},"organization":{"identifier":{"value":"7f4ee8f4-bbd2-4ab5-a9c5-f72c446dfb00"}},"patient":{"reference":"Patient/00d48a80-ce29-4d28-a8d1-f41e705aee29"},"payment":{"amount":{"code":"USD","system":"urn:iso:std:iso:4217","value":19244.952}},"provider":{"identifier":{"value":"cc7d749d-d1e2-48e9-a800-85292a4d02e5"}},"referral":{"reference":"#1"},"resourceType":"ExplanationOfBenefit","status":"active","totalCost":{"code":"USD","system":"urn:iso:std:iso:4217","value":24181.19},"type":{"coding":[{"code":"71","display":"Local carrier non-durable medical equipment, prosthetics, orthotics, and supplies (DMEPOS) claim","system":"https://bluebutton.cms.gov/resources/variables/nch_clm_type_cd"},{"code":"CARRIER","display":"EOB Type","system":"https://bluebutton.cms.gov/resources/codesystem/eob-type"},{"code":"professional","display":"Claim Type","system":"http://hl7.org/fhir/ex-claimtype"},{"code":"O","display":"Part B physician/supplier claim record (processed by local carriers; can include DMEPOS services)","system":"https://bluebutton.cms.gov/resources/variables/nch_near_line_rec_ident_cd"}]}}},{"resource":{"billablePeriod":{"end":"2015-05-20T00:28:14-04:00","start":"2014-05-20T00:28:14-04:00"},"careTeam":[{"provider":{"identifier":{"system":"http://hl7.org/fhir/sid/us-npi","value":"99999999"}},"role":{"coding":[{"code":"primary","display":"Primary Care Practitioner","system":"http://hl7.org/fhir/claimcareteamrole"}]},"sequence":1}],"claim":{"reference":"Claim/b2d2db05-bea8-4cb4-8386-b00c41de7181"},"contained":[{"id":"1","intent":"order","recipient":[{"identifier":{"system":"http://hl7.org/fhir/sid/us-npi","value":"99999999"}}],"requester":{"agent":{"identifier":{"system":"http://hl7.org/fhir/sid/us-npi","value":"99999999"}}},"resourceType":"ReferralRequest","status":"completed","subject":{"reference":"Patient/00d48a80-ce29-4d28-a8d1-f41e705aee29"}},{"id":"coverage","resourceType":"Coverage","type":{"text":"medicare"}}],"created":"2014-05-20T00:28:14-04:00","id":"0def56b0-558f-4078-89da-af455ec44fde","identifier":[{"system":"https://bluebutton.cms.gov/resources/variables/clm_id","value":"b2d2db05-bea8-4cb4-8386-b00c41de7181"},{"system":"https://bluebutton.cms.gov/resources/identifier/claim-group","value":"99999999999"}],"insurance":{"coverage":{"reference":"#coverage"}},"item":[{"category":{"coding":[{"code":"1","display":"Medical care","system":"https://bluebutton.cms.gov/resources/variables/line_cms_type_srvc_cd"}]},"encounter":[{"reference":"Encounter/fced0f38-487e-49ba-a023-2d12659f9be6"}],"locationCodeableConcept":{"coding":[{"code":"23","display":"Emergency Room","system":"https://bluebutton.cms.gov/resources/variables/line_place_of_srvc_cd"}]},"sequence":1,"servicedPeriod":{"end":"2014-05-20T00:28:14-04:00","start":"2014-05-19T23:28:14-04:00"}}],"meta":{"lastUpdated":"2019-04-09T09:55:23.604489+00:00","versionId":"MTU1NDgwMzcyMzYwNDQ4OTAwMA"},"organization":{"identifier":{"value":"fea46cf5-78cb-45ba-a53c-1889a8b8ee75"}},"patient":{"reference":"Patient/00d48a80-ce29-4d28-a8d1-f41e705aee29"},"payment":{"amount":{"code":"USD","system":"urn:iso:std:iso:4217","value":0}},"provider":{"identifier":{"value":"9c1e389b-2076-44ab-917f-7e80069ab8d8"}},"referral":{"reference":"#1"},"resourceType":"ExplanationOfBenefit","status":"active","totalCost":{"code":"USD","system":"urn:iso:std:iso:4217","value":125},"type":{"coding":[{"code":"71","display":"Local carrier non-durable medical equipment, prosthetics, orthotics, and supplies (DMEPOS) claim","system":"https://bluebutton.cms.gov/resources/variables/nch_clm_type_cd"},{"code":"CARRIER","display":"EOB Type","system":"https://bluebutton.cms.gov/resources/codesystem/eob-type"},{"code":"professional","display":"Claim Type","system":"http://hl7.org/fhir/ex-claimtype"},{"code":"O","display":"Part B physician/supplier claim record (processed by local carriers; can include DMEPOS services)","system":"https://bluebutton.cms.gov/resources/variables/nch_near_line_rec_ident_cd"}]}}},{"resource":{"billablePeriod":{"end":"2009-09-19T00:13:14-04:00","start":"2008-09-19T00:13:14-04:00"},"careTeam":[{"provider":{"identifier":{"system":"http://hl7.org/fhir/sid/us-npi","value":"99999999"}},"role":{"coding":[{"code":"primary","display":"Primary Care Practitioner","system":"http://hl7.org/fhir/claimcareteamrole"}]},"sequence":1}],"claim":{"reference":"Claim/df04baca-aa37-4602-8ff1-086f08feb376"},"contained":[{"id":"1","intent":"order","recipient":[{"identifier":{"system":"http://hl7.org/fhir/sid/us-npi","value":"99999999"}}],"requester":{"agent":{"identifier":{"system":"http://hl7.org/fhir/sid/us-npi","value":"99999999"}}},"resourceType":"ReferralRequest","status":"completed","subject":{"reference":"Patient/00d48a80-ce29-4d28-a8d1-f41e705aee29"}},{"id":"coverage","resourceType":"Coverage","type":{"text":"medicare"}}],"created":"2008-09-19T00:13:14-04:00","id":"138c425e-a024-425d-ac6e-9bddae23791a","identifier":[{"system":"https://bluebutton.cms.gov/resources/variables/clm_id","value":"df04baca-aa37-4602-8ff1-086f08feb376"},{"system":"https://bluebutton.cms.gov/resources/identifier/claim-group","value":"99999999999"}],"insurance":{"coverage":{"reference":"#coverage"}},"item":[{"category":{"coding":[{"code":"1","display":"Medical care","system":"https://bluebutton.cms.gov/resources/variables/line_cms_type_srvc_cd"}]},"encounter":[{"reference":"Encounter/17bfd904-3584-4231-99e5-406abb219f9c"}],"locationCodeableConcept":{"coding":[{"code":"21","display":"Inpatient Hospital","system":"https://bluebutton.cms.gov/resources/variables/line_place_of_srvc_cd"}]},"sequence":1,"servicedPeriod":{"end":"2008-09-19T00:13:14-04:00","start":"2008-09-18T23:28:14-04:00"}},{"adjudication":[{"amount":{"code":"USD","system":"urn:iso:std:iso:4217","value":8773.026},"category":{"coding":[{"code":"https://bluebutton.cms.gov/resources/variables/line_coinsrnc_amt","display":"Line Beneficiary Coinsurance Amount","system":"https://bluebutton.cms.gov/resources/codesystem/adjudication"}]}},{"amount":{"code":"USD","system":"urn:iso:std:iso:4217","value":35092.104},"category":{"coding":[{"code":"https://bluebutton.cms.gov/resources/variables/line_prvdr_pmt_amt","display":"Line Provider Payment Amount","system":"https://bluebutton.cms.gov/resources/codesystem/adjudication"}]}},{"amount":{"code":"USD","system":"urn:iso:std:iso:4217","value":43865.13},"category":{"coding":[{"code":"https://bluebutton.cms.gov/resources/variables/line_sbmtd_chrg_amt","display":"Line Submitted Charge Amount","system":"https://bluebutton.cms.gov/resources/codesystem/adjudication"}]}},{"amount":{"code":"USD","system":"urn:iso:std:iso:4217","value":43865.13},"category":{"coding":[{"code":"https://bluebutton.cms.gov/resources/variables/line_alowd_chrg_amt","display":"Line Allowed Charge Amount","system":"https://bluebutton.cms.gov/resources/codesystem/adjudication"}]}},{"amount":{"code":"USD","system":"urn:iso:std:iso:4217","value":0},"category":{"coding":[{"code":"https://bluebutton.cms.gov/resources/variables/line_bene_ptb_ddctbl_amt","display":"Line Beneficiary Part B Deductible Amount","system":"https://bluebutton.cms.gov/resources/codesystem/adjudication"}]}},{"category":{"coding":[{"code":"https://bluebutton.cms.gov/resources/variables/line_prcsg_ind_cd","display":"Line Processing Indicator Code","system":"https://bluebutton.cms.gov/resources/codesystem/adjudication"}]},"reason":{"coding":[{"code":"A","display":"Allowed","system":"https://bluebutton.cms.gov/resources/variables/line_prcsg_ind_cd"}]}}],"category":{"coding":[{"code":"1","display":"Medical care","system":"https://bluebutton.cms.gov/resources/variables/line_cms_type_srvc_cd"}]},"locationCodeableConcept":{"coding":[{"code":"21","display":"Inpatient Hospital","system":"https://bluebutton.cms.gov/resources/variables/line_place_of_srvc_cd"}]},"net":{"code":"USD","system":"urn:iso:std:iso:4217","value":43865.13},"sequence":2,"service":{"coding":[{"code":"180325003","system":"http://snomed.info/sct","version":"v1"}]},"servicedPeriod":{"end":"2008-09-19T00:13:14-04:00","start":"2008-09-18T23:28:14-04:00"}},{"adjudication":[{"amount":{"code":"USD","system":"urn:iso:std:iso:4217","value":28.104000000000003},"category":{"coding":[{"code":"https://bluebutton.cms.gov/resources/variables/line_coinsrnc_amt","display":"Line Beneficiary Coinsurance Amount","system":"https://bluebutton.cms.gov/resources/codesystem/adjudication"}]}},{"amount":{"code":"USD","system":"urn:iso:std:iso:4217","value":112.41600000000001},"category":{"coding":[{"code":"https://bluebutton.cms.gov/resources/variables/line_prvdr_pmt_amt","display":"Line Provider Payment Amount","system":"https://bluebutton.cms.gov/resources/codesystem/adjudication"}]}},{"amount":{"code":"USD","system":"urn:iso:std:iso:4217","value":140.52},"category":{"coding":[{"code":"https://bluebutton.cms.gov/resources/variables/line_sbmtd_chrg_amt","display":"Line Submitted Charge Amount","system":"https://bluebutton.cms.gov/resources/codesystem/adjudication"}]}},{"amount":{"code":"USD","system":"urn:iso:std:iso:4217","value":140.52},"category":{"coding":[{"code":"https://bluebutton.cms.gov/resources/variables/line_alowd_chrg_amt","display":"Line Allowed Charge Amount","system":"https://bluebutton.cms.gov/resources/codesystem/adjudication"}]}},{"amount":{"code":"USD","system":"urn:iso:std:iso:4217","value":0},"category":{"coding":[{"code":"https://bluebutton.cms.gov/resources/variables/line_bene_ptb_ddctbl_amt","display":"Line Beneficiary Part B Deductible Amount","system":"https://bluebutton.cms.gov/resources/codesystem/adjudication"}]}},{"category":{"coding":[{"code":"https://bluebutton.cms.gov/resources/variables/line_prcsg_ind_cd","display":"Line Processing Indicator Code","system":"https://bluebutton.cms.gov/resources/codesystem/adjudication"}]},"reason":{"coding":[{"code":"A","display":"Allowed","system":"https://bluebutton.cms.gov/resources/variables/line_prcsg_ind_cd"}]}}],"category":{"coding":[{"code":"1","display":"Medical care","system":"https://bluebutton.cms.gov/resources/variables/line_cms_type_srvc_cd"}]},"informationLinkId":[1],"locationCodeableConcept":{"coding":[{"code":"21","display":"Inpatient Hospital","system":"https://bluebutton.cms.gov/resources/variables/line_place_of_srvc_cd"}]},"net":{"code":"USD","system":"urn:iso:std:iso:4217","value":140.52},"sequence":3,"servicedPeriod":{"end":"2008-09-19T00:13:14-04:00","start":"2008-09-18T23:28:14-04:00"}},{"adjudication":[{"amount":{"code":"USD","system":"urn:iso:std:iso:4217","value":119.346},"category":{"coding":[{"code":"https://bluebutton.cms.gov/resources/variables/line_coinsrnc_amt","display":"Line Beneficiary Coinsurance Amount","system":"https://bluebutton.cms.gov/resources/codesystem/adjudication"}]}},{"amount":{"code":"USD","system":"urn:iso:std:iso:4217","value":477.384},"category":{"coding":[{"code":"https://bluebutton.cms.gov/resources/variables/line_prvdr_pmt_amt","display":"Line Provider Payment Amount","system":"https://bluebutton.cms.gov/resources/codesystem/adjudication"}]}},{"amount":{"code":"USD","system":"urn:iso:std:iso:4217","value":596.73},"category":{"coding":[{"code":"https://bluebutton.cms.gov/resources/variables/line_sbmtd_chrg_amt","display":"Line Submitted Charge Amount","system":"https://bluebutton.cms.gov/resources/codesystem/adjudication"}]}},{"amount":{"code":"USD","system":"urn:iso:std:iso:4217","value":596.73},"category":{"coding":[{"code":"https://bluebutton.cms.gov/resources/variables/line_alowd_chrg_amt","display":"Line Allowed Charge Amount","system":"https://bluebutton.cms.gov/resources/codesystem/adjudication"}]}},{"amount":{"code":"USD","system":"urn:iso:std:iso:4217","value":0},"category":{"coding":[{"code":"https://bluebutton.cms.gov/resources/variables/line_bene_ptb_ddctbl_amt","display":"Line Beneficiary Part B Deductible Amount","system":"https://bluebutton.cms.gov/resources/codesystem/adjudication"}]}},{"category":{"coding":[{"code":"https://bluebutton.cms.gov/resources/variables/line_prcsg_ind_cd","display":"Line Processing Indicator Code","system":"https://bluebutton.cms.gov/resources/codesystem/adjudication"}]},"reason":{"coding":[{"code":"A","display":"Allowed","system":"https://bluebutton.cms.gov/resources/variables/line_prcsg_ind_cd"}]}}],"category":{"coding":[{"code":"1","display":"Medical care","system":"https://bluebutton.cms.gov/resources/variables/line_cms_type_srvc_cd"}]},"locationCodeableConcept":{"coding":[{"code":"21","display":"Inpatient Hospital","system":"https://bluebutton.cms.gov/resources/variables/line_place_of_srvc_cd"}]},"net":{"code":"USD","system":"urn:iso:std:iso:4217","value":596.73},"sequence":4,"service":{"coding":[{"code":"428191000124101","system":"http://snomed.info/sct","version":"v1"}]},"servicedPeriod":{"end":"2008-09-19T00:13:14-04:00","start":"2008-09-18T23:28:14-04:00"}}],"meta":{"lastUpdated":"2019-04-09T09:55:19.585724+00:00","versionId":"MTU1NDgwMzcxOTU4NTcyNDAwMA"},"organization":{"identifier":{"value":"fea46cf5-78cb-45ba-a53c-1889a8b8ee75"}},"patient":{"reference":"Patient/00d48a80-ce29-4d28-a8d1-f41e705aee29"},"payment":{"amount":{"code":"USD","system":"urn:iso:std:iso:4217","value":35681.903999999995}},"provider":{"identifier":{"value":"9c1e389b-2076-44ab-917f-7e80069ab8d8"}},"referral":{"reference":"#1"},"resourceType":"ExplanationOfBenefit","status":"active","totalCost":{"code":"USD","system":"urn:iso:std:iso:4217","value":44727.38},"type":{"coding":[{"code":"71","display":"Local carrier non-durable medical equipment, prosthetics, orthotics, and supplies (DMEPOS) claim","system":"https://bluebutton.cms.gov/resources/variables/nch_clm_type_cd"},{"code":"CARRIER","display":"EOB Type","system":"https://bluebutton.cms.gov/resources/codesystem/eob-type"},{"code":"professional","display":"Claim Type","system":"http://hl7.org/fhir/ex-claimtype"},{"code":"O","display":"Part B physician/supplier claim record (processed by local carriers; can include DMEPOS services)","system":"https://bluebutton.cms.gov/resources/variables/nch_near_line_rec_ident_cd"}]}}},{"resource":{"billablePeriod":{"end":"1940-11-30T23:13:14-05:00","extension":[{"url":"https://bluebutton.cms.gov/assets/ig/StructureDefinition-bluebutton-inpatient-claim-query-cd-extension","valueCoding":{"code":"3","display":"Final Bill","system":"https://bluebutton.cms.gov/assets/ig/ValueSet-claim-query-cd"}}],"start":"1939-11-30T23:13:14-05:00"},"careTeam":[{"provider":{"identifier":{"system":"http://hl7.org/fhir/sid/us-npi","value":"99999999"}},"role":{"coding":[{"code":"primary","display":"Primary Care Practitioner","system":"http://hl7.org/fhir/claimcareteamrole"}]},"sequence":1}],"contained":[{"id":"coverage","resourceType":"Coverage","type":{"text":"private"}}],"diagnosis":[{"diagnosisReference":{"reference":"Condition/aebf279e-119c-4eee-82b3-a21455dc8db7"},"extension":[{"url":"https://bluebutton.cms.gov/assets/ig/StructureDefinition-bluebutton-inpatient-clm-poa-ind-sw1-extension","valueCoding":{"code":"Y","display":"Diagnosis present at time of admission","system":"https://bluebutton.cms.gov/assets/ig/CodeSystem-clm-poa-ind-sw1"}}],"sequence":1,"type":[{"coding":[{"code":"principal","system":"https://bluebutton.cms.gov/resources/codesystem/diagnosis-type"}]}]}],"extension":[{"url":"https://bluebutton.cms.gov/assets/ig/StructureDefinition-bluebutton-inpatient-ime-op-clm-val-amt-extension","valueMoney":{"code":"USD","system":"urn:iso:std:iso:4217","value":400}},{"url":"https://bluebutton.cms.gov/assets/ig/StructureDefinition-bluebutton-inpatient-dsh-op-clm-val-amt-extension","valueMoney":{"code":"USD","system":"urn:iso:std:iso:4217","value":0}},{"url":"https://bluebutton.cms.gov/assets/ig/StructureDefinition-bluebutton-inpatient-clm-pass-thru-per-diem-amt-extension","valueMoney":{"code":"USD","system":"urn:iso:std:iso:4217","value":0}},{"url":"https://bluebutton.cms.gov/assets/ig/StructureDefinition-bluebutton-inpatient-nch-profnl-cmpnt-chrg-amt-extension","valueMoney":{"code":"USD","system":"urn:iso:std:iso:4217","value":0}},{"url":"https://bluebutton.cms.gov/assets/ig/StructureDefinition-bluebutton-inpatient-clm-tot-pps-cptl-amt-extension","valueMoney":{"code":"USD","system":"urn:iso:std:iso:4217","value":0}},{"url":"https://bluebutton.cms.gov/assets/ig/StructureDefinition-bluebutton-inpatient-nch-bene-ip-ddctbl-amt-extension","valueMoney":{"code":"USD","system":"urn:iso:std:iso:4217","value":0}},{"url":"https://bluebutton.cms.gov/assets/ig/StructureDefinition-bluebutton-inpatient-nch-bene-pta-coinsrnc-lblty-amt-extension","valueMoney":{"code":"USD","system":"urn:iso:std:iso:4217","value":0}},{"url":"https://bluebutton.cms.gov/assets/ig/StructureDefinition-bluebutton-inpatient-nch-ip-ncvrd-chrg-amt-extension","valueMoney":{"code":"USD","system":"urn:iso:std:iso:4217","value":0}},{"url":"https://bluebutton.cms.gov/assets/ig/StructureDefinition-bluebutton-inpatient-nch-ip-tot-ddctn-amt-extension","valueMoney":{"code":"USD","system":"urn:iso:std:iso:4217","value":0}},{"url":"https://bluebutton.cms.gov/assets/ig/StructureDefinition-bluebutton-inpatient-clm-pps-cptl-dsprprtnt-shr-amt-extension","valueMoney":{"code":"USD","system":"urn:iso:std:iso:4217","value":0}},{"url":"https://bluebutton.cms.gov/assets/ig/StructureDefinition-bluebutton-inpatient-clm-pps-cptl-excptn-amt-extension","valueMoney":{"code":"USD","system":"urn:iso:std:iso:4217","value":0}},{"url":"https://bluebutton.cms.gov/assets/ig/StructureDefinition-bluebutton-inpatient-clm-pps-cptl-fsp-amt-extension","valueMoney":{"code":"USD","system":"urn:iso:std:iso:4217","value":0}},{"url":"https://bluebutton.cms.gov/assets/ig/StructureDefinition-bluebutton-inpatient-clm-pps-cptl-ime-amt-extension","valueMoney":{"code":"USD","system":"urn:iso:std:iso:4217","value":400}},{"url":"https://bluebutton.cms.gov/assets/ig/StructureDefinition-bluebutton-inpatient-clm-pps-cptl-outlier-amt-extension","valueMoney":{"code":"USD","system":"urn:iso:std:iso:4217","value":0}},{"url":"https://bluebutton.cms.gov/assets/ig/StructureDefinition-bluebutton-inpatient-clm-pps-old-cptl-hld-hrmls-amt-extension","valueMoney":{"code":"USD","system":"urn:iso:std:iso:4217","value":0}},{"url":"https://bluebutton.cms.gov/assets/ig/StructureDefinition-bluebutton-inpatient-nch-drg-outlier-aprvd-pmt-amt-extension","valueMoney":{"code":"USD","system":"urn:iso:std:iso:4217","value":0}},{"url":"https://bluebutton.cms.gov/assets/ig/StructureDefinition-bluebutton-inpatient-nch-bene-blood-ddctbl-lblty-am-extension","valueMoney":{"code":"USD","system":"urn:iso:std:iso:4217","value":0}},{"url":"https://bluebutton.cms.gov/assets/ig/StructureDefinition-bluebutton-inpatient-clm-mdcr-non-pmt-rsn-cd-extension","valueCoding":{"code":"N","display":"All other reasons for non-payment","system":"https://bluebutton.cms.gov/assets/ig/CodeSystem-clm-mdcr-non-pmt-rsn-cd"}},{"url":"https://bluebutton.cms.gov/assets/ig/StructureDefinition-bluebutton-inpatient-prpayamt-extension","valueMoney":{"code":"USD","system":"urn:iso:std:iso:4217","value":0}},{"url":"https://bluebutton.cms.gov/assets/ig/StructureDefinition-bluebutton-inpatient-fi-num-extension","valueIdentifier":{"system":"https://bluebutton.cms.gov/assets/ig/CodeSystem-fi-num","value":"002000"}}],"id":"13f22ac2-7b14-466e-85ac-bd051830a5f2","identifier":[{"system":"https://bluebutton.cms.gov/resources/variables/clm_id","value":"012027b6-c8fc-4fdc-8213-6a95b83a3dba"},{"system":"https://bluebutton.cms.gov/resources/identifier/claim-group","value":"99999999999"}],"insurance":{"coverage":{"reference":"#coverage"}},"item":[{"extension":[{"url":"https://bluebutton.cms.gov/assets/ig/StructureDefinition-bluebutton-inpatient-rev-cntr-ndc-qty-extension","valueQuantity":{"value":0}}],"locationCodeableConcept":{"coding":[{"code":"21","display":"Inpatient Hospital","system":"https://bluebutton.cms.gov/resources/variables/line_place_of_srvc_cd"}]},"sequence":1},{"extension":[{"url":"https://bluebutton.cms.gov/assets/ig/StructureDefinition-bluebutton-inpatient-rev-cntr-ndc-qty-extension","valueQuantity":{"value":0}}],"locationCodeableConcept":{"coding":[{"code":"21","display":"Inpatient Hospital","system":"https://bluebutton.cms.gov/resources/variables/line_place_of_srvc_cd"}]},"sequence":2}],"meta":{"lastUpdated":"2019-04-09T09:55:14.394405+00:00","profile":["https://bluebutton.cms.gov/assets/ig/StructureDefinition-bluebutton-inpatient-claim"],"versionId":"MTU1NDgwMzcxNDM5NDQwNTAwMA"},"organization":{"identifier":{"value":"fea46cf5-78cb-45ba-a53c-1889a8b8ee75"}},"patient":{"reference":"Patient/00d48a80-ce29-4d28-a8d1-f41e705aee29"},"payment":{"amount":{"code":"USD","system":"urn:iso:std:iso:4217","value":0}},"provider":{"identifier":{"value":"9c1e389b-2076-44ab-917f-7e80069ab8d8"}},"resourceType":"ExplanationOfBenefit","status":"active","totalCost":{"code":"USD","system":"urn:iso:std:iso:4217","value":125},"type":{"coding":[{"code":"71","display":"Local carrier non-durable medical equipment, prosthetics, orthotics, and supplies (DMEPOS) claim","system":"https://bluebutton.cms.gov/resources/variables/nch_clm_type_cd"},{"code":"CARRIER","display":"EOB Type","system":"https://bluebutton.cms.gov/resources/codesystem/eob-type"},{"code":"professional","display":"Claim Type","system":"http://hl7.org/fhir/ex-claimtype"},{"code":"O","display":"Part B physician/supplier claim record (processed by local carriers; can include DMEPOS services)","system":"https://bluebutton.cms.gov/resources/variables/nch_near_line_rec_ident_cd"}]}}},{"resource":{"billablePeriod":{"end":"2014-12-24T22:43:14-05:00","extension":[{"url":"https://bluebutton.cms.gov/assets/ig/StructureDefinition-bluebutton-outpatient-claim-query-cd-extension","valueCoding":{"code":"3","display":"Final Bill","system":"https://bluebutton.cms.gov/assets/ig/ValueSet-claim-query-cd"}}],"start":"2013-12-24T22:43:14-05:00"},"careTeam":[{"provider":{"identifier":{"system":"http://hl7.org/fhir/sid/us-npi","value":"99999999"}},"role":{"coding":[{"code":"primary","display":"Primary Care Practitioner","system":"http://hl7.org/fhir/claimcareteamrole"}]},"sequence":1}],"contained":[{"id":"coverage","resourceType":"Coverage","type":{"text":"medicare"}}],"extension":[{"url":"https://bluebutton.cms.gov/assets/ig/StructureDefinition-bluebutton-outpatient-nch-profnl-cmpnt-chrg-amt-extension","valueMoney":{"code":"USD","system":"urn:iso:std:iso:4217","value":0}},{"url":"https://bluebutton.cms.gov/assets/ig/StructureDefinition-bluebutton-outpatient-nch-bene-ptb-ddctbl-amt-extension","valueMoney":{"code":"USD","system":"urn:iso:std:iso:4217","value":0}},{"url":"https://bluebutton.cms.gov/assets/ig/StructureDefinition-bluebutton-outpatient-nch-bene-ptb-coinsrnc-amt-extension","valueMoney":{"code":"USD","system":"urn:iso:std:iso:4217","value":0}},{"url":"https://bluebutton.cms.gov/assets/ig/StructureDefinition-bluebutton-outpatient-clm-op-prvdr-pmt-amt-extension","valueMoney":{"code":"USD","system":"urn:iso:std:iso:4217","value":0}},{"url":"https://bluebutton.cms.gov/assets/ig/StructureDefinition-bluebutton-outpatient-clm-op-bene-pmt-amt-extension","valueMoney":{"code":"USD","system":"urn:iso:std:iso:4217","value":0}},{"url":"https://bluebutton.cms.gov/assets/ig/StructureDefinition-bluebutton-outpatient-nch-bene-blood-ddctbl-lblty-am-extension","valueMoney":{"code":"USD","system":"urn:iso:std:iso:4217","value":0}},{"url":"https://bluebutton.cms.gov/assets/ig/StructureDefinition-bluebutton-outpatient-clm-mdcr-non-pmt-rsn-cd-extension","valueCoding":{"code":"N","display":"All other reasons for non-payment","system":"https://bluebutton.cms.gov/assets/ig/CodeSystem-clm-mdcr-non-pmt-rsn-cd"}},{"url":"https://bluebutton.cms.gov/assets/ig/StructureDefinition-bluebutton-outpatient-prpayamt-extension","valueMoney":{"code":"USD","system":"urn:iso:std:iso:4217","value":0}},{"url":"https://bluebutton.cms.gov/assets/ig/StructureDefinition-bluebutton-outpatient-fi-num-extension","valueIdentifier":{"system":"https://bluebutton.cms.gov/assets/ig/CodeSystem-fi-num","value":"002000"}}],"id":"185946e9-fc9b-4835-b815-f808f7a9ba1e","identifier":[{"system":"https://bluebutton.cms.gov/resources/variables/clm_id","value":"a942e833-f1e0-4126-a2b3-1d70c6f6f13c"},{"system":"https://bluebutton.cms.gov/resources/identifier/claim-group","value":"99999999999"}],"insurance":{"coverage":{"reference":"#coverage"}},"item":[{"extension":[{"url":"https://bluebutton.cms.gov/assets/ig/StructureDefinition-bluebutton-outpatient-rev-cntr-ndc-qty-extension","valueQuantity":{"value":0}}],"locationCodeableConcept":{"coding":[{"code":"21","display":"Inpatient Hospital","system":"https://bluebutton.cms.gov/resources/variables/line_place_of_srvc_cd"}]},"sequence":1}],"meta":{"lastUpdated":"2019-04-09T09:55:22.595672+00:00","profile":["https://bluebutton.cms.gov/assets/ig/StructureDefinition-bluebutton-outpatient-claim"],"versionId":"MTU1NDgwMzcyMjU5NTY3MjAwMA"},"organization":{"identifier":{"value":"fea46cf5-78cb-45ba-a53c-1889a8b8ee75"}},"patient":{"reference":"Patient/00d48a80-ce29-4d28-a8d1-f41e705aee29"},"payment":{"amount":{"code":"USD","system":"urn:iso:std:iso:4217","value":0}},"provider":{"identifier":{"value":"9c1e389b-2076-44ab-917f-7e80069ab8d8"}},"resourceType":"ExplanationOfBenefit","status":"active","totalCost":{"code":"USD","system":"urn:iso:std:iso:4217","value":125},"type":{"coding":[{"code":"71","display":"Local carrier non-durable medical equipment, prosthetics, orthotics, and supplies (DMEPOS) claim","system":"https://bluebutton.cms.gov/resources/variables/nch_clm_type_cd"},{"code":"CARRIER","display":"EOB Type","system":"https://bluebutton.cms.gov/resources/codesystem/eob-type"},{"code":"professional","display":"Claim Type","system":"http://hl7.org/fhir/ex-claimtype"},{"code":"O","display":"Part B physician/supplier claim record (processed by local carriers; can include DMEPOS services)","system":"https://bluebutton.cms.gov/resources/variables/nch_near_line_rec_ident_cd"}]}}},{"resource":{"billablePeriod":{"end":"2006-04-15T00:13:14-04:00","start":"2005-04-15T00:13:14-04:00"},"careTeam":[{"provider":{"identifier":{"system":"http://hl7.org/fhir/sid/us-npi","value":"99999999"}},"role":{"coding":[{"code":"primary","display":"Primary Care Practitioner","system":"http://hl7.org/fhir/claimcareteamrole"}]},"sequence":1}],"claim":{"reference":"Claim/25490c5d-0f69-4412-b890-a54c7df27ade"},"contained":[{"id":"1","intent":"order","recipient":[{"identifier":{"system":"http://hl7.org/fhir/sid/us-npi","value":"99999999"}}],"requester":{"agent":{"identifier":{"system":"http://hl7.org/fhir/sid/us-npi","value":"99999999"}}},"resourceType":"ReferralRequest","status":"completed","subject":{"reference":"Patient/00d48a80-ce29-4d28-a8d1-f41e705aee29"}},{"id":"coverage","resourceType":"Coverage","type":{"text":"medicare"}}],"created":"2005-04-15T00:13:14-04:00","id":"18cc9c52-cc27-45f6-9e3f-f62f06128e0f","identifier":[{"system":"https://bluebutton.cms.gov/resources/variables/clm_id","value":"25490c5d-0f69-4412-b890-a54c7df27ade"},{"system":"https://bluebutton.cms.gov/resources/identifier/claim-group","value":"99999999999"}],"insurance":{"coverage":{"reference":"#coverage"}},"item":[{"category":{"coding":[{"code":"1","display":"Medical care","system":"https://bluebutton.cms.gov/resources/variables/line_cms_type_srvc_cd"}]},"encounter":[{"reference":"Encounter/1fc324e2-5ed4-4211-85ff-48a823a09da4"}],"locationCodeableConcept":{"coding":[{"code":"21","display":"Inpatient Hospital","system":"https://bluebutton.cms.gov/resources/variables/line_place_of_srvc_cd"}]},"sequence":1,"servicedPeriod":{"end":"2005-04-15T00:13:14-04:00","start":"2005-04-14T23:28:14-04:00"}},{"adjudication":[{"amount":{"code":"USD","system":"urn:iso:std:iso:4217","value":6219.814},"category":{"coding":[{"code":"https://bluebutton.cms.gov/resources/variables/line_coinsrnc_amt","display":"Line Beneficiary Coinsurance Amount","system":"https://bluebutton.cms.gov/resources/codesystem/adjudication"}]}},{"amount":{"code":"USD","system":"urn:iso:std:iso:4217","value":24879.256},"category":{"coding":[{"code":"https://bluebutton.cms.gov/resources/variables/line_prvdr_pmt_amt","display":"Line Provider Payment Amount","system":"https://bluebutton.cms.gov/resources/codesystem/adjudication"}]}},{"amount":{"code":"USD","system":"urn:iso:std:iso:4217","value":31099.07},"category":{"coding":[{"code":"https://bluebutton.cms.gov/resources/variables/line_sbmtd_chrg_amt","display":"Line Submitted Charge Amount","system":"https://bluebutton.cms.gov/resources/codesystem/adjudication"}]}},{"amount":{"code":"USD","system":"urn:iso:std:iso:4217","value":31099.07},"category":{"coding":[{"code":"https://bluebutton.cms.gov/resources/variables/line_alowd_chrg_amt","display":"Line Allowed Charge Amount","system":"https://bluebutton.cms.gov/resources/codesystem/adjudication"}]}},{"amount":{"code":"USD","system":"urn:iso:std:iso:4217","value":0},"category":{"coding":[{"code":"https://bluebutton.cms.gov/resources/variables/line_bene_ptb_ddctbl_amt","display":"Line Beneficiary Part B Deductible Amount","system":"https://bluebutton.cms.gov/resources/codesystem/adjudication"}]}},{"category":{"coding":[{"code":"https://bluebutton.cms.gov/resources/variables/line_prcsg_ind_cd","display":"Line Processing Indicator Code","system":"https://bluebutton.cms.gov/resources/codesystem/adjudication"}]},"reason":{"coding":[{"code":"A","display":"Allowed","system":"https://bluebutton.cms.gov/resources/variables/line_prcsg_ind_cd"}]}}],"category":{"coding":[{"code":"1","display":"Medical care","system":"https://bluebutton.cms.gov/resources/variables/line_cms_type_srvc_cd"}]},"locationCodeableConcept":{"coding":[{"code":"21","display":"Inpatient Hospital","system":"https://bluebutton.cms.gov/resources/variables/line_place_of_srvc_cd"}]},"net":{"code":"USD","system":"urn:iso:std:iso:4217","value":31099.07},"sequence":2,"service":{"coding":[{"code":"180325003","system":"http://snomed.info/sct","version":"v1"}]},"servicedPeriod":{"end":"2005-04-15T00:13:14-04:00","start":"2005-04-14T23:28:14-04:00"}},{"adjudication":[{"amount":{"code":"USD","system":"urn:iso:std:iso:4217","value":28.104000000000003},"category":{"coding":[{"code":"https://bluebutton.cms.gov/resources/variables/line_coinsrnc_amt","display":"Line Beneficiary Coinsurance Amount","system":"https://bluebutton.cms.gov/resources/codesystem/adjudication"}]}},{"amount":{"code":"USD","system":"urn:iso:std:iso:4217","value":112.41600000000001},"category":{"coding":[{"code":"https://bluebutton.cms.gov/resources/variables/line_prvdr_pmt_amt","display":"Line Provider Payment Amount","system":"https://bluebutton.cms.gov/resources/codesystem/adjudication"}]}},{"amount":{"code":"USD","system":"urn:iso:std:iso:4217","value":140.52},"category":{"coding":[{"code":"https://bluebutton.cms.gov/resources/variables/line_sbmtd_chrg_amt","display":"Line Submitted Charge Amount","system":"https://bluebutton.cms.gov/resources/codesystem/adjudication"}]}},{"amount":{"code":"USD","system":"urn:iso:std:iso:4217","value":140.52},"category":{"coding":[{"code":"https://bluebutton.cms.gov/resources/variables/line_alowd_chrg_amt","display":"Line Allowed Charge Amount","system":"https://bluebutton.cms.gov/resources/codesystem/adjudication"}]}},{"amount":{"code":"USD","system":"urn:iso:std:iso:4217","value":0},"category":{"coding":[{"code":"https://bluebutton.cms.gov/resources/variables/line_bene_ptb_ddctbl_amt","display":"Line Beneficiary Part B Deductible Amount","system":"https://bluebutton.cms.gov/resources/codesystem/adjudication"}]}},{"category":{"coding":[{"code":"https://bluebutton.cms.gov/resources/variables/line_prcsg_ind_cd","display":"Line Processing Indicator Code","system":"https://bluebutton.cms.gov/resources/codesystem/adjudication"}]},"reason":{"coding":[{"code":"A","display":"Allowed","system":"https://bluebutton.cms.gov/resources/variables/line_prcsg_ind_cd"}]}}],"category":{"coding":[{"code":"1","display":"Medical care","system":"https://bluebutton.cms.gov/resources/variables/line_cms_type_srvc_cd"}]},"informationLinkId":[1],"locationCodeableConcept":{"coding":[{"code":"21","display":"Inpatient Hospital","system":"https://bluebutton.cms.gov/resources/variables/line_place_of_srvc_cd"}]},"net":{"code":"USD","system":"urn:iso:std:iso:4217","value":140.52},"sequence":3,"servicedPeriod":{"end":"2005-04-15T00:13:14-04:00","start":"2005-04-14T23:28:14-04:00"}},{"adjudication":[{"amount":{"code":"USD","system":"urn:iso:std:iso:4217","value":80.238},"category":{"coding":[{"code":"https://bluebutton.cms.gov/resources/variables/line_coinsrnc_amt","display":"Line Beneficiary Coinsurance Amount","system":"https://bluebutton.cms.gov/resources/codesystem/adjudication"}]}},{"amount":{"code":"USD","system":"urn:iso:std:iso:4217","value":320.952},"category":{"coding":[{"code":"https://bluebutton.cms.gov/resources/variables/line_prvdr_pmt_amt","display":"Line Provider Payment Amount","system":"https://bluebutton.cms.gov/resources/codesystem/adjudication"}]}},{"amount":{"code":"USD","system":"urn:iso:std:iso:4217","value":401.19},"category":{"coding":[{"code":"https://bluebutton.cms.gov/resources/variables/line_sbmtd_chrg_amt","display":"Line Submitted Charge Amount","system":"https://bluebutton.cms.gov/resources/codesystem/adjudication"}]}},{"amount":{"code":"USD","system":"urn:iso:std:iso:4217","value":401.19},"category":{"coding":[{"code":"https://bluebutton.cms.gov/resources/variables/line_alowd_chrg_amt","display":"Line Allowed Charge Amount","system":"https://bluebutton.cms.gov/resources/codesystem/adjudication"}]}},{"amount":{"code":"USD","system":"urn:iso:std:iso:4217","value":0},"category":{"coding":[{"code":"https://bluebutton.cms.gov/resources/variables/line_bene_ptb_ddctbl_amt","display":"Line Beneficiary Part B Deductible Amount","system":"https://bluebutton.cms.gov/resources/codesystem/adjudication"}]}},{"category":{"coding":[{"code":"https://bluebutton.cms.gov/resources/variables/line_prcsg_ind_cd","display":"Line Processing Indicator Code","system":"https://bluebutton.cms.gov/resources/codesystem/adjudication"}]},"reason":{"coding":[{"code":"A","display":"Allowed","system":"https://bluebutton.cms.gov/resources/variables/line_prcsg_ind_cd"}]}}],"category":{"coding":[{"code":"1","display":"Medical care","system":"https://bluebutton.cms.gov/resources/variables/line_cms_type_srvc_cd"}]},"locationCodeableConcept":{"coding":[{"code":"21","display":"Inpatient Hospital","system":"https://bluebutton.cms.gov/resources/variables/line_place_of_srvc_cd"}]},"net":{"code":"USD","system":"urn:iso:std:iso:4217","value":401.19},"sequence":4,"service":{"coding":[{"code":"428191000124101","system":"http://snomed.info/sct","version":"v1"}]},"servicedPeriod":{"end":"2005-04-15T00:13:14-04:00","start":"2005-04-14T23:28:14-04:00"}}],"meta":{"lastUpdated":"2019-04-09T09:55:16.421079+00:00","versionId":"MTU1NDgwMzcxNjQyMTA3OTAwMA"},"organization":{"identifier":{"value":"fea46cf5-78cb-45ba-a53c-1889a8b8ee75"}},"patient":{"reference":"Patient/00d48a80-ce29-4d28-a8d1-f41e705aee29"},"payment":{"amount":{"code":"USD","system":"urn:iso:std:iso:4217","value":25312.624000000003}},"provider":{"identifier":{"value":"9c1e389b-2076-44ab-917f-7e80069ab8d8"}},"referral":{"reference":"#1"},"resourceType":"ExplanationOfBenefit","status":"active","totalCost":{"code":"USD","system":"urn:iso:std:iso:4217","value":31765.78},"type":{"coding":[{"code":"71","display":"Local carrier non-durable medical equipment, prosthetics, orthotics, and supplies (DMEPOS) claim","system":"https://bluebutton.cms.gov/resources/variables/nch_clm_type_cd"},{"code":"CARRIER","display":"EOB Type","system":"https://bluebutton.cms.gov/resources/codesystem/eob-type"},{"code":"professional","display":"Claim Type","system":"http://hl7.org/fhir/ex-claimtype"},{"code":"O","display":"Part B physician/supplier claim record (processed by local carriers; can include DMEPOS services)","system":"https://bluebutton.cms.gov/resources/variables/nch_near_line_rec_ident_cd"}]}}},{"resource":{"billablePeriod":{"end":"2015-01-23T22:43:14-05:00","extension":[{"url":"https://bluebutton.cms.gov/assets/ig/StructureDefinition-bluebutton-outpatient-claim-query-cd-extension","valueCoding":{"code":"3","display":"Final Bill","system":"https://bluebutton.cms.gov/assets/ig/ValueSet-claim-query-cd"}}],"start":"2014-01-23T22:43:14-05:00"},"careTeam":[{"provider":{"identifier":{"system":"http://hl7.org/fhir/sid/us-npi","value":"99999999"}},"role":{"coding":[{"code":"primary","display":"Primary Care Practitioner","system":"http://hl7.org/fhir/claimcareteamrole"}]},"sequence":1}],"contained":[{"id":"coverage","resourceType":"Coverage","type":{"text":"medicare"}}],"extension":[{"url":"https://bluebutton.cms.gov/assets/ig/StructureDefinition-bluebutton-outpatient-nch-profnl-cmpnt-chrg-amt-extension","valueMoney":{"code":"USD","system":"urn:iso:std:iso:4217","value":0}},{"url":"https://bluebutton.cms.gov/assets/ig/StructureDefinition-bluebutton-outpatient-nch-bene-ptb-ddctbl-amt-extension","valueMoney":{"code":"USD","system":"urn:iso:std:iso:4217","value":0}},{"url":"https://bluebutton.cms.gov/assets/ig/StructureDefinition-bluebutton-outpatient-nch-bene-ptb-coinsrnc-amt-extension","valueMoney":{"code":"USD","system":"urn:iso:std:iso:4217","value":0}},{"url":"https://bluebutton.cms.gov/assets/ig/StructureDefinition-bluebutton-outpatient-clm-op-prvdr-pmt-amt-extension","valueMoney":{"code":"USD","system":"urn:iso:std:iso:4217","value":0}},{"url":"https://bluebutton.cms.gov/assets/ig/StructureDefinition-bluebutton-outpatient-clm-op-bene-pmt-amt-extension","valueMoney":{"code":"USD","system":"urn:iso:std:iso:4217","value":0}},{"url":"https://bluebutton.cms.gov/assets/ig/StructureDefinition-bluebutton-outpatient-nch-bene-blood-ddctbl-lblty-am-extension","valueMoney":{"code":"USD","system":"urn:iso:std:iso:4217","value":0}},{"url":"https://bluebutton.cms.gov/assets/ig/StructureDefinition-bluebutton-outpatient-clm-mdcr-non-pmt-rsn-cd-extension","valueCoding":{"code":"N","display":"All other reasons for non-payment","system":"https://bluebutton.cms.gov/assets/ig/CodeSystem-clm-mdcr-non-pmt-rsn-cd"}},{"url":"https://bluebutton.cms.gov/assets/ig/StructureDefinition-bluebutton-outpatient-prpayamt-extension","valueMoney":{"code":"USD","system":"urn:iso:std:iso:4217","value":0}},{"url":"https://bluebutton.cms.gov/assets/ig/StructureDefinition-bluebutton-outpatient-fi-num-extension","valueIdentifier":{"system":"https://bluebutton.cms.gov/assets/ig/CodeSystem-fi-num","value":"002000"}}],"id":"1aaf0630-8c67-45c3-b906-4d8a2bf480be","identifier":[{"system":"https://bluebutton.cms.gov/resources/variables/clm_id","value":"fb7a844c-2c4b-4129-9521-52bd897e631f"},{"system":"https://bluebutton.cms.gov/resources/identifier/claim-group","value":"99999999999"}],"insurance":{"coverage":{"reference":"#coverage"}},"item":[{"extension":[{"url":"https://bluebutton.cms.gov/assets/ig/StructureDefinition-bluebutton-outpatient-rev-cntr-ndc-qty-extension","valueQuantity":{"value":0}}],"locationCodeableConcept":{"coding":[{"code":"21","display":"Inpatient Hospital","system":"https://bluebutton.cms.gov/resources/variables/line_place_of_srvc_cd"}]},"sequence":1}],"meta":{"lastUpdated":"2019-04-09T09:55:22.596223+00:00","profile":["https://bluebutton.cms.gov/assets/ig/StructureDefinition-bluebutton-outpatient-claim"],"versionId":"MTU1NDgwMzcyMjU5NjIyMzAwMA"},"organization":{"identifier":{"value":"fea46cf5-78cb-45ba-a53c-1889a8b8ee75"}},"patient":{"reference":"Patient/00d48a80-ce29-4d28-a8d1-f41e705aee29"},"payment":{"amount":{"code":"USD","system":"urn:iso:std:iso:4217","value":0}},"provider":{"identifier":{"value":"9c1e389b-2076-44ab-917f-7e80069ab8d8"}},"resourceType":"ExplanationOfBenefit","status":"active","totalCost":{"code":"USD","system":"urn:iso:std:iso:4217","value":125},"type":{"coding":[{"code":"71","display":"Local carrier non-durable medical equipment, prosthetics, orthotics, and supplies (DMEPOS) claim","system":"https://bluebutton.cms.gov/resources/variables/nch_clm_type_cd"},{"code":"CARRIER","display":"EOB Type","system":"https://bluebutton.cms.gov/resources/codesystem/eob-type"},{"code":"professional","display":"Claim Type","system":"http://hl7.org/fhir/ex-claimtype"},{"code":"O","display":"Part B physician/supplier claim record (processed by local carriers; can include DMEPOS services)","system":"https://bluebutton.cms.gov/resources/variables/nch_near_line_rec_ident_cd"}]}}},{"resource":{"billablePeriod":{"end":"1986-12-26T22:58:14-05:00","start":"1985-12-26T22:58:14-05:00"},"careTeam":[{"provider":{"identifier":{"system":"http://hl7.org/fhir/sid/us-npi","value":"99999999"}},"role":{"coding":[{"code":"primary","display":"Primary Care Practitioner","system":"http://hl7.org/fhir/claimcareteamrole"}]},"sequence":1}],"claim":{"reference":"Claim/a5b6e0de-3add-4374-b184-d6a30cb80be8"},"contained":[{"id":"1","intent":"order","recipient":[{"identifier":{"system":"http://hl7.org/fhir/sid/us-npi","value":"99999999"}}],"requester":{"agent":{"identifier":{"system":"http://hl7.org/fhir/sid/us-npi","value":"99999999"}}},"resourceType":"ReferralRequest","status":"completed","subject":{"reference":"Patient/00d48a80-ce29-4d28-a8d1-f41e705aee29"}},{"id":"coverage","resourceType":"Coverage","type":{"text":"medicare"}}],"created":"1985-12-26T22:58:14-05:00","diagnosis":[{"diagnosisReference":{"reference":"Condition/a943e1e4-fd0d-4d96-bed2-0fd99c306a7b"},"extension":[{"url":"https://bluebutton.cms.gov/assets/ig/StructureDefinition-bluebutton-inpatient-clm-poa-ind-sw1-extension","valueCoding":{"code":"Y","display":"Diagnosis present at time of admission","system":"https://bluebutton.cms.gov/assets/ig/CodeSystem-clm-poa-ind-sw1"}}],"sequence":1,"type":[{"coding":[{"code":"principal","system":"https://bluebutton.cms.gov/resources/codesystem/diagnosis-type"}]}]}],"id":"1b009749-17df-4a3d-a5a2-a91e844bbc2b","identifier":[{"system":"https://bluebutton.cms.gov/resources/variables/clm_id","value":"a5b6e0de-3add-4374-b184-d6a30cb80be8"},{"system":"https://bluebutton.cms.gov/resources/identifier/claim-group","value":"99999999999"}],"insurance":{"coverage":{"reference":"#coverage"}},"item":[{"category":{"coding":[{"code":"1","display":"Medical care","system":"https://bluebutton.cms.gov/resources/variables/line_cms_type_srvc_cd"}]},"encounter":[{"reference":"Encounter/e80a8778-3def-42e1-8d69-eaf68ef58a8c"}],"locationCodeableConcept":{"coding":[{"code":"21","display":"Inpatient Hospital","system":"https://bluebutton.cms.gov/resources/variables/line_place_of_srvc_cd"}]},"sequence":1,"servicedPeriod":{"end":"1985-12-26T22:58:14-05:00","start":"1985-12-26T22:28:14-05:00"}},{"category":{"coding":[{"code":"1","display":"Medical care","system":"https://bluebutton.cms.gov/resources/variables/line_cms_type_srvc_cd"}]},"diagnosisLinkId":[1],"locationCodeableConcept":{"coding":[{"code":"21","display":"Inpatient Hospital","system":"https://bluebutton.cms.gov/resources/variables/line_place_of_srvc_cd"}]},"sequence":2,"servicedPeriod":{"end":"1985-12-26T22:58:14-05:00","start":"1985-12-26T22:28:14-05:00"}}],"meta":{"lastUpdated":"2019-04-09T09:55:14.400737+00:00","versionId":"MTU1NDgwMzcxNDQwMDczNzAwMA"},"organization":{"identifier":{"value":"fea46cf5-78cb-45ba-a53c-1889a8b8ee75"}},"patient":{"reference":"Patient/00d48a80-ce29-4d28-a8d1-f41e705aee29"},"payment":{"amount":{"code":"USD","system":"urn:iso:std:iso:4217","value":0}},"provider":{"identifier":{"value":"9c1e389b-2076-44ab-917f-7e80069ab8d8"}},"referral":{"reference":"#1"},"resourceType":"ExplanationOfBenefit","status":"active","totalCost":{"code":"USD","system":"urn:iso:std:iso:4217","value":125},"type":{"coding":[{"code":"71","display":"Local carrier non-durable medical equipment, prosthetics, orthotics, and supplies (DMEPOS) claim","system":"https://bluebutton.cms.gov/resources/variables/nch_clm_type_cd"},{"code":"CARRIER","display":"EOB Type","system":"https://bluebutton.cms.gov/resources/codesystem/eob-type"},{"code":"professional","display":"Claim Type","system":"http://hl7.org/fhir/ex-claimtype"},{"code":"O","display":"Part B physician/supplier claim record (processed by local carriers; can include DMEPOS services)","system":"https://bluebutton.cms.gov/resources/variables/nch_near_line_rec_ident_cd"}]}}},{"resource":{"billablePeriod":{"end":"2012-10-09T23:28:14-04:00","extension":[{"url":"https://bluebutton.cms.gov/assets/ig/StructureDefinition-bluebutton-inpatient-claim-query-cd-extension","valueCoding":{"code":"3","display":"Final Bill","system":"https://bluebutton.cms.gov/assets/ig/ValueSet-claim-query-cd"}}],"start":"2011-10-09T23:28:14-04:00"},"careTeam":[{"provider":{"identifier":{"system":"http://hl7.org/fhir/sid/us-npi","value":"99999999"}},"role":{"coding":[{"code":"primary","display":"Primary Care Practitioner","system":"http://hl7.org/fhir/claimcareteamrole"}]},"sequence":1}],"contained":[{"id":"coverage","resourceType":"Coverage","type":{"text":"medicare"}}],"extension":[{"url":"https://bluebutton.cms.gov/assets/ig/StructureDefinition-bluebutton-inpatient-ime-op-clm-val-amt-extension","valueMoney":{"code":"USD","system":"urn:iso:std:iso:4217","value":400}},{"url":"https://bluebutton.cms.gov/assets/ig/StructureDefinition-bluebutton-inpatient-dsh-op-clm-val-amt-extension","valueMoney":{"code":"USD","system":"urn:iso:std:iso:4217","value":0}},{"url":"https://bluebutton.cms.gov/assets/ig/StructureDefinition-bluebutton-inpatient-clm-pass-thru-per-diem-amt-extension","valueMoney":{"code":"USD","system":"urn:iso:std:iso:4217","value":0}},{"url":"https://bluebutton.cms.gov/assets/ig/StructureDefinition-bluebutton-inpatient-nch-profnl-cmpnt-chrg-amt-extension","valueMoney":{"code":"USD","system":"urn:iso:std:iso:4217","value":0}},{"url":"https://bluebutton.cms.gov/assets/ig/StructureDefinition-bluebutton-inpatient-clm-tot-pps-cptl-amt-extension","valueMoney":{"code":"USD","system":"urn:iso:std:iso:4217","value":0}},{"url":"https://bluebutton.cms.gov/assets/ig/StructureDefinition-bluebutton-inpatient-nch-bene-ip-ddctbl-amt-extension","valueMoney":{"code":"USD","system":"urn:iso:std:iso:4217","value":0}},{"url":"https://bluebutton.cms.gov/assets/ig/StructureDefinition-bluebutton-inpatient-nch-bene-pta-coinsrnc-lblty-amt-extension","valueMoney":{"code":"USD","system":"urn:iso:std:iso:4217","value":0}},{"url":"https://bluebutton.cms.gov/assets/ig/StructureDefinition-bluebutton-inpatient-nch-ip-ncvrd-chrg-amt-extension","valueMoney":{"code":"USD","system":"urn:iso:std:iso:4217","value":0}},{"url":"https://bluebutton.cms.gov/assets/ig/StructureDefinition-bluebutton-inpatient-nch-ip-tot-ddctn-amt-extension","valueMoney":{"code":"USD","system":"urn:iso:std:iso:4217","value":0}},{"url":"https://bluebutton.cms.gov/assets/ig/StructureDefinition-bluebutton-inpatient-clm-pps-cptl-dsprprtnt-shr-amt-extension","valueMoney":{"code":"USD","system":"urn:iso:std:iso:4217","value":0}},{"url":"https://bluebutton.cms.gov/assets/ig/StructureDefinition-bluebutton-inpatient-clm-pps-cptl-excptn-amt-extension","valueMoney":{"code":"USD","system":"urn:iso:std:iso:4217","value":0}},{"url":"https://bluebutton.cms.gov/assets/ig/StructureDefinition-bluebutton-inpatient-clm-pps-cptl-fsp-amt-extension","valueMoney":{"code":"USD","system":"urn:iso:std:iso:4217","value":0}},{"url":"https://bluebutton.cms.gov/assets/ig/StructureDefinition-bluebutton-inpatient-clm-pps-cptl-ime-amt-extension","valueMoney":{"code":"USD","system":"urn:iso:std:iso:4217","value":400}},{"url":"https://bluebutton.cms.gov/assets/ig/StructureDefinition-bluebutton-inpatient-clm-pps-cptl-outlier-amt-extension","valueMoney":{"code":"USD","system":"urn:iso:std:iso:4217","value":0}},{"url":"https://bluebutton.cms.gov/assets/ig/StructureDefinition-bluebutton-inpatient-clm-pps-old-cptl-hld-hrmls-amt-extension","valueMoney":{"code":"USD","system":"urn:iso:std:iso:4217","value":0}},{"url":"https://bluebutton.cms.gov/assets/ig/StructureDefinition-bluebutton-inpatient-nch-drg-outlier-aprvd-pmt-amt-extension","valueMoney":{"code":"USD","system":"urn:iso:std:iso:4217","value":0}},{"url":"https://bluebutton.cms.gov/assets/ig/StructureDefinition-bluebutton-inpatient-nch-bene-blood-ddctbl-lblty-am-extension","valueMoney":{"code":"USD","system":"urn:iso:std:iso:4217","value":0}},{"url":"https://bluebutton.cms.gov/assets/ig/StructureDefinition-bluebutton-inpatient-clm-mdcr-non-pmt-rsn-cd-extension","valueCoding":{"code":"N","display":"All other reasons for non-payment","system":"https://bluebutton.cms.gov/assets/ig/CodeSystem-clm-mdcr-non-pmt-rsn-cd"}},{"url":"https://bluebutton.cms.gov/assets/ig/StructureDefinition-bluebutton-inpatient-prpayamt-extension","valueMoney":{"code":"USD","system":"urn:iso:std:iso:4217","value":0}},{"url":"https://bluebutton.cms.gov/assets/ig/StructureDefinition-bluebutton-inpatient-fi-num-extension","valueIdentifier":{"system":"https://bluebutton.cms.gov/assets/ig/CodeSystem-fi-num","value":"002000"}}],"id":"1dd263a3-04d1-4f5b-8890-be8e4095883a","identifier":[{"system":"https://bluebutton.cms.gov/resources/variables/clm_id","value":"697fce85-d5e1-4329-9477-6f0e97a3ef86"},{"system":"https://bluebutton.cms.gov/resources/identifier/claim-group","value":"99999999999"}],"insurance":{"coverage":{"reference":"#coverage"}},"item":[{"extension":[{"url":"https://bluebutton.cms.gov/assets/ig/StructureDefinition-bluebutton-inpatient-rev-cntr-ndc-qty-extension","valueQuantity":{"value":0}}],"locationCodeableConcept":{"coding":[{"code":"21","display":"Inpatient Hospital","system":"https://bluebutton.cms.gov/resources/variables/line_place_of_srvc_cd"}]},"sequence":1}],"meta":{"lastUpdated":"2019-04-09T09:55:21.571074+00:00","profile":["https://bluebutton.cms.gov/assets/ig/StructureDefinition-bluebutton-inpatient-claim"],"versionId":"MTU1NDgwMzcyMTU3MTA3NDAwMA"},"organization":{"identifier":{"value":"fea46cf5-78cb-45ba-a53c-1889a8b8ee75"}},"patient":{"reference":"Patient/00d48a80-ce29-4d28-a8d1-f41e705aee29"},"payment":{"amount":{"code":"USD","system":"urn:iso:std:iso:4217","value":0}},"provider":{"identifier":{"value":"9c1e389b-2076-44ab-917f-7e80069ab8d8"}},"resourceType":"ExplanationOfBenefit","status":"active","totalCost":{"code":"USD","system":"urn:iso:std:iso:4217","value":75},"type":{"coding":[{"code":"71","display":"Local carrier non-durable medical equipment, prosthetics, orthotics, and supplies (DMEPOS) claim","system":"https://bluebutton.cms.gov/resources/variables/nch_clm_type_cd"},{"code":"CARRIER","display":"EOB Type","system":"https://bluebutton.cms.gov/resources/codesystem/eob-type"},{"code":"professional","display":"Claim Type","system":"http://hl7.org/fhir/ex-claimtype"},{"code":"O","display":"Part B physician/supplier claim record (processed by local carriers; can include DMEPOS services)","system":"https://bluebutton.cms.gov/resources/variables/nch_near_line_rec_ident_cd"}]}}},{"resource":{"billablePeriod":{"end":"1991-11-06T22:28:14-05:00","extension":[{"url":"https://bluebutton.cms.gov/assets/ig/StructureDefinition-bluebutton-inpatient-claim-query-cd-extension","valueCoding":{"code":"3","display":"Final Bill","system":"https://bluebutton.cms.gov/assets/ig/ValueSet-claim-query-cd"}}],"start":"1990-11-06T22:28:14-05:00"},"careTeam":[{"provider":{"identifier":{"system":"http://hl7.org/fhir/sid/us-npi","value":"99999999"}},"role":{"coding":[{"code":"primary","display":"Primary Care Practitioner","system":"http://hl7.org/fhir/claimcareteamrole"}]},"sequence":1}],"contained":[{"id":"coverage","resourceType":"Coverage","type":{"text":"medicare"}}],"diagnosis":[{"diagnosisReference":{"reference":"Condition/db12949d-6334-4393-a712-31542dd83acf"},"extension":[{"url":"https://bluebutton.cms.gov/assets/ig/StructureDefinition-bluebutton-inpatient-clm-poa-ind-sw1-extension","valueCoding":{"code":"Y","display":"Diagnosis present at time of admission","system":"https://bluebutton.cms.gov/assets/ig/CodeSystem-clm-poa-ind-sw1"}}],"sequence":1,"type":[{"coding":[{"code":"principal","system":"https://bluebutton.cms.gov/resources/codesystem/diagnosis-type"}]}]}],"extension":[{"url":"https://bluebutton.cms.gov/assets/ig/StructureDefinition-bluebutton-inpatient-ime-op-clm-val-amt-extension","valueMoney":{"code":"USD","system":"urn:iso:std:iso:4217","value":400}},{"url":"https://bluebutton.cms.gov/assets/ig/StructureDefinition-bluebutton-inpatient-dsh-op-clm-val-amt-extension","valueMoney":{"code":"USD","system":"urn:iso:std:iso:4217","value":0}},{"url":"https://bluebutton.cms.gov/assets/ig/StructureDefinition-bluebutton-inpatient-clm-pass-thru-per-diem-amt-extension","valueMoney":{"code":"USD","system":"urn:iso:std:iso:4217","value":0}},{"url":"https://bluebutton.cms.gov/assets/ig/StructureDefinition-bluebutton-inpatient-nch-profnl-cmpnt-chrg-amt-extension","valueMoney":{"code":"USD","system":"urn:iso:std:iso:4217","value":0}},{"url":"https://bluebutton.cms.gov/assets/ig/StructureDefinition-bluebutton-inpatient-clm-tot-pps-cptl-amt-extension","valueMoney":{"code":"USD","system":"urn:iso:std:iso:4217","value":0}},{"url":"https://bluebutton.cms.gov/assets/ig/StructureDefinition-bluebutton-inpatient-nch-bene-ip-ddctbl-amt-extension","valueMoney":{"code":"USD","system":"urn:iso:std:iso:4217","value":0}},{"url":"https://bluebutton.cms.gov/assets/ig/StructureDefinition-bluebutton-inpatient-nch-bene-pta-coinsrnc-lblty-amt-extension","valueMoney":{"code":"USD","system":"urn:iso:std:iso:4217","value":0}},{"url":"https://bluebutton.cms.gov/assets/ig/StructureDefinition-bluebutton-inpatient-nch-ip-ncvrd-chrg-amt-extension","valueMoney":{"code":"USD","system":"urn:iso:std:iso:4217","value":0}},{"url":"https://bluebutton.cms.gov/assets/ig/StructureDefinition-bluebutton-inpatient-nch-ip-tot-ddctn-amt-extension","valueMoney":{"code":"USD","system":"urn:iso:std:iso:4217","value":0}},{"url":"https://bluebutton.cms.gov/assets/ig/StructureDefinition-bluebutton-inpatient-clm-pps-cptl-dsprprtnt-shr-amt-extension","valueMoney":{"code":"USD","system":"urn:iso:std:iso:4217","value":0}},{"url":"https://bluebutton.cms.gov/assets/ig/StructureDefinition-bluebutton-inpatient-clm-pps-cptl-excptn-amt-extension","valueMoney":{"code":"USD","system":"urn:iso:std:iso:4217","value":0}},{"url":"https://bluebutton.cms.gov/assets/ig/StructureDefinition-bluebutton-inpatient-clm-pps-cptl-fsp-amt-extension","valueMoney":{"code":"USD","system":"urn:iso:std:iso:4217","value":0}},{"url":"https://bluebutton.cms.gov/assets/ig/StructureDefinition-bluebutton-inpatient-clm-pps-cptl-ime-amt-extension","valueMoney":{"code":"USD","system":"urn:iso:std:iso:4217","value":400}},{"url":"https://bluebutton.cms.gov/assets/ig/StructureDefinition-bluebutton-inpatient-clm-pps-cptl-outlier-amt-extension","valueMoney":{"code":"USD","system":"urn:iso:std:iso:4217","value":0}},{"url":"https://bluebutton.cms.gov/assets/ig/StructureDefinition-bluebutton-inpatient-clm-pps-old-cptl-hld-hrmls-amt-extension","valueMoney":{"code":"USD","system":"urn:iso:std:iso:4217","value":0}},{"url":"https://bluebutton.cms.gov/assets/ig/StructureDefinition-bluebutton-inpatient-nch-drg-outlier-aprvd-pmt-amt-extension","valueMoney":{"code":"USD","system":"urn:iso:std:iso:4217","value":0}},{"url":"https://bluebutton.cms.gov/assets/ig/StructureDefinition-bluebutton-inpatient-nch-bene-blood-ddctbl-lblty-am-extension","valueMoney":{"code":"USD","system":"urn:iso:std:iso:4217","value":0}},{"url":"https://bluebutton.cms.gov/assets/ig/StructureDefinition-bluebutton-inpatient-clm-mdcr-non-pmt-rsn-cd-extension","valueCoding":{"code":"N","display":"All other reasons for non-payment","system":"https://bluebutton.cms.gov/assets/ig/CodeSystem-clm-mdcr-non-pmt-rsn-cd"}},{"url":"https://bluebutton.cms.gov/assets/ig/StructureDefinition-bluebutton-inpatient-prpayamt-extension","valueMoney":{"code":"USD","system":"urn:iso:std:iso:4217","value":0}},{"url":"https://bluebutton.cms.gov/assets/ig/StructureDefinition-bluebutton-inpatient-fi-num-extension","valueIdentifier":{"system":"https://bluebutton.cms.gov/assets/ig/CodeSystem-fi-num","value":"002000"}}],"id":"208aeaf1-6464-40df-b30d-78f33f1213a4","identifier":[{"system":"https://bluebutton.cms.gov/resources/variables/clm_id","value":"5caeba8f-dec4-4925-a07d-8628d409070e"},{"system":"https://bluebutton.cms.gov/resources/identifier/claim-group","value":"99999999999"}],"insurance":{"coverage":{"reference":"#coverage"}},"item":[{"extension":[{"url":"https://bluebutton.cms.gov/assets/ig/StructureDefinition-bluebutton-inpatient-rev-cntr-ndc-qty-extension","valueQuantity":{"value":0}}],"locationCodeableConcept":{"coding":[{"code":"21","display":"Inpatient Hospital","system":"https://bluebutton.cms.gov/resources/variables/line_place_of_srvc_cd"}]},"sequence":1},{"extension":[{"url":"https://bluebutton.cms.gov/assets/ig/StructureDefinition-bluebutton-inpatient-rev-cntr-ndc-qty-extension","valueQuantity":{"value":0}}],"locationCodeableConcept":{"coding":[{"code":"21","display":"Inpatient Hospital","system":"https://bluebutton.cms.gov/resources/variables/line_place_of_srvc_cd"}]},"sequence":2}],"meta":{"lastUpdated":"2019-04-09T09:55:15.391816+00:00","profile":["https://bluebutton.cms.gov/assets/ig/StructureDefinition-bluebutton-inpatient-claim"],"versionId":"MTU1NDgwMzcxNTM5MTgxNjAwMA"},"organization":{"identifier":{"value":"fea46cf5-78cb-45ba-a53c-1889a8b8ee75"}},"patient":{"reference":"Patient/00d48a80-ce29-4d28-a8d1-f41e705aee29"},"payment":{"amount":{"code":"USD","system":"urn:iso:std:iso:4217","value":0}},"provider":{"identifier":{"value":"9c1e389b-2076-44ab-917f-7e80069ab8d8"}},"resourceType":"ExplanationOfBenefit","status":"active","totalCost":{"code":"USD","system":"urn:iso:std:iso:4217","value":75},"type":{"coding":[{"code":"71","display":"Local carrier non-durable medical equipment, prosthetics, orthotics, and supplies (DMEPOS) claim","system":"https://bluebutton.cms.gov/resources/variables/nch_clm_type_cd"},{"code":"CARRIER","display":"EOB Type","system":"https://bluebutton.cms.gov/resources/codesystem/eob-type"},{"code":"professional","display":"Claim Type","system":"http://hl7.org/fhir/ex-claimtype"},{"code":"O","display":"Part B physician/supplier claim record (processed by local carriers; can include DMEPOS services)","system":"https://bluebutton.cms.gov/resources/variables/nch_near_line_rec_ident_cd"}]}}},{"resource":{"billablePeriod":{"end":"2013-06-13T23:43:14-04:00","extension":[{"url":"https://bluebutton.cms.gov/assets/ig/StructureDefinition-bluebutton-outpatient-claim-query-cd-extension","valueCoding":{"code":"3","display":"Final Bill","system":"https://bluebutton.cms.gov/assets/ig/ValueSet-claim-query-cd"}}],"start":"2012-06-13T23:43:14-04:00"},"careTeam":[{"provider":{"identifier":{"system":"http://hl7.org/fhir/sid/us-npi","value":"99999999"}},"role":{"coding":[{"code":"primary","display":"Primary Care Practitioner","system":"http://hl7.org/fhir/claimcareteamrole"}]},"sequence":1}],"contained":[{"id":"coverage","resourceType":"Coverage","type":{"text":"medicare"}}],"extension":[{"url":"https://bluebutton.cms.gov/assets/ig/StructureDefinition-bluebutton-outpatient-nch-profnl-cmpnt-chrg-amt-extension","valueMoney":{"code":"USD","system":"urn:iso:std:iso:4217","value":0}},{"url":"https://bluebutton.cms.gov/assets/ig/StructureDefinition-bluebutton-outpatient-nch-bene-ptb-ddctbl-amt-extension","valueMoney":{"code":"USD","system":"urn:iso:std:iso:4217","value":0}},{"url":"https://bluebutton.cms.gov/assets/ig/StructureDefinition-bluebutton-outpatient-nch-bene-ptb-coinsrnc-amt-extension","valueMoney":{"code":"USD","system":"urn:iso:std:iso:4217","value":0}},{"url":"https://bluebutton.cms.gov/assets/ig/StructureDefinition-bluebutton-outpatient-clm-op-prvdr-pmt-amt-extension","valueMoney":{"code":"USD","system":"urn:iso:std:iso:4217","value":0}},{"url":"https://bluebutton.cms.gov/assets/ig/StructureDefinition-bluebutton-outpatient-clm-op-bene-pmt-amt-extension","valueMoney":{"code":"USD","system":"urn:iso:std:iso:4217","value":0}},{"url":"https://bluebutton.cms.gov/assets/ig/StructureDefinition-bluebutton-outpatient-nch-bene-blood-ddctbl-lblty-am-extension","valueMoney":{"code":"USD","system":"urn:iso:std:iso:4217","value":0}},{"url":"https://bluebutton.cms.gov/assets/ig/StructureDefinition-bluebutton-outpatient-clm-mdcr-non-pmt-rsn-cd-extension","valueCoding":{"code":"N","display":"All other reasons for non-payment","system":"https://bluebutton.cms.gov/assets/ig/CodeSystem-clm-mdcr-non-pmt-rsn-cd"}},{"url":"https://bluebutton.cms.gov/assets/ig/StructureDefinition-bluebutton-outpatient-prpayamt-extension","valueMoney":{"code":"USD","system":"urn:iso:std:iso:4217","value":0}},{"url":"https://bluebutton.cms.gov/assets/ig/StructureDefinition-bluebutton-outpatient-fi-num-extension","valueIdentifier":{"system":"https://bluebutton.cms.gov/assets/ig/CodeSystem-fi-num","value":"002000"}}],"id":"234eb3fe-2c2e-42e5-b370-5ae94b02893f","identifier":[{"system":"https://bluebutton.cms.gov/resources/variables/clm_id","value":"2c5c4890-68c6-4b92-a8ac-848d375d0745"},{"system":"https://bluebutton.cms.gov/resources/identifier/claim-group","value":"99999999999"}],"insurance":{"coverage":{"reference":"#coverage"}},"item":[{"extension":[{"url":"https://bluebutton.cms.gov/assets/ig/StructureDefinition-bluebutton-outpatient-rev-cntr-ndc-qty-extension","valueQuantity":{"value":0}}],"locationCodeableConcept":{"coding":[{"code":"21","display":"Inpatient Hospital","system":"https://bluebutton.cms.gov/resources/variables/line_place_of_srvc_cd"}]},"sequence":1}],"meta":{"lastUpdated":"2019-04-09T09:55:21.556294+00:00","profile":["https://bluebutton.cms.gov/assets/ig/StructureDefinition-bluebutton-outpatient-claim"],"versionId":"MTU1NDgwMzcyMTU1NjI5NDAwMA"},"organization":{"identifier":{"value":"fea46cf5-78cb-45ba-a53c-1889a8b8ee75"}},"patient":{"reference":"Patient/00d48a80-ce29-4d28-a8d1-f41e705aee29"},"payment":{"amount":{"code":"USD","system":"urn:iso:std:iso:4217","value":0}},"provider":{"identifier":{"value":"9c1e389b-2076-44ab-917f-7e80069ab8d8"}},"resourceType":"ExplanationOfBenefit","status":"active","totalCost":{"code":"USD","system":"urn:iso:std:iso:4217","value":125},"type":{"coding":[{"code":"71","display":"Local carrier non-durable medical equipment, prosthetics, orthotics, and supplies (DMEPOS) claim","system":"https://bluebutton.cms.gov/resources/variables/nch_clm_type_cd"},{"code":"CARRIER","display":"EOB Type","system":"https://bluebutton.cms.gov/resources/codesystem/eob-type"},{"code":"professional","display":"Claim Type","system":"http://hl7.org/fhir/ex-claimtype"},{"code":"O","display":"Part B physician/supplier claim record (processed by local carriers; can include DMEPOS services)","system":"https://bluebutton.cms.gov/resources/variables/nch_near_line_rec_ident_cd"}]}}},{"resource":{"billablePeriod":{"end":"2008-08-10T23:43:14-04:00","extension":[{"url":"https://bluebutton.cms.gov/assets/ig/StructureDefinition-bluebutton-outpatient-claim-query-cd-extension","valueCoding":{"code":"3","display":"Final Bill","system":"https://bluebutton.cms.gov/assets/ig/ValueSet-claim-query-cd"}}],"start":"2007-08-10T23:43:14-04:00"},"careTeam":[{"provider":{"identifier":{"system":"http://hl7.org/fhir/sid/us-npi","value":"99999999"}},"role":{"coding":[{"code":"primary","display":"Primary Care Practitioner","system":"http://hl7.org/fhir/claimcareteamrole"}]},"sequence":1}],"contained":[{"id":"coverage","resourceType":"Coverage","type":{"text":"medicare"}}],"extension":[{"url":"https://bluebutton.cms.gov/assets/ig/StructureDefinition-bluebutton-outpatient-nch-profnl-cmpnt-chrg-amt-extension","valueMoney":{"code":"USD","system":"urn:iso:std:iso:4217","value":0}},{"url":"https://bluebutton.cms.gov/assets/ig/StructureDefinition-bluebutton-outpatient-nch-bene-ptb-ddctbl-amt-extension","valueMoney":{"code":"USD","system":"urn:iso:std:iso:4217","value":0}},{"url":"https://bluebutton.cms.gov/assets/ig/StructureDefinition-bluebutton-outpatient-nch-bene-ptb-coinsrnc-amt-extension","valueMoney":{"code":"USD","system":"urn:iso:std:iso:4217","value":0}},{"url":"https://bluebutton.cms.gov/assets/ig/StructureDefinition-bluebutton-outpatient-clm-op-prvdr-pmt-amt-extension","valueMoney":{"code":"USD","system":"urn:iso:std:iso:4217","value":0}},{"url":"https://bluebutton.cms.gov/assets/ig/StructureDefinition-bluebutton-outpatient-clm-op-bene-pmt-amt-extension","valueMoney":{"code":"USD","system":"urn:iso:std:iso:4217","value":0}},{"url":"https://bluebutton.cms.gov/assets/ig/StructureDefinition-bluebutton-outpatient-nch-bene-blood-ddctbl-lblty-am-extension","valueMoney":{"code":"USD","system":"urn:iso:std:iso:4217","value":0}},{"url":"https://bluebutton.cms.gov/assets/ig/StructureDefinition-bluebutton-outpatient-clm-mdcr-non-pmt-rsn-cd-extension","valueCoding":{"code":"N","display":"All other reasons for non-payment","system":"https://bluebutton.cms.gov/assets/ig/CodeSystem-clm-mdcr-non-pmt-rsn-cd"}},{"url":"https://bluebutton.cms.gov/assets/ig/StructureDefinition-bluebutton-outpatient-prpayamt-extension","valueMoney":{"code":"USD","system":"urn:iso:std:iso:4217","value":0}},{"url":"https://bluebutton.cms.gov/assets/ig/StructureDefinition-bluebutton-outpatient-fi-num-extension","valueIdentifier":{"system":"https://bluebutton.cms.gov/assets/ig/CodeSystem-fi-num","value":"002000"}}],"id":"266a498a-38b1-4b7b-812a-8b6f25c0c349","identifier":[{"system":"https://bluebutton.cms.gov/resources/variables/clm_id","value":"1b64356c-a0fb-48dd-af46-b6e580c1d770"},{"system":"https://bluebutton.cms.gov/resources/identifier/claim-group","value":"99999999999"}],"insurance":{"coverage":{"reference":"#coverage"}},"item":[{"extension":[{"url":"https://bluebutton.cms.gov/assets/ig/StructureDefinition-bluebutton-outpatient-rev-cntr-ndc-qty-extension","valueQuantity":{"value":0}}],"locationCodeableConcept":{"coding":[{"code":"21","display":"Inpatient Hospital","system":"https://bluebutton.cms.gov/resources/variables/line_place_of_srvc_cd"}]},"sequence":1}],"meta":{"lastUpdated":"2019-04-09T09:55:18.421999+00:00","profile":["https://bluebutton.cms.gov/assets/ig/StructureDefinition-bluebutton-outpatient-claim"],"versionId":"MTU1NDgwMzcxODQyMTk5OTAwMA"},"organization":{"identifier":{"value":"fea46cf5-78cb-45ba-a53c-1889a8b8ee75"}},"patient":{"reference":"Patient/00d48a80-ce29-4d28-a8d1-f41e705aee29"},"payment":{"amount":{"code":"USD","system":"urn:iso:std:iso:4217","value":0}},"provider":{"identifier":{"value":"9c1e389b-2076-44ab-917f-7e80069ab8d8"}},"resourceType":"ExplanationOfBenefit","status":"active","totalCost":{"code":"USD","system":"urn:iso:std:iso:4217","value":125},"type":{"coding":[{"code":"71","display":"Local carrier non-durable medical equipment, prosthetics, orthotics, and supplies (DMEPOS) claim","system":"https://bluebutton.cms.gov/resources/variables/nch_clm_type_cd"},{"code":"CARRIER","display":"EOB Type","system":"https://bluebutton.cms.gov/resources/codesystem/eob-type"},{"code":"professional","display":"Claim Type","system":"http://hl7.org/fhir/ex-claimtype"},{"code":"O","display":"Part B physician/supplier claim record (processed by local carriers; can include DMEPOS services)","system":"https://bluebutton.cms.gov/resources/variables/nch_near_line_rec_ident_cd"}]}}},{"resource":{"billablePeriod":{"end":"2005-08-06T23:43:14-04:00","extension":[{"url":"https://bluebutton.cms.gov/assets/ig/StructureDefinition-bluebutton-outpatient-claim-query-cd-extension","valueCoding":{"code":"3","display":"Final Bill","system":"https://bluebutton.cms.gov/assets/ig/ValueSet-claim-query-cd"}}],"start":"2004-08-06T23:43:14-04:00"},"careTeam":[{"provider":{"identifier":{"system":"http://hl7.org/fhir/sid/us-npi","value":"99999999"}},"role":{"coding":[{"code":"primary","display":"Primary Care Practitioner","system":"http://hl7.org/fhir/claimcareteamrole"}]},"sequence":1}],"contained":[{"id":"coverage","resourceType":"Coverage","type":{"text":"medicare"}}],"extension":[{"url":"https://bluebutton.cms.gov/assets/ig/StructureDefinition-bluebutton-outpatient-nch-profnl-cmpnt-chrg-amt-extension","valueMoney":{"code":"USD","system":"urn:iso:std:iso:4217","value":0}},{"url":"https://bluebutton.cms.gov/assets/ig/StructureDefinition-bluebutton-outpatient-nch-bene-ptb-ddctbl-amt-extension","valueMoney":{"code":"USD","system":"urn:iso:std:iso:4217","value":0}},{"url":"https://bluebutton.cms.gov/assets/ig/StructureDefinition-bluebutton-outpatient-nch-bene-ptb-coinsrnc-amt-extension","valueMoney":{"code":"USD","system":"urn:iso:std:iso:4217","value":0}},{"url":"https://bluebutton.cms.gov/assets/ig/StructureDefinition-bluebutton-outpatient-clm-op-prvdr-pmt-amt-extension","valueMoney":{"code":"USD","system":"urn:iso:std:iso:4217","value":0}},{"url":"https://bluebutton.cms.gov/assets/ig/StructureDefinition-bluebutton-outpatient-clm-op-bene-pmt-amt-extension","valueMoney":{"code":"USD","system":"urn:iso:std:iso:4217","value":0}},{"url":"https://bluebutton.cms.gov/assets/ig/StructureDefinition-bluebutton-outpatient-nch-bene-blood-ddctbl-lblty-am-extension","valueMoney":{"code":"USD","system":"urn:iso:std:iso:4217","value":0}},{"url":"https://bluebutton.cms.gov/assets/ig/StructureDefinition-bluebutton-outpatient-clm-mdcr-non-pmt-rsn-cd-extension","valueCoding":{"code":"N","display":"All other reasons for non-payment","system":"https://bluebutton.cms.gov/assets/ig/CodeSystem-clm-mdcr-non-pmt-rsn-cd"}},{"url":"https://bluebutton.cms.gov/assets/ig/StructureDefinition-bluebutton-outpatient-prpayamt-extension","valueMoney":{"code":"USD","system":"urn:iso:std:iso:4217","value":0}},{"url":"https://bluebutton.cms.gov/assets/ig/StructureDefinition-bluebutton-outpatient-fi-num-extension","valueIdentifier":{"system":"https://bluebutton.cms.gov/assets/ig/CodeSystem-fi-num","value":"002000"}}],"id":"27e29e5f-62d5-4763-b50b-e733e6c841c9","identifier":[{"system":"https://bluebutton.cms.gov/resources/variables/clm_id","value":"62a08498-6c87-43d1-97d4-0a9dcc1f2381"},{"system":"https://bluebutton.cms.gov/resources/identifier/claim-group","value":"99999999999"}],"insurance":{"coverage":{"reference":"#coverage"}},"item":[{"extension":[{"url":"https://bluebutton.cms.gov/assets/ig/StructureDefinition-bluebutton-outpatient-rev-cntr-ndc-qty-extension","valueQuantity":{"value":0}}],"locationCodeableConcept":{"coding":[{"code":"21","display":"Inpatient Hospital","system":"https://bluebutton.cms.gov/resources/variables/line_place_of_srvc_cd"}]},"sequence":1}],"meta":{"lastUpdated":"2019-04-09T09:55:15.391814+00:00","profile":["https://bluebutton.cms.gov/assets/ig/StructureDefinition-bluebutton-outpatient-claim"],"versionId":"MTU1NDgwMzcxNTM5MTgxNDAwMA"},"organization":{"identifier":{"value":"fea46cf5-78cb-45ba-a53c-1889a8b8ee75"}},"patient":{"reference":"Patient/00d48a80-ce29-4d28-a8d1-f41e705aee29"},"payment":{"amount":{"code":"USD","system":"urn:iso:std:iso:4217","value":0}},"provider":{"identifier":{"value":"9c1e389b-2076-44ab-917f-7e80069ab8d8"}},"resourceType":"ExplanationOfBenefit","status":"active","totalCost":{"code":"USD","system":"urn:iso:std:iso:4217","value":125},"type":{"coding":[{"code":"71","display":"Local carrier non-durable medical equipment, prosthetics, orthotics, and supplies (DMEPOS) claim","system":"https://bluebutton.cms.gov/resources/variables/nch_clm_type_cd"},{"code":"CARRIER","display":"EOB Type","system":"https://bluebutton.cms.gov/resources/codesystem/eob-type"},{"code":"professional","display":"Claim Type","system":"http://hl7.org/fhir/ex-claimtype"},{"code":"O","display":"Part B physician/supplier claim record (processed by local carriers; can include DMEPOS services)","system":"https://bluebutton.cms.gov/resources/variables/nch_near_line_rec_ident_cd"}]}}}],"link":[{"url":"https://syntheticmass.mitre.org/v1/fhir/Patient/00d48a80-ce29-4d28-a8d1-f41e705aee29/$everything?_count=100&page_token=CoIBcHJvamVjdHMvc3ludGhlYS9sb2NhdGlvbnMvdXMtY2VudHJhbDEvZGF0YXNldHMvMjAxOTAyL2ZoaXJTdG9yZXMvc3ludGhldGljLW1hc3MvZmhpci9QYXRpZW50LzAwZDQ4YTgwLWNlMjktNGQyOC1hOGQxLWY0MWU3MDVhZWUyOQ%3D%3D","relation":"previous"},{"url":"https://syntheticmass.mitre.org/v1/fhir/Patient/00d48a80-ce29-4d28-a8d1-f41e705aee29/$everything?_count=100&page_token=CoIBcHJvamVjdHMvc3ludGhlYS9sb2NhdGlvbnMvdXMtY2VudHJhbDEvZGF0YXNldHMvMjAxOTAyL2ZoaXJTdG9yZXMvc3ludGhldGljLW1hc3MvZmhpci9QYXRpZW50LzAwZDQ4YTgwLWNlMjktNGQyOC1hOGQxLWY0MWU3MDVhZWUyOSDIAQ%3D%3D","relation":"next"}],"total":408}
