{"resourceType":"Bundle","type":"searchset","entry":[{"resource":{"billablePeriod":{"end":"1994-10-26T14:50:00-04:00","start":"1994-10-25T11:50:00-04:00"},"id":"fa2bcd11-c4f6-4e46-b89c-6ce196424ac8","item":[{"encounter":[{"reference":"Encounter/c92794c3-b401-477e-9011-5062822ce188"}],"sequence":1}],"meta":{"lastUpdated":"2019-04-09T09:54:30.155878+00:00","versionId":"MTU1NDgwMzY3MDE1NTg3ODAwMA"},"organization":{"reference":"Organization/1a60b448-1ca4-42bf-9155-499a2623d4bb"},"patient":{"reference":"Patient/00cb33f3-3c47-48f0-8606-ae2c82231e85"},"prescription":{"reference":"MedicationRequest/32745868-8628-4497-81a6-75ed24155c99"},"resourceType":"Claim","status":"active","total":{"code":"USD","system":"urn:iso:std:iso:4217","value":255},"use":"complete"}},{"resource":{"billablePeriod":{"end":"1995-06-28T12:50:00-04:00","start":"1995-06-27T11:50:00-04:00"},"id":"fbc1a452-ebb3-4837-8b9a-bdbf8ecfae74","item":[{"encounter":[{"reference":"Encounter/67f3b2e5-7eb8-4eda-9280-a24c21f9824e"}],"sequence":1}],"meta":{"lastUpdated":"2019-04-09T09:54:33.481798+00:00","versionId":"MTU1NDgwMzY3MzQ4MTc5ODAwMA"},"organization":{"reference":"Organization/1a60b448-1ca4-42bf-9155-499a2623d4bb"},"patient":{"reference":"Patient/00cb33f3-3c47-48f0-8606-ae2c82231e85"},"prescription":{"reference":"MedicationRequest/d914c3c1-ac00-455e-a9d3-77b30f7a5e9a"},"resourceType":"Claim","status":"active","total":{"code":"USD","system":"urn:iso:std:iso:4217","value":255},"use":"complete"}},{"resource":{"billablePeriod":{"end":"1995-04-29T14:50:00-04:00","start":"1995-04-28T11:50:00-04:00"},"id":"fddee227-a767-4f89-9cd2-fc9b0d8e5e9c","item":[{"encounter":[{"reference":"Encounter/3e04856c-5a4a-416a-aae1-e3b58e805dbd"}],"sequence":1}],"meta":{"lastUpdated":"2019-04-09T09:54:32.411457+00:00","versionId":"MTU1NDgwMzY3MjQxMTQ1NzAwMA"},"organization":{"reference":"Organization/1a60b448-1ca4-42bf-9155-499a2623d4bb"},"patient":{"reference":"Patient/00cb33f3-3c47-48f0-8606-ae2c82231e85"},"prescription":{"reference":"MedicationRequest/b255cf54-1c9f-42ea-8446-6f5fcb2b5242"},"resourceType":"Claim","status":"active","total":{"code":"USD","system":"urn:iso:std:iso:4217","value":255},"use":"complete"}},{"resource":{"billablePeriod":{"end":"1993-05-08T11:50:00-04:00","start":"1993-05-07T11:50:00-04:00"},"id":"fdfb1661-06bf-4bf4-b267-6fad594d8c5a","item":[{"encounter":[{"reference":"Encounter/448ac4b5-d972-40a2-8415-aeff4b99c456"}],"sequence":1},{"net":{"code":"USD","system":"urn:iso:std:iso:4217","value":13654.12},"procedureLinkId":[1],"sequence":2,"service":{"coding":[{"code":"703423002","system":"http://snomed.info/sct","version":"v1"}]}}],"meta":{"lastUpdated":"2019-04-09T09:54:24.958325+00:00","versionId":"MTU1NDgwMzY2NDk1ODMyNTAwMA"},"organization":{"reference":"Organization/1a60b448-1ca4-42bf-9155-499a2623d4bb"},"patient":{"reference":"Patient/00cb33f3-3c47-48f0-8606-ae2c82231e85"},"procedure":[{"procedureReference":{"reference":"Procedure/eca91a13-41dc-401d-9394-5b5e1d89a88b"},"sequence":1}],"resourceType":"Claim","status":"active","total":{"code":"USD","system":"urn:iso:std:iso:4217","value":13729.12},"use":"complete"}},{"resource":{"billablePeriod":{"end":"1968-04-12T11:05:00-05:00","start":"1968-04-12T10:50:00-05:00"},"id":"fe7e9e63-4d99-4e42-b6a0-9dc172215735","item":[{"encounter":[{"reference":"Encounter/1d533313-ca6d-43e0-a2fc-bcdc8b8d6cfb"}],"sequence":1}],"meta":{"lastUpdated":"2019-04-09T09:54:12.469209+00:00","versionId":"MTU1NDgwMzY1MjQ2OTIwOTAwMA"},"organization":{"reference":"Organization/1a60b448-1ca4-42bf-9155-499a2623d4bb"},"patient":{"reference":"Patient/00cb33f3-3c47-48f0-8606-ae2c82231e85"},"prescription":{"reference":"MedicationRequest/738ea9e9-df63-4743-9ff4-2ccfe316156a"},"resourceType":"Claim","status":"active","total":{"code":"USD","system":"urn:iso:std:iso:4217","value":255},"use":"complete"}},{"resource":{"billablePeriod":{"end":"1988-04-07T12:05:00-04:00","start":"1988-04-07T11:50:00-04:00"},"id":"ff0bd636-b82c-454d-b3cd-60cb3a0a57d4","item":[{"encounter":[{"reference":"Encounter/f9601045-352d-4d0a-9a64-83b73c9e8510"}],"sequence":1}],"meta":{"lastUpdated":"2019-04-09T09:54:16.797205+00:00","versionId":"MTU1NDgwMzY1Njc5NzIwNTAwMA"},"organization":{"reference":"Organization/1a60b448-1ca4-42bf-9155-499a2623d4bb"},"patient":{"reference":"Patient/00cb33f3-3c47-48f0-8606-ae2c82231e85"},"prescription":{"reference":"MedicationRequest/5c2bb098-8456-4125-a360-fb301a9542e2"},"resourceType":"Claim","status":"active","total":{"code":"USD","system":"urn:iso:std:iso:4217","value":255},"use":"complete"}},{"resource":{"billablePeriod":{"end":"1988-06-06T12:05:00-04:00","start":"1988-06-06T11:50:00-04:00"},"id":"ff938b24-1e14-4cd3-bf0e-1cb5cfcd277e","information":[{"category":{"coding":[{"code":"info","system":"http://hl7.org/fhir/claiminformationcategory"}]},"sequence":1,"valueReference":{"reference":"Immunization/10992987-0a60-4fd1-b37e-63c6dee9bfe1"}}],"item":[{"encounter":[{"reference":"Encounter/1ec4d9ac-43f4-412b-b8ec-686c4b8d445c"}],"sequence":1},{"informationLinkId":[1],"net":{"code":"USD","system":"urn:iso:std:iso:4217","value":140.52},"sequence":2}],"meta":{"lastUpdated":"2019-04-09T09:54:17.795294+00:00","versionId":"MTU1NDgwMzY1Nzc5NTI5NDAwMA"},"organization":{"reference":"Organization/1a60b448-1ca4-42bf-9155-499a2623d4bb"},"patient":{"reference":"Patient/00cb33f3-3c47-48f0-8606-ae2c82231e85"},"resourceType":"Claim","status":"active","total":{"code":"USD","system":"urn:iso:std:iso:4217","value":265.52},"use":"complete"}},{"resource":{"abatementDateTime":"1993-01-27T10:50:00-05:00","assertedDate":"1991-06-07T11:50:00-04:00","clinicalStatus":"resolved","code":{"coding":[{"code":"93761005","display":"Primary malignant neoplasm of colon","system":"http://snomed.info/sct"}],"text":"Primary malignant neoplasm of colon"},"context":{"reference":"Encounter/caea3b33-d909-49bb-8ab4-a83c25410c3b"},"id":"015da220-9126-47ee-a2ce-66ff0483e68a","meta":{"lastUpdated":"2019-04-09T09:54:20.849806+00:00","versionId":"MTU1NDgwMzY2MDg0OTgwNjAwMA"},"onsetDateTime":"1991-06-07T11:50:00-04:00","resourceType":"Condition","subject":{"reference":"Patient/00cb33f3-3c47-48f0-8606-ae2c82231e85"},"verificationStatus":"confirmed"}},{"resource":{"assertedDate":"1992-11-03T10:50:00-05:00","clinicalStatus":"active","code":{"coding":[{"code":"424132000","display":"Non-small cell carcinoma of lung, TNM stage 1 (disorder)","system":"http://snomed.info/sct"}],"text":"Non-small cell carcinoma of lung, TNM stage 1 (disorder)"},"context":{"reference":"Encounter/01dcc6cd-f288-4cf4-8d67-74dd273c624f"},"id":"0571fd6f-3f13-411e-83fd-042c00f33fac","meta":{"lastUpdated":"2019-04-09T09:54:22.892750+00:00","versionId":"MTU1NDgwMzY2Mjg5Mjc1MDAwMA"},"onsetDateTime":"1992-11-03T10:50:00-05:00","resourceType":"Condition","subject":{"reference":"Patient/00cb33f3-3c47-48f0-8606-ae2c82231e85"},"verificationStatus":"confirmed"}},{"resource":{"abatementDateTime":"1994-07-12T11:50:00-04:00","assertedDate":"1994-07-05T11:50:00-04:00","clinicalStatus":"resolved","code":{"coding":[{"code":"444814009","display":"Viral sinusitis (disorder)","system":"http://snomed.info/sct"}],"text":"Viral sinusitis (disorder)"},"context":{"reference":"Encounter/e27798c8-7575-4576-9193-a919ec039fb2"},"id":"0deb5fca-13f0-4994-be11-82ed31f8cee4","meta":{"lastUpdated":"2019-04-09T09:54:29.156776+00:00","versionId":"MTU1NDgwMzY2OTE1Njc3NjAwMA"},"onsetDateTime":"1994-07-05T11:50:00-04:00","resourceType":"Condition","subject":{"reference":"Patient/00cb33f3-3c47-48f0-8606-ae2c82231e85"},"verificationStatus":"confirmed"}},{"resource":{"assertedDate":"1991-05-28T11:50:00-04:00","clinicalStatus":"active","code":{"coding":[{"code":"68496003","display":"Polyp of colon","system":"http://snomed.info/sct"}],"text":"Polyp of colon"},"context":{"reference":"Encounter/fb5f4e2a-a12b-4ecb-b782-cdd53eef30a7"},"id":"1676beed-a645-4c59-8aa4-27b00ff9ae30","meta":{"lastUpdated":"2019-04-09T09:54:20.846388+00:00","versionId":"MTU1NDgwMzY2MDg0NjM4ODAwMA"},"onsetDateTime":"1991-05-28T11:50:00-04:00","resourceType":"Condition","subject":{"reference":"Patient/00cb33f3-3c47-48f0-8606-ae2c82231e85"},"verificationStatus":"confirmed"}},{"resource":{"assertedDate":"1981-03-31T10:50:00-05:00","clinicalStatus":"active","code":{"coding":[{"code":"92691004","display":"Carcinoma in situ of prostate (disorder)","system":"http://snomed.info/sct"}],"text":"Carcinoma in situ of prostate (disorder)"},"context":{"reference":"Encounter/d6bc21c1-9aca-4017-bad6-0943770b005a"},"id":"436baf54-e7c1-4cb9-b480-b3bdcc7fc37f","meta":{"lastUpdated":"2019-04-09T09:54:13.501051+00:00","versionId":"MTU1NDgwMzY1MzUwMTA1MTAwMA"},"onsetDateTime":"1981-03-31T10:50:00-05:00","resourceType":"Condition","subject":{"reference":"Patient/00cb33f3-3c47-48f0-8606-ae2c82231e85"},"verificationStatus":"confirmed"}},{"resource":{"assertedDate":"1981-04-06T10:50:00-05:00","clinicalStatus":"active","code":{"coding":[{"code":"449868002","display":"Smokes tobacco daily","system":"http://snomed.info/sct"}],"text":"Smokes tobacco daily"},"context":{"reference":"Encounter/d6bc21c1-9aca-4017-bad6-0943770b005a"},"id":"5ae1b68d-fc25-44aa-b22d-478e794ccc61","meta":{"lastUpdated":"2019-04-09T09:54:13.506375+00:00","versionId":"MTU1NDgwMzY1MzUwNjM3NTAwMA"},"onsetDateTime":"1981-04-06T10:50:00-05:00","resourceType":"Condition","subject":{"reference":"Patient/00cb33f3-3c47-48f0-8606-ae2c82231e85"},"verificationStatus":"confirmed"}},{"resource":{"assertedDate":"1992-10-26T10:50:00-05:00","clinicalStatus":"active","code":{"coding":[{"code":"162573006","display":"Suspected lung cancer (situation)","system":"http://snomed.info/sct"}],"text":"Suspected lung cancer (situation)"},"context":{"reference":"Encounter/c7081f91-094e-4abf-881a-263ab90591c3"},"id":"72ba58e3-a18e-4150-a1ea-d79791086965","meta":{"lastUpdated":"2019-04-09T09:54:22.892779+00:00","versionId":"MTU1NDgwMzY2Mjg5Mjc3OTAwMA"},"onsetDateTime":"1992-10-26T10:50:00-05:00","resourceType":"Condition","subject":{"reference":"Patient/00cb33f3-3c47-48f0-8606-ae2c82231e85"},"verificationStatus":"confirmed"}},{"resource":{"assertedDate":"1964-03-23T10:50:00-05:00","clinicalStatus":"active","code":{"coding":[{"code":"162864005","display":"Body mass index 30+ - obesity (finding)","system":"http://snomed.info/sct"}],"text":"Body mass index 30+ - obesity (finding)"},"context":{"reference":"Encounter/c2d3fb77-91e5-474f-ac90-f8bd9453848b"},"id":"7e71bc94-04d2-4067-8340-18372486a6e8","meta":{"lastUpdated":"2019-04-09T09:54:12.471436+00:00","versionId":"MTU1NDgwMzY1MjQ3MTQzNjAwMA"},"onsetDateTime":"1964-03-23T10:50:00-05:00","resourceType":"Condition","subject":{"reference":"Patient/00cb33f3-3c47-48f0-8606-ae2c82231e85"},"verificationStatus":"confirmed"}},{"resource":{"abatementDateTime":"1986-05-29T11:50:00-04:00","assertedDate":"1985-03-05T10:50:00-05:00","clinicalStatus":"resolved","code":{"coding":[{"code":"68496003","display":"Polyp of colon","system":"http://snomed.info/sct"}],"text":"Polyp of colon"},"context":{"reference":"Encounter/1c26edd0-8f36-4db7-9615-e3ba3737f343"},"id":"b0181f72-6eee-4363-92e8-f2de302a4210","meta":{"lastUpdated":"2019-04-09T09:54:14.729614+00:00","versionId":"MTU1NDgwMzY1NDcyOTYxNDAwMA"},"onsetDateTime":"1985-03-05T10:50:00-05:00","resourceType":"Condition","subject":{"reference":"Patient/00cb33f3-3c47-48f0-8606-ae2c82231e85"},"verificationStatus":"confirmed"}},{"resource":{"assertedDate":"1992-11-01T10:50:00-05:00","clinicalStatus":"active","code":{"coding":[{"code":"254637007","display":"Non-small cell lung cancer (disorder)","system":"http://snomed.info/sct"}],"text":"Non-small cell lung cancer (disorder)"},"context":{"reference":"Encounter/f335e04a-9bbb-4504-9b09-cc55ba216edc"},"id":"ba9f7425-ffd4-49ef-89b6-c473ca4e643e","meta":{"lastUpdated":"2019-04-09T09:54:22.894870+00:00","versionId":"MTU1NDgwMzY2Mjg5NDg3MDAwMA"},"onsetDateTime":"1992-11-01T10:50:00-05:00","resourceType":"Condition","subject":{"reference":"Patient/00cb33f3-3c47-48f0-8606-ae2c82231e85"},"verificationStatus":"confirmed"}},{"resource":{"assertedDate":"1971-03-15T10:50:00-05:00","clinicalStatus":"active","code":{"coding":[{"code":"15777000","display":"Prediabetes","system":"http://snomed.info/sct"}],"text":"Prediabetes"},"context":{"reference":"Encounter/b683ec3d-bdf2-4ec9-89fa-e8e92471304b"},"id":"bace1251-40e6-47c1-b29c-6941e5cb4645","meta":{"lastUpdated":"2019-04-09T09:54:12.469212+00:00","versionId":"MTU1NDgwMzY1MjQ2OTIxMjAwMA"},"onsetDateTime":"1971-03-15T10:50:00-05:00","resourceType":"Condition","subject":{"reference":"Patient/00cb33f3-3c47-48f0-8606-ae2c82231e85"},"verificationStatus":"confirmed"}},{"resource":{"assertedDate":"1964-03-23T10:50:00-05:00","clinicalStatus":"active","code":{"coding":[{"code":"55822004","display":"Hyperlipidemia","system":"http://snomed.info/sct"}],"text":"Hyperlipidemia"},"context":{"reference":"Encounter/c2d3fb77-91e5-474f-ac90-f8bd9453848b"},"id":"d4357ebd-aa2a-44c4-bb3f-3fba3c3f2399","meta":{"lastUpdated":"2019-04-09T09:54:12.461121+00:00","versionId":"MTU1NDgwMzY1MjQ2MTEyMTAwMA"},"onsetDateTime":"1964-03-23T10:50:00-05:00","resourceType":"Condition","subject":{"reference":"Patient/00cb33f3-3c47-48f0-8606-ae2c82231e85"},"verificationStatus":"confirmed"}},{"resource":{"assertedDate":"1981-03-31T10:50:00-05:00","clinicalStatus":"active","code":{"coding":[{"code":"126906006","display":"Neoplasm of prostate","system":"http://snomed.info/sct"}],"text":"Neoplasm of prostate"},"context":{"reference":"Encounter/d6bc21c1-9aca-4017-bad6-0943770b005a"},"id":"ef72cd3e-baf0-40d5-a718-8f9dd9de3b4d","meta":{"lastUpdated":"2019-04-09T09:54:13.504089+00:00","versionId":"MTU1NDgwMzY1MzUwNDA4OTAwMA"},"onsetDateTime":"1981-03-31T10:50:00-05:00","resourceType":"Condition","subject":{"reference":"Patient/00cb33f3-3c47-48f0-8606-ae2c82231e85"},"verificationStatus":"confirmed"}},{"resource":{"code":{"coding":[{"code":"24323-8","display":"Comprehensive metabolic 2000 panel - Serum or Plasma","system":"http://loinc.org"}],"text":"Comprehensive metabolic 2000 panel - Serum or Plasma"},"context":{"reference":"Encounter/9b2e5cd7-c347-4b57-b597-f70200aff63f"},"effectiveDateTime":"1986-04-08T10:50:00-05:00","id":"010aafea-5e84-43df-a01a-4c879d5cc2c5","issued":"1986-04-08T10:50:00.219-05:00","meta":{"lastUpdated":"2019-04-09T09:54:15.737745+00:00","versionId":"MTU1NDgwMzY1NTczNzc0NTAwMA"},"resourceType":"DiagnosticReport","result":[{"display":"Glucose","reference":"Observation/01951aaa-471d-44da-b900-f7ebea8957cb"},{"display":"Urea Nitrogen","reference":"Observation/dee4e87f-6729-492f-8698-3a0b2b058265"},{"display":"Creatinine","reference":"Observation/fd02ee4e-969e-476d-833a-a7e1934f2502"},{"display":"Calcium","reference":"Observation/f2ecaced-6c38-4878-8935-4a4d1d459e07"},{"display":"Sodium","reference":"Observation/ff1b08de-832e-4262-b18e-7fb46019f295"},{"display":"Potassium","reference":"Observation/b03b3289-c00f-44b9-af98-bb7780a6ef8d"},{"display":"Chloride","reference":"Observation/1904806b-a8cf-4908-9844-e1cd75816322"},{"display":"Carbon Dioxide","reference":"Observation/dde48f99-db80-42da-9c29-e03c461fde49"},{"display":"Glomerular filtration rate/1.73 sq M.predicted","reference":"Observation/9cd41f5a-88b4-4911-a020-3b6b337deda9"},{"display":"Protein [Mass/volume] in Serum or Plasma","reference":"Observation/5b2d2809-0cca-4e33-9d69-736c01ace692"},{"display":"Albumin [Mass/volume] in Serum or Plasma","reference":"Observation/42f6357c-8314-4818-8833-07c729e8a81d"},{"display":"Globulin [Mass/volume] in Serum by calculation","reference":"Observation/0c1c7b4b-ba91-40b6-9c3f-998a7543b044"},{"display":"Bilirubin.total [Mass/volume] in Serum or Plasma","reference":"Observation/baa9ad76-9449-4e25-ba24-0dc3769384a5"},{"display":"Alkaline phosphatase [Enzymatic activity/volume] in Serum or Plasma","reference":"Observation/07e12d59-3c38-49a1-ac0d-508bd1055f65"},{"display":"Alanine aminotransferase [Enzymatic activity/volume] in Serum or Plasma","reference":"Observation/69a32724-d680-4732-8e89-4bda16ee8a14"},{"display":"Aspartate aminotransferase [Enzymatic activity/volume] in Serum or Plasma","reference":"Observation/1a2dcd4d-9e1b-4377-9131-64cfe1df1972"}],"status":"final","subject":{"reference":"Patient/00cb33f3-3c47-48f0-8606-ae2c82231e85"}}},{"resource":{"code":{"coding":[{"code":"24323-8","display":"Comprehensive metabolic 2000 panel - Serum or Plasma","system":"http://loinc.org"}],"text":"Comprehensive metabolic 2000 panel - Serum or Plasma"},"context":{"reference":"Encounter/070ad40d-3b9a-4ea7-a419-484409329b6a"},"effectiveDateTime":"1992-04-06T11:50:00-04:00","id":"0d9824df-20e6-42d7-b6da-19e7828d436c","issued":"1992-04-06T11:50:00.219-04:00","meta":{"lastUpdated":"2019-04-09T09:54:22.918966+00:00","versionId":"MTU1NDgwMzY2MjkxODk2NjAwMA"},"resourceType":"DiagnosticReport","result":[{"display":"Glucose","reference":"Observation/4954e453-f47f-410f-a739-196a652755bc"},{"display":"Urea Nitrogen","reference":"Observation/e274b4d7-c470-4819-82f5-4c27c21a093b"},{"display":"Creatinine","reference":"Observation/1ac82fae-8890-42dd-8544-cc1a6ee819d9"},{"display":"Calcium","reference":"Observation/242579b5-f58f-4043-be3f-7a489d11936c"},{"display":"Sodium","reference":"Observation/026c8c7f-47c1-48f0-bda3-c16c7d0ed22e"},{"display":"Potassium","reference":"Observation/05b9a193-10dc-4f86-8667-fc70d43ee21e"},{"display":"Chloride","reference":"Observation/6d30f608-824d-43a0-a28d-01abad920f30"},{"display":"Carbon Dioxide","reference":"Observation/023899c2-5498-4531-89ed-00acd9d4b9dc"},{"display":"Glomerular filtration rate/1.73 sq M.predicted","reference":"Observation/df889251-303c-4993-988d-eb5b8d184046"},{"display":"Protein [Mass/volume] in Serum or Plasma","reference":"Observation/dadbbb34-19dc-47ca-a843-8ec12abaf1f8"},{"display":"Albumin [Mass/volume] in Serum or Plasma","reference":"Observation/ad096934-5816-4fba-adfe-71db13050ecc"},{"display":"Globulin [Mass/volume] in Serum by calculation","reference":"Observation/8d7301b9-efc4-42ea-8094-eb2b7561233b"},{"display":"Bilirubin.total [Mass/volume] in Serum or Plasma","reference":"Observation/af3588e5-cea8-493f-ade2-96ee6c065572"},{"display":"Alkaline phosphatase [Enzymatic activity/volume] in Serum or Plasma","reference":"Observation/d1085156-d40b-4803-9779-d906cb0a60fd"},{"display":"Alanine aminotransferase [Enzymatic activity/volume] in Serum or Plasma","reference":"Observation/e9a7e23a-54bb-4752-a7f8-ed9571a5d8fb"},{"display":"Aspartate aminotransferase [Enzymatic activity/volume] in Serum or Plasma","reference":"Observation/3358c2cb-3598-4bd0-b584-612d7fd2cd2e"}],"status":"final","subject":{"reference":"Patient/00cb33f3-3c47-48f0-8606-ae2c82231e85"}}},{"resource":{"code":{"coding":[{"code":"51990-0","display":"Basic Metabolic Panel","system":"http://loinc.org"}],"text":"Basic Metabolic Panel"},"context":{"reference":"Encounter/21e85152-d5ce-4906-b81a-3339da2ee395"},"effectiveDateTime":"1990-06-18T11:50:00-04:00","id":"15b93c90-5e73-40c2-899f-553fcb37cab0","issued":"1990-06-18T11:50:00.219-04:00","meta":{"lastUpdated":"2019-04-09T09:54:20.852839+00:00","versionId":"MTU1NDgwMzY2MDg1MjgzOTAwMA"},"resourceType":"DiagnosticReport","result":[{"display":"Glucose","reference":"Observation/23351401-14c6-4b6d-936c-3d7ed35d8986"},{"display":"Urea Nitrogen","reference":"Observation/1223e3de-54be-4948-badd-1269ffe20066"},{"display":"Creatinine","reference":"Observation/72fcba62-9645-4f58-a1d6-424313f6b457"},{"display":"Calcium","reference":"Observation/285932c0-19ee-4dfc-88a1-fd757c85144a"},{"display":"Sodium","reference":"Observation/e5ffcf91-8790-401d-87ac-1478b744b376"},{"display":"Potassium","reference":"Observation/db52b551-1671-4454-abf3-29ce22f54357"},{"display":"Chloride","reference":"Observation/889bfd7a-2b7c-4fa1-b3e7-15a42421e108"},{"display":"Carbon Dioxide","reference":"Observation/1ab36e76-c557-4b2f-a4c9-68edc008f467"}],"status":"final","subject":{"reference":"Patient/00cb33f3-3c47-48f0-8606-ae2c82231e85"}}},{"resource":{"code":{"coding":[{"code":"58410-2","display":"Complete blood count (hemogram) panel - Blood by Automated count","system":"http://loinc.org"}],"text":"Complete blood count (hemogram) panel - Blood by Automated count"},"context":{"reference":"Encounter/2218edc6-7e5d-4235-a8f1-afd8581aeae5"},"effectiveDateTime":"1993-07-05T11:50:00-04:00","id":"1a255145-b828-49b3-a4d9-ba3f5c4d3628","issued":"1993-07-05T11:50:00.219-04:00","meta":{"lastUpdated":"2019-04-09T09:54:26.007264+00:00","versionId":"MTU1NDgwMzY2NjAwNzI2NDAwMA"},"resourceType":"DiagnosticReport","result":[{"display":"Leukocytes [#/volume] in Blood by Automated count","reference":"Observation/f9bc78f3-6b45-4ea4-a9c7-4fb76fbd02b8"},{"display":"Erythrocytes [#/volume] in Blood by Automated count","reference":"Observation/85978b3d-5344-4adc-864b-7592d67185c3"},{"display":"Hemoglobin [Mass/volume] in Blood","reference":"Observation/61d455b3-1785-467a-a733-5b2cecd6a709"},{"display":"Hematocrit [Volume Fraction] of Blood by Automated count","reference":"Observation/15008503-10e3-4c5b-8778-9871d3a0f2ae"},{"display":"MCV [Entitic volume] by Automated count","reference":"Observation/0ae7932d-d97f-4627-9bff-193790fac967"},{"display":"MCH [Entitic mass] by Automated count","reference":"Observation/931c5aa0-87ea-4dbe-91b9-0bdade389902"},{"display":"MCHC [Mass/volume] by Automated count","reference":"Observation/7ef44ce3-3968-45ef-a424-1fa92f269a5e"},{"display":"Erythrocyte distribution width [Entitic volume] by Automated count","reference":"Observation/b48da02e-2b57-4037-b39d-5b7a1a8d1026"},{"display":"Platelets [#/volume] in Blood by Automated count","reference":"Observation/5e696846-b8e1-4861-a61a-f3181e3e606a"},{"display":"Platelet distribution width [Entitic volume] in Blood by Automated count","reference":"Observation/bd0b37cb-db02-4d30-b778-9de996724556"},{"display":"Platelet mean volume [Entitic volume] in Blood by Automated count","reference":"Observation/9283508b-0449-48a9-aa75-6f56cec47d39"}],"status":"final","subject":{"reference":"Patient/00cb33f3-3c47-48f0-8606-ae2c82231e85"}}},{"resource":{"code":{"coding":[{"code":"24323-8","display":"Comprehensive metabolic 2000 panel - Serum or Plasma","system":"http://loinc.org"}],"text":"Comprehensive metabolic 2000 panel - Serum or Plasma"},"context":{"reference":"Encounter/f9601045-352d-4d0a-9a64-83b73c9e8510"},"effectiveDateTime":"1988-04-07T11:50:00-04:00","id":"201e2cca-3211-43a5-bae4-cf81e3f82d85","issued":"1988-04-07T11:50:00.219-04:00","meta":{"lastUpdated":"2019-04-09T09:54:16.892135+00:00","versionId":"MTU1NDgwMzY1Njg5MjEzNTAwMA"},"resourceType":"DiagnosticReport","result":[{"display":"Glucose","reference":"Observation/95634ba7-b903-4c54-acd4-0647b5327ff5"},{"display":"Urea Nitrogen","reference":"Observation/a9f97511-0f52-4c30-bf36-ca52dedea7d4"},{"display":"Creatinine","reference":"Observation/94d2fb51-e8d1-4c09-a168-7a9b2f00d40c"},{"display":"Calcium","reference":"Observation/5d405649-c3d3-41a6-92e4-78570db7cb02"},{"display":"Sodium","reference":"Observation/93625609-837f-4c0d-ab2a-63e242c5482a"},{"display":"Potassium","reference":"Observation/2d718de9-02d7-4a86-baea-e2b5e273a9f1"},{"display":"Chloride","reference":"Observation/fc518d30-85f7-4b7c-84bd-3bec421bbe80"},{"display":"Carbon Dioxide","reference":"Observation/b98cf087-5916-464d-bb47-1b29e572968c"},{"display":"Glomerular filtration rate/1.73 sq M.predicted","reference":"Observation/2f0b5857-9e5f-47ea-b894-a6eeb0e5f640"},{"display":"Protein [Mass/volume] in Serum or Plasma","reference":"Observation/8368a332-10be-469f-b5bd-16830eeeffcc"},{"display":"Albumin [Mass/volume] in Serum or Plasma","reference":"Observation/5e73b5dc-0817-43c6-b8fc-795e094289da"},{"display":"Globulin [Mass/volume] in Serum by calculation","reference":"Observation/b236ab7e-37dd-4457-b9e2-b1434eb2f13e"},{"display":"Bilirubin.total [Mass/volume] in Serum or Plasma","reference":"Observation/557fad21-9f3f-477f-83af-974500ff811b"},{"display":"Alkaline phosphatase [Enzymatic activity/volume] in Serum or Plasma","reference":"Observation/48e03483-6781-48c9-8202-80c7cddd3b28"},{"display":"Alanine aminotransferase [Enzymatic activity/volume] in Serum or Plasma","reference":"Observation/18748484-4dfb-4207-865f-0b0685e2125b"},{"display":"Aspartate aminotransferase [Enzymatic activity/volume] in Serum or Plasma","reference":"Observation/0bea72f2-1e87-49e9-987d-60473bf1ca87"}],"status":"final","subject":{"reference":"Patient/00cb33f3-3c47-48f0-8606-ae2c82231e85"}}},{"resource":{"code":{"coding":[{"code":"51990-0","display":"Basic Metabolic Panel","system":"http://loinc.org"}],"text":"Basic Metabolic Panel"},"context":{"reference":"Encounter/a5b01ee9-3d05-4b82-97d4-e67ad42c1c09"},"effectiveDateTime":"1992-06-29T11:50:00-04:00","id":"2201e40c-9f16-4ad9-a303-85c7cac8d4eb","issued":"1992-06-29T11:50:00.219-04:00","meta":{"lastUpdated":"2019-04-09T09:54:22.911031+00:00","versionId":"MTU1NDgwMzY2MjkxMTAzMTAwMA"},"resourceType":"DiagnosticReport","result":[{"display":"Glucose","reference":"Observation/2129919a-a8f4-44dc-8d16-d3fb90bbc788"},{"display":"Urea Nitrogen","reference":"Observation/61d4dd70-cfd5-4c41-945f-bc5a2bbb96ac"},{"display":"Creatinine","reference":"Observation/2370167c-8811-4ace-b52b-c972beb05709"},{"display":"Calcium","reference":"Observation/c017aa06-b4f0-46ee-9c80-824dac76135c"},{"display":"Sodium","reference":"Observation/23aec14a-d443-4b7b-91ae-aa4f17f2c1b4"},{"display":"Potassium","reference":"Observation/356a72ba-4802-4b1b-9be4-061f0be87df8"},{"display":"Chloride","reference":"Observation/ca858518-ab70-46fc-ba3e-af83d41f9917"},{"display":"Carbon Dioxide","reference":"Observation/45570504-23f9-4573-9706-2b24fcff15bb"}],"status":"final","subject":{"reference":"Patient/00cb33f3-3c47-48f0-8606-ae2c82231e85"}}},{"resource":{"code":{"coding":[{"code":"24323-8","display":"Comprehensive metabolic 2000 panel - Serum or Plasma","system":"http://loinc.org"}],"text":"Comprehensive metabolic 2000 panel - Serum or Plasma"},"context":{"reference":"Encounter/cf5e1edd-7eff-4f3a-9fae-c3c704aa8515"},"effectiveDateTime":"1995-04-06T11:50:00-04:00","id":"3597f9f6-e08a-4945-8667-c1d1cbfec21c","issued":"1995-04-06T11:50:00.219-04:00","meta":{"lastUpdated":"2019-04-09T09:54:32.415384+00:00","versionId":"MTU1NDgwMzY3MjQxNTM4NDAwMA"},"resourceType":"DiagnosticReport","result":[{"display":"Glucose","reference":"Observation/398dae52-b331-4a40-bae9-88627934f499"},{"display":"Urea Nitrogen","reference":"Observation/03d67057-4455-41d6-bbe4-5a742cefaed8"},{"display":"Creatinine","reference":"Observation/1a2560a7-d57d-4ac8-87e5-56ff0032b86a"},{"display":"Calcium","reference":"Observation/9031d9ee-0bb2-486f-8567-a3cd4474de3b"},{"display":"Sodium","reference":"Observation/a6679251-4955-43c4-b995-9523ab5eb5bf"},{"display":"Potassium","reference":"Observation/b15e7beb-8b2c-4288-8b70-5e5ef3aa6d5a"},{"display":"Chloride","reference":"Observation/9dff6477-15d2-40e8-a440-cbf7f9c790e2"},{"display":"Carbon Dioxide","reference":"Observation/c246eb73-0960-4ddd-b947-c5de21a2fa7e"},{"display":"Glomerular filtration rate/1.73 sq M.predicted","reference":"Observation/99810a9a-718d-4885-ad2b-18cabbd065b1"},{"display":"Protein [Mass/volume] in Serum or Plasma","reference":"Observation/864fc9c0-8441-49bf-8775-67e0683bd441"},{"display":"Albumin [Mass/volume] in Serum or Plasma","reference":"Observation/03dcf447-5bd2-479c-a654-9ef29fc087ab"},{"display":"Globulin [Mass/volume] in Serum by calculation","reference":"Observation/16ad497e-d4f8-4cf1-b92b-f376cbe57d2e"},{"display":"Bilirubin.total [Mass/volume] in Serum or Plasma","reference":"Observation/0e2c4a58-1de0-4fa0-ae7b-d5c014304799"},{"display":"Alkaline phosphatase [Enzymatic activity/volume] in Serum or Plasma","reference":"Observation/0e1b7d2a-61b6-40b0-8b66-ff846b2be538"},{"display":"Alanine aminotransferase [Enzymatic activity/volume] in Serum or Plasma","reference":"Observation/66d949e3-6383-4d5e-a00f-072fb919b492"},{"display":"Aspartate aminotransferase [Enzymatic activity/volume] in Serum or Plasma","reference":"Observation/b3e53491-2bfd-494a-9c08-e1a4102133ba"}],"status":"final","subject":{"reference":"Patient/00cb33f3-3c47-48f0-8606-ae2c82231e85"}}},{"resource":{"code":{"coding":[{"code":"57698-3","display":"Lipid Panel","system":"http://loinc.org"}],"text":"Lipid Panel"},"context":{"reference":"Encounter/e8218cdc-983c-42ac-9cba-51a15ea77ba9"},"effectiveDateTime":"1987-04-08T11:50:00-04:00","id":"38e73f77-eae0-47e9-8165-dd095ceb058d","issued":"1987-04-08T11:50:00.219-04:00","meta":{"lastUpdated":"2019-04-09T09:54:16.766225+00:00","versionId":"MTU1NDgwMzY1Njc2NjIyNTAwMA"},"resourceType":"DiagnosticReport","result":[{"display":"Total Cholesterol","reference":"Observation/50bc0143-1d44-4824-ad30-5de2d8a50214"},{"display":"Triglycerides","reference":"Observation/8000bc40-2ff5-4a66-95c1-3b202438e84b"},{"display":"Low Density Lipoprotein Cholesterol","reference":"Observation/54c87e64-ff54-427f-954f-bbcd06cb040e"},{"display":"High Density Lipoprotein Cholesterol","reference":"Observation/0b405f48-4861-4e3c-9f3f-1443d64b9012"}],"status":"final","subject":{"reference":"Patient/00cb33f3-3c47-48f0-8606-ae2c82231e85"}}},{"resource":{"code":{"coding":[{"code":"57698-3","display":"Lipid Panel","system":"http://loinc.org"}],"text":"Lipid Panel"},"context":{"reference":"Encounter/cb2ee47a-78aa-4935-a664-f853d97f27df"},"effectiveDateTime":"1986-05-26T11:50:00-04:00","id":"399cae4d-9038-4df7-9465-57133a660d4a","issued":"1986-05-26T11:50:00.219-04:00","meta":{"lastUpdated":"2019-04-09T09:54:15.749828+00:00","versionId":"MTU1NDgwMzY1NTc0OTgyODAwMA"},"resourceType":"DiagnosticReport","result":[{"display":"Total Cholesterol","reference":"Observation/1b5107c8-26d6-4ed4-bd08-155bbbc76f2e"},{"display":"Triglycerides","reference":"Observation/8e671805-446f-4bc7-a8b5-452381fa3d99"},{"display":"Low Density Lipoprotein Cholesterol","reference":"Observation/69f4444e-7583-417a-ac77-2cd98750303d"},{"display":"High Density Lipoprotein Cholesterol","reference":"Observation/53634bd6-5b09-4ffd-a7aa-7a587178f196"}],"status":"final","subject":{"reference":"Patient/00cb33f3-3c47-48f0-8606-ae2c82231e85"}}},{"resource":{"code":{"coding":[{"code":"57698-3","display":"Lipid Panel","system":"http://loinc.org"}],"text":"Lipid Panel"},"context":{"reference":"Encounter/6dff029c-a384-4585-b4f4-601c6d0045f7"},"effectiveDateTime":"1994-04-06T11:50:00-04:00","id":"471ece09-0743-49b5-8c1c-a284b77f858e","issued":"1994-04-06T11:50:00.219-04:00","meta":{"lastUpdated":"2019-04-09T09:54:28.152074+00:00","versionId":"MTU1NDgwMzY2ODE1MjA3NDAwMA"},"resourceType":"DiagnosticReport","result":[{"display":"Total Cholesterol","reference":"Observation/459d69e8-d99f-4114-b939-68dc324c94cb"},{"display":"Triglycerides","reference":"Observation/8e14f022-5bfb-40ca-900f-e5d5a178065a"},{"display":"Low Density Lipoprotein Cholesterol","reference":"Observation/9b7ced99-43b5-4566-a70e-910c31eb7eee"},{"display":"High Density Lipoprotein Cholesterol","reference":"Observation/07048d70-86de-4dc6-af6a-aac2c19ee55b"}],"status":"final","subject":{"reference":"Patient/00cb33f3-3c47-48f0-8606-ae2c82231e85"}}},{"resource":{"code":{"coding":[{"code":"57698-3","display":"Lipid Panel","system":"http://loinc.org"}],"text":"Lipid Panel"},"context":{"reference":"Encounter/af4cc9d3-5814-4dd1-9b81-3829fe4628ad"},"effectiveDateTime":"1993-04-06T11:50:00-04:00","id":"4ad8669d-9c62-406b-bc49-d4fa55e2b39a","issued":"1993-04-06T11:50:00.219-04:00","meta":{"lastUpdated":"2019-04-09T09:54:24.954724+00:00","versionId":"MTU1NDgwMzY2NDk1NDcyNDAwMA"},"resourceType":"DiagnosticReport","result":[{"display":"Total Cholesterol","reference":"Observation/120e0aec-9dee-412a-bf23-7265748038a0"},{"display":"Triglycerides","reference":"Observation/78b3bf57-b928-4e95-a4ff-3756f24a4e47"},{"display":"Low Density Lipoprotein Cholesterol","reference":"Observation/7e8e0b37-a866-4870-9917-3d8d55dee096"},{"display":"High Density Lipoprotein Cholesterol","reference":"Observation/a8cd4584-79f0-49dc-bb1f-045ab2e349cd"}],"status":"final","subject":{"reference":"Patient/00cb33f3-3c47-48f0-8606-ae2c82231e85"}}},{"resource":{"code":{"coding":[{"code":"24323-8","display":"Comprehensive metabolic 2000 panel - Serum or Plasma","system":"http://loinc.org"}],"text":"Comprehensive metabolic 2000 panel - Serum or Plasma"},"context":{"reference":"Encounter/6f81e014-a1bc-403b-834e-fe0213804c69"},"effectiveDateTime":"1991-04-07T11:50:00-04:00","id":"4bc06644-3500-4294-97b6-ea60cb0a3059","issued":"1991-04-07T11:50:00.219-04:00","meta":{"lastUpdated":"2019-04-09T09:54:20.854574+00:00","versionId":"MTU1NDgwMzY2MDg1NDU3NDAwMA"},"resourceType":"DiagnosticReport","result":[{"display":"Glucose","reference":"Observation/4e9a3d60-68f2-485d-bf87-f88f94824cec"},{"display":"Urea Nitrogen","reference":"Observation/558fb339-c04f-40dc-844d-70d237ebbcd2"},{"display":"Creatinine","reference":"Observation/1df91ad0-1309-439c-aa49-2669552208f1"},{"display":"Calcium","reference":"Observation/82fcdbca-0104-4355-8772-721249f085dd"},{"display":"Sodium","reference":"Observation/9519d888-4e2f-4ee9-962a-8aa0781ff792"},{"display":"Potassium","reference":"Observation/c3c84163-5bbc-49bb-9187-7b7632daa95c"},{"display":"Chloride","reference":"Observation/887c9e60-d00c-454d-8b61-1645830bd4f9"},{"display":"Carbon Dioxide","reference":"Observation/adfc8ac7-7f9f-42e0-ae9b-f8723c2ce890"},{"display":"Glomerular filtration rate/1.73 sq M.predicted","reference":"Observation/3f435e67-90f7-463b-9637-c088ae715bc9"},{"display":"Protein [Mass/volume] in Serum or Plasma","reference":"Observation/3fae29b3-0d57-4f1d-a1f4-60abea23de13"},{"display":"Albumin [Mass/volume] in Serum or Plasma","reference":"Observation/1912ce9f-a027-4243-b7e2-d00fda42a1d4"},{"display":"Globulin [Mass/volume] in Serum by calculation","reference":"Observation/892ab821-7b42-4a17-ae13-e08269d1a1a4"},{"display":"Bilirubin.total [Mass/volume] in Serum or Plasma","reference":"Observation/d4551115-ad65-4772-a758-ce0e565f6990"},{"display":"Alkaline phosphatase [Enzymatic activity/volume] in Serum or Plasma","reference":"Observation/7ee0c701-dd5a-47db-91ea-a05dff8611d6"},{"display":"Alanine aminotransferase [Enzymatic activity/volume] in Serum or Plasma","reference":"Observation/45cbd330-001c-4540-88f6-a392753a7e9c"},{"display":"Aspartate aminotransferase [Enzymatic activity/volume] in Serum or Plasma","reference":"Observation/17170877-a368-4257-87aa-8c5ac0b71b6d"}],"status":"final","subject":{"reference":"Patient/00cb33f3-3c47-48f0-8606-ae2c82231e85"}}},{"resource":{"code":{"coding":[{"code":"24323-8","display":"Comprehensive metabolic 2000 panel - Serum or Plasma","system":"http://loinc.org"}],"text":"Comprehensive metabolic 2000 panel - Serum or Plasma"},"context":{"reference":"Encounter/e8218cdc-983c-42ac-9cba-51a15ea77ba9"},"effectiveDateTime":"1987-04-08T11:50:00-04:00","id":"4f507855-de09-4839-ad2e-ec134ae69488","issued":"1987-04-08T11:50:00.219-04:00","meta":{"lastUpdated":"2019-04-09T09:54:16.776694+00:00","versionId":"MTU1NDgwMzY1Njc3NjY5NDAwMA"},"resourceType":"DiagnosticReport","result":[{"display":"Glucose","reference":"Observation/e6fd4c73-a0e8-4d3c-ad59-54f089522b67"},{"display":"Urea Nitrogen","reference":"Observation/0eb66436-1af9-48f6-b740-0df6cab39a89"},{"display":"Creatinine","reference":"Observation/de342e28-389a-49ac-8365-2187a927026a"},{"display":"Calcium","reference":"Observation/b2977921-473c-4d50-bda6-7737a0feda70"},{"display":"Sodium","reference":"Observation/0d0f5355-eb40-4cf3-8133-849051a763e4"},{"display":"Potassium","reference":"Observation/48fa407e-387f-4e30-a7ce-ec747c820fde"},{"display":"Chloride","reference":"Observation/4fc5cdeb-a0d9-4306-9962-e66dda677421"},{"display":"Carbon Dioxide","reference":"Observation/3a3648ba-8954-4186-89ec-309aeae4a66f"},{"display":"Glomerular filtration rate/1.73 sq M.predicted","reference":"Observation/363487af-0e5c-426f-9671-b18319180594"},{"display":"Protein [Mass/volume] in Serum or Plasma","reference":"Observation/f3a77dd8-1e6e-450b-8be2-55f6d2bb0d36"},{"display":"Albumin [Mass/volume] in Serum or Plasma","reference":"Observation/cae3b18d-39c2-4293-ab4c-8a9a2ab08b43"},{"display":"Globulin [Mass/volume] in Serum by calculation","reference":"Observation/ea2ca3bb-17ea-4772-bdfd-f30ac2364778"},{"display":"Bilirubin.total [Mass/volume] in Serum or Plasma","reference":"Observation/06d68955-e44f-4750-a950-44680a4cdb13"},{"display":"Alkaline phosphatase [Enzymatic activity/volume] in Serum or Plasma","reference":"Observation/9f3e47c2-263b-4139-82f2-3b3558aa24e2"},{"display":"Alanine aminotransferase [Enzymatic activity/volume] in Serum or Plasma","reference":"Observation/d9e9dd56-9406-48cb-b917-81d64dbd2bb4"},{"display":"Aspartate aminotransferase [Enzymatic activity/volume] in Serum or Plasma","reference":"Observation/fe8e451c-b3be-408e-bd2d-1b351221f0ee"}],"status":"final","subject":{"reference":"Patient/00cb33f3-3c47-48f0-8606-ae2c82231e85"}}},{"resource":{"code":{"coding":[{"code":"69409-1","display":"U.S. standard certificate of death - 2003 revision","system":"http://loinc.org"}],"text":"U.S. standard certificate of death - 2003 revision"},"context":{"reference":"Encounter/a93f8a4d-f2d9-4bc1-a0ff-2f5ea884493e"},"effectiveDateTime":"1995-11-06T10:50:00-05:00","id":"59b933d9-0fa0-4aec-a120-83004e29397d","issued":"1995-11-06T10:50:00.219-05:00","meta":{"lastUpdated":"2019-04-09T09:54:34.468713+00:00","versionId":"MTU1NDgwMzY3NDQ2ODcxMzAwMA"},"resourceType":"DiagnosticReport","result":[{"display":"Cause of Death [US Standard Certificate of Death]","reference":"Observation/27d37b14-83ff-4bff-b084-479963c8e9e6"}],"status":"final","subject":{"reference":"Patient/00cb33f3-3c47-48f0-8606-ae2c82231e85"}}},{"resource":{"code":{"coding":[{"code":"57698-3","display":"Lipid Panel","system":"http://loinc.org"}],"text":"Lipid Panel"},"context":{"reference":"Encounter/cf5e1edd-7eff-4f3a-9fae-c3c704aa8515"},"effectiveDateTime":"1995-04-06T11:50:00-04:00","id":"5e864584-63d0-4207-96a1-ebc8a2fbd609","issued":"1995-04-06T11:50:00.219-04:00","meta":{"lastUpdated":"2019-04-09T09:54:32.409467+00:00","versionId":"MTU1NDgwMzY3MjQwOTQ2NzAwMA"},"resourceType":"DiagnosticReport","result":[{"display":"Total Cholesterol","reference":"Observation/d20ca056-4662-4a29-a8c6-f00b05169e68"},{"display":"Triglycerides","reference":"Observation/f6f3c8bf-5824-4c93-94f1-2d8a568b51c6"},{"display":"Low Density Lipoprotein Cholesterol","reference":"Observation/d2dc4591-2594-4d75-9afa-9aa6f025c148"},{"display":"High Density Lipoprotein Cholesterol","reference":"Observation/84441a3c-1f64-4c7d-a700-06591ad5d8b2"}],"status":"final","subject":{"reference":"Patient/00cb33f3-3c47-48f0-8606-ae2c82231e85"}}},{"resource":{"code":{"coding":[{"code":"51990-0","display":"Basic Metabolic Panel","system":"http://loinc.org"}],"text":"Basic Metabolic Panel"},"context":{"reference":"Encounter/cb2ee47a-78aa-4935-a664-f853d97f27df"},"effectiveDateTime":"1986-05-26T11:50:00-04:00","id":"5f4dabcf-89dc-4d6a-bcf9-e0ac635abcdf","issued":"1986-05-26T11:50:00.219-04:00","meta":{"lastUpdated":"2019-04-09T09:54:15.744576+00:00","versionId":"MTU1NDgwMzY1NTc0NDU3NjAwMA"},"resourceType":"DiagnosticReport","result":[{"display":"Glucose","reference":"Observation/1c13bf78-e5ba-483a-8f6f-ae2d214852f6"},{"display":"Urea Nitrogen","reference":"Observation/6e7bfac6-61c5-45f8-8ec6-0529e27d0cac"},{"display":"Creatinine","reference":"Observation/cfaa35b2-d18b-48dd-9b79-6ebd9e337d02"},{"display":"Calcium","reference":"Observation/55742596-8a4c-49e4-922d-26ae0bc9495f"},{"display":"Sodium","reference":"Observation/5b3b7f91-a8e4-464b-9dc7-660af47419cc"},{"display":"Potassium","reference":"Observation/fe8ead7a-909e-4711-9594-58271128a391"},{"display":"Chloride","reference":"Observation/7ca43189-c3a8-4fde-ada6-b3d25edadd15"},{"display":"Carbon Dioxide","reference":"Observation/d1e67b13-c0b0-4ed9-ab4e-5fbadaa277e4"}],"status":"final","subject":{"reference":"Patient/00cb33f3-3c47-48f0-8606-ae2c82231e85"}}},{"resource":{"code":{"coding":[{"code":"24323-8","display":"Comprehensive metabolic 2000 panel - Serum or Plasma","system":"http://loinc.org"}],"text":"Comprehensive metabolic 2000 panel - Serum or Plasma"},"context":{"reference":"Encounter/2257964a-4928-4d20-907f-a03641b9b7e6"},"effectiveDateTime":"1989-04-07T11:50:00-04:00","id":"639744f4-edf1-42b7-a936-493b80d0d3be","issued":"1989-04-07T11:50:00.219-04:00","meta":{"lastUpdated":"2019-04-09T09:54:18.823976+00:00","versionId":"MTU1NDgwMzY1ODgyMzk3NjAwMA"},"resourceType":"DiagnosticReport","result":[{"display":"Glucose","reference":"Observation/04d3ac04-23b7-4052-8aea-9bd34ca30d2e"},{"display":"Urea Nitrogen","reference":"Observation/95f6da43-29e6-45a1-adf3-f9bc8823e618"},{"display":"Creatinine","reference":"Observation/a623bf72-fd5c-4618-88bb-778a2607a8ae"},{"display":"Calcium","reference":"Observation/c88b89cc-7757-4219-ac03-f2c773c60874"},{"display":"Sodium","reference":"Observation/39f51c9a-8ab8-454d-ae41-20475295a63f"},{"display":"Potassium","reference":"Observation/27b45ca2-f24a-468a-bee0-181ea3a1d521"},{"display":"Chloride","reference":"Observation/e948df1c-980c-4a7d-bb36-921243fda6dd"},{"display":"Carbon Dioxide","reference":"Observation/cd38b503-f3ed-4a36-8f96-7a5b446f2db8"},{"display":"Glomerular filtration rate/1.73 sq M.predicted","reference":"Observation/0015b734-cb34-4f0d-a181-a485d275365d"},{"display":"Protein [Mass/volume] in Serum or Plasma","reference":"Observation/46b97f61-5cba-4960-b3a7-534229b9808a"},{"display":"Albumin [Mass/volume] in Serum or Plasma","reference":"Observation/372043e6-c54e-4393-941f-326b68ad6d3b"},{"display":"Globulin [Mass/volume] in Serum by calculation","reference":"Observation/23ff236c-ca6e-462f-ae9f-4078a88b30c4"},{"display":"Bilirubin.total [Mass/volume] in Serum or Plasma","reference":"Observation/f2f7cc2c-91cb-4a93-a400-4d1d1ab5e8fd"},{"display":"Alkaline phosphatase [Enzymatic activity/volume] in Serum or Plasma","reference":"Observation/ec23a3db-b53c-4b4b-b5a3-7081f69fce5b"},{"display":"Alanine aminotransferase [Enzymatic activity/volume] in Serum or Plasma","reference":"Observation/8aa1afdc-06a9-453d-97c1-2cc6726d12f2"},{"display":"Aspartate aminotransferase [Enzymatic activity/volume] in Serum or Plasma","reference":"Observation/4316c84d-2c9c-44d4-911c-7733dd2ffea1"}],"status":"final","subject":{"reference":"Patient/00cb33f3-3c47-48f0-8606-ae2c82231e85"}}},{"resource":{"code":{"coding":[{"code":"57698-3","display":"Lipid Panel","system":"http://loinc.org"}],"text":"Lipid Panel"},"context":{"reference":"Encounter/6c14c19d-713a-4dc8-909e-8d3639c2620e"},"effectiveDateTime":"1990-04-07T11:50:00-04:00","id":"69c3422c-f041-47f8-af3a-dca755b63d83","issued":"1990-04-07T11:50:00.219-04:00","meta":{"lastUpdated":"2019-04-09T09:54:19.825294+00:00","versionId":"MTU1NDgwMzY1OTgyNTI5NDAwMA"},"resourceType":"DiagnosticReport","result":[{"display":"Total Cholesterol","reference":"Observation/1272e933-6504-48b3-8ecc-36efdbabafb1"},{"display":"Triglycerides","reference":"Observation/bc136ae8-b415-4683-9fc9-ea68520e65bb"},{"display":"Low Density Lipoprotein Cholesterol","reference":"Observation/cd5fd043-1862-472a-b11f-8576493e1426"},{"display":"High Density Lipoprotein Cholesterol","reference":"Observation/e1af7c3e-99b0-4393-9008-098f14218b2d"}],"status":"final","subject":{"reference":"Patient/00cb33f3-3c47-48f0-8606-ae2c82231e85"}}},{"resource":{"code":{"coding":[{"code":"57698-3","display":"Lipid Panel","system":"http://loinc.org"}],"text":"Lipid Panel"},"context":{"reference":"Encounter/2257964a-4928-4d20-907f-a03641b9b7e6"},"effectiveDateTime":"1989-04-07T11:50:00-04:00","id":"70e5bca0-e69a-41a3-a18d-ddbf7e75f3f4","issued":"1989-04-07T11:50:00.219-04:00","meta":{"lastUpdated":"2019-04-09T09:54:18.798557+00:00","versionId":"MTU1NDgwMzY1ODc5ODU1NzAwMA"},"resourceType":"DiagnosticReport","result":[{"display":"Total Cholesterol","reference":"Observation/723c7750-cb78-40ca-b1b7-2d9f3fdc10ad"},{"display":"Triglycerides","reference":"Observation/b9665513-3650-4382-8eee-446b277109fd"},{"display":"Low Density Lipoprotein Cholesterol","reference":"Observation/886d04e9-af8f-43ea-8397-a561925a620c"},{"display":"High Density Lipoprotein Cholesterol","reference":"Observation/d1fda00c-43b6-4d33-9e74-5011926ec05e"}],"status":"final","subject":{"reference":"Patient/00cb33f3-3c47-48f0-8606-ae2c82231e85"}}},{"resource":{"code":{"coding":[{"code":"51990-0","display":"Basic Metabolic Panel","system":"http://loinc.org"}],"text":"Basic Metabolic Panel"},"context":{"reference":"Encounter/ab9b05e4-a1c7-48e8-85b7-1e4b1f0f6246"},"effectiveDateTime":"1995-07-17T11:50:00-04:00","id":"72dae1b7-a60b-4404-bf47-a6cf007668e5","issued":"1995-07-17T11:50:00.219-04:00","meta":{"lastUpdated":"2019-04-09T09:54:33.478825+00:00","versionId":"MTU1NDgwMzY3MzQ3ODgyNTAwMA"},"resourceType":"DiagnosticReport","result":[{"display":"Glucose","reference":"Observation/d1650e42-afbc-403d-b8e6-7e9103e644e8"},{"display":"Urea Nitrogen","reference":"Observation/a481855e-b9a6-48de-8978-c7434a0a25be"},{"display":"Creatinine","reference":"Observation/7cd3956b-5c0e-4128-ad19-bce62da68f48"},{"display":"Calcium","reference":"Observation/13a27230-2dc1-496e-9748-f6864c257ad3"},{"display":"Sodium","reference":"Observation/09851abd-4828-4635-a6e9-1c2b505da465"},{"display":"Potassium","reference":"Observation/62049958-1c89-4342-b7cb-bbcf0b41a203"},{"display":"Chloride","reference":"Observation/28f4f8c9-60e5-418e-a6a8-cf941a37acca"},{"display":"Carbon Dioxide","reference":"Observation/5286ea06-3ea7-4921-9a1d-ba2bae49624d"}],"status":"final","subject":{"reference":"Patient/00cb33f3-3c47-48f0-8606-ae2c82231e85"}}},{"resource":{"code":{"coding":[{"code":"57698-3","display":"Lipid Panel","system":"http://loinc.org"}],"text":"Lipid Panel"},"context":{"reference":"Encounter/0fc267e7-9967-4b98-8316-2491f77d4fb3"},"effectiveDateTime":"1989-06-12T11:50:00-04:00","id":"81662609-b5e8-47de-bce2-07396b0bd8e8","issued":"1989-06-12T11:50:00.219-04:00","meta":{"lastUpdated":"2019-04-09T09:54:19.825666+00:00","versionId":"MTU1NDgwMzY1OTgyNTY2NjAwMA"},"resourceType":"DiagnosticReport","result":[{"display":"Total Cholesterol","reference":"Observation/e53deeae-a353-424f-bb8d-a13d90e5513d"},{"display":"Triglycerides","reference":"Observation/96094dfd-321b-4f23-9ade-46853132ade6"},{"display":"Low Density Lipoprotein Cholesterol","reference":"Observation/9fc7536c-c087-446b-9458-269f7fb6a48a"},{"display":"High Density Lipoprotein Cholesterol","reference":"Observation/f59d696a-341d-4e27-9173-4443c558ada0"}],"status":"final","subject":{"reference":"Patient/00cb33f3-3c47-48f0-8606-ae2c82231e85"}}},{"resource":{"code":{"coding":[{"code":"51990-0","display":"Basic Metabolic Panel","system":"http://loinc.org"}],"text":"Basic Metabolic Panel"},"context":{"reference":"Encounter/2218edc6-7e5d-4235-a8f1-afd8581aeae5"},"effectiveDateTime":"1993-07-05T11:50:00-04:00","id":"855b9dfc-fa3d-4382-89b0-89cdbafdfa8a","issued":"1993-07-05T11:50:00.219-04:00","meta":{"lastUpdated":"2019-04-09T09:54:26.007683+00:00","versionId":"MTU1NDgwMzY2NjAwNzY4MzAwMA"},"resourceType":"DiagnosticReport","result":[{"display":"Glucose","reference":"Observation/fe2cdf73-57ee-48dd-81d3-540e45945582"},{"display":"Urea Nitrogen","reference":"Observation/ce3d4eb5-ec2f-438b-bc21-fc4cded0a01a"},{"display":"Creatinine","reference":"Observation/a2cab27a-b21b-4e03-a7c5-83292c57977b"},{"display":"Calcium","reference":"Observation/78a5d291-3a17-461b-82ae-382f1e29e0eb"},{"display":"Sodium","reference":"Observation/37333a69-5eab-4144-85a1-2b8c7e6cb6d6"},{"display":"Potassium","reference":"Observation/0d511ce8-b82f-4111-9912-9ef768cc08c5"},{"display":"Chloride","reference":"Observation/3641221f-74f6-4e10-947c-fa0793f2ac1a"},{"display":"Carbon Dioxide","reference":"Observation/33d1c499-74ae-4411-980d-56f9da9ffe26"}],"status":"final","subject":{"reference":"Patient/00cb33f3-3c47-48f0-8606-ae2c82231e85"}}},{"resource":{"code":{"coding":[{"code":"57698-3","display":"Lipid Panel","system":"http://loinc.org"}],"text":"Lipid Panel"},"context":{"reference":"Encounter/f9601045-352d-4d0a-9a64-83b73c9e8510"},"effectiveDateTime":"1988-04-07T11:50:00-04:00","id":"91243348-7969-43ff-8e14-476cfd4e652a","issued":"1988-04-07T11:50:00.219-04:00","meta":{"lastUpdated":"2019-04-09T09:54:16.771193+00:00","versionId":"MTU1NDgwMzY1Njc3MTE5MzAwMA"},"resourceType":"DiagnosticReport","result":[{"display":"Total Cholesterol","reference":"Observation/8f6c7354-2918-464a-bd00-d292cda2db0d"},{"display":"Triglycerides","reference":"Observation/d3303e42-dd36-401b-be70-c4feba31e191"},{"display":"Low Density Lipoprotein Cholesterol","reference":"Observation/39b3d227-ec3e-4f0b-b99b-b6e919031380"},{"display":"High Density Lipoprotein Cholesterol","reference":"Observation/18bca8dc-4c6e-47dc-a313-7c7d38c6aa2e"}],"status":"final","subject":{"reference":"Patient/00cb33f3-3c47-48f0-8606-ae2c82231e85"}}},{"resource":{"code":{"coding":[{"code":"51990-0","display":"Basic Metabolic Panel","system":"http://loinc.org"}],"text":"Basic Metabolic Panel"},"context":{"reference":"Encounter/0fc267e7-9967-4b98-8316-2491f77d4fb3"},"effectiveDateTime":"1989-06-12T11:50:00-04:00","id":"a0274233-7b14-4c09-b1a4-93c578a6ae72","issued":"1989-06-12T11:50:00.219-04:00","meta":{"lastUpdated":"2019-04-09T09:54:19.825665+00:00","versionId":"MTU1NDgwMzY1OTgyNTY2NTAwMA"},"resourceType":"DiagnosticReport","result":[{"display":"Glucose","reference":"Observation/7c664fc4-151c-44e6-a2b8-68fe480eb8ca"},{"display":"Urea Nitrogen","reference":"Observation/79c1c3a9-d949-44da-93cd-a0728e2c1f11"},{"display":"Creatinine","reference":"Observation/ef1a8cb5-a82d-4760-b294-8a911dfe3fc4"},{"display":"Calcium","reference":"Observation/baf3b706-9266-4467-be85-040cc5d05054"},{"display":"Sodium","reference":"Observation/994e787c-b85a-4c52-8a15-9e3ac8350ae0"},{"display":"Potassium","reference":"Observation/a7e9b243-e6d4-4c6e-9b33-869a68f6795f"},{"display":"Chloride","reference":"Observation/195fc0a2-eccd-4012-ae53-264ed1d3b5ef"},{"display":"Carbon Dioxide","reference":"Observation/8be7d583-a872-459d-8928-0bb110cf5a22"}],"status":"final","subject":{"reference":"Patient/00cb33f3-3c47-48f0-8606-ae2c82231e85"}}},{"resource":{"code":{"coding":[{"code":"51990-0","display":"Basic Metabolic Panel","system":"http://loinc.org"}],"text":"Basic Metabolic Panel"},"context":{"reference":"Encounter/1ec4d9ac-43f4-412b-b8ec-686c4b8d445c"},"effectiveDateTime":"1988-06-06T11:50:00-04:00","id":"a1ff243f-a085-4d62-9854-6dc50a53ce88","issued":"1988-06-06T11:50:00.219-04:00","meta":{"lastUpdated":"2019-04-09T09:54:17.793522+00:00","versionId":"MTU1NDgwMzY1Nzc5MzUyMjAwMA"},"resourceType":"DiagnosticReport","result":[{"display":"Glucose","reference":"Observation/83f9bda6-40ee-4132-88c4-32d2cc260ceb"},{"display":"Urea Nitrogen","reference":"Observation/31cf3c5a-4064-49fa-9841-e849ade3f114"},{"display":"Creatinine","reference":"Observation/73ca8689-8858-4ab6-ba18-5923c50be762"},{"display":"Calcium","reference":"Observation/bea8248b-eace-4b3c-9150-71da9480fd30"},{"display":"Sodium","reference":"Observation/04515b97-7a95-4021-bae4-d91777785249"},{"display":"Potassium","reference":"Observation/2be7b049-972f-4230-8856-14a18510744c"},{"display":"Chloride","reference":"Observation/3ed784dd-8beb-4b20-a949-0ac901ca945c"},{"display":"Carbon Dioxide","reference":"Observation/c46a2990-c8ef-4b6e-be64-1fcd5c6df820"}],"status":"final","subject":{"reference":"Patient/00cb33f3-3c47-48f0-8606-ae2c82231e85"}}},{"resource":{"code":{"coding":[{"code":"57698-3","display":"Lipid Panel","system":"http://loinc.org"}],"text":"Lipid Panel"},"context":{"reference":"Encounter/6f81e014-a1bc-403b-834e-fe0213804c69"},"effectiveDateTime":"1991-04-07T11:50:00-04:00","id":"a902fb25-94e6-483c-a344-c375800e0a74","issued":"1991-04-07T11:50:00.219-04:00","meta":{"lastUpdated":"2019-04-09T09:54:20.865125+00:00","versionId":"MTU1NDgwMzY2MDg2NTEyNTAwMA"},"resourceType":"DiagnosticReport","result":[{"display":"Total Cholesterol","reference":"Observation/6b54083a-74f9-4c9c-8375-97bfdefe0231"},{"display":"Triglycerides","reference":"Observation/10b45f22-6c69-48fe-a1d8-733f6767618e"},{"display":"Low Density Lipoprotein Cholesterol","reference":"Observation/0ba0b7a6-9828-49a4-838e-dfebf81837c6"},{"display":"High Density Lipoprotein Cholesterol","reference":"Observation/bc9d1316-0c93-4444-9065-307c18e2375b"}],"status":"final","subject":{"reference":"Patient/00cb33f3-3c47-48f0-8606-ae2c82231e85"}}},{"resource":{"code":{"coding":[{"code":"51990-0","display":"Basic Metabolic Panel","system":"http://loinc.org"}],"text":"Basic Metabolic Panel"},"context":{"reference":"Encounter/5bac2419-1501-4c4c-92d4-46243ec4599c"},"effectiveDateTime":"1994-07-11T11:50:00-04:00","id":"ad10cd13-2a0c-4cbd-9e8b-45e8a9e7318b","issued":"1994-07-11T11:50:00.219-04:00","meta":{"lastUpdated":"2019-04-09T09:54:29.161609+00:00","versionId":"MTU1NDgwMzY2OTE2MTYwOTAwMA"},"resourceType":"DiagnosticReport","result":[{"display":"Glucose","reference":"Observation/11689b6e-90f0-4dd2-adcb-b974c84642c3"},{"display":"Urea Nitrogen","reference":"Observation/ef18b1f2-6b61-460e-9fa1-8d59c41c4534"},{"display":"Creatinine","reference":"Observation/0084897c-25b8-4876-8d34-7daa051145a4"},{"display":"Calcium","reference":"Observation/76cd31f1-5749-47f7-85c3-23e345a0f7a8"},{"display":"Sodium","reference":"Observation/bb515b1b-09da-4887-be46-209dd1252139"},{"display":"Potassium","reference":"Observation/95020be8-e932-4e3e-baca-b982a91c6ebb"},{"display":"Chloride","reference":"Observation/5ae2cc0f-5a84-4472-95e5-d73b967364a1"},{"display":"Carbon Dioxide","reference":"Observation/5ee24543-8f1a-432d-9ec9-f2dc36a74fef"}],"status":"final","subject":{"reference":"Patient/00cb33f3-3c47-48f0-8606-ae2c82231e85"}}},{"resource":{"code":{"coding":[{"code":"58410-2","display":"Complete blood count (hemogram) panel - Blood by Automated count","system":"http://loinc.org"}],"text":"Complete blood count (hemogram) panel - Blood by Automated count"},"context":{"reference":"Encounter/1ec4d9ac-43f4-412b-b8ec-686c4b8d445c"},"effectiveDateTime":"1988-06-06T11:50:00-04:00","id":"c844f05f-c16c-4148-8a2d-bb2d29922dd9","issued":"1988-06-06T11:50:00.219-04:00","meta":{"lastUpdated":"2019-04-09T09:54:17.792274+00:00","versionId":"MTU1NDgwMzY1Nzc5MjI3NDAwMA"},"resourceType":"DiagnosticReport","result":[{"display":"Leukocytes [#/volume] in Blood by Automated count","reference":"Observation/b44e89df-5a31-4a07-8397-46fabdd95a50"},{"display":"Erythrocytes [#/volume] in Blood by Automated count","reference":"Observation/09898480-1748-49e5-b167-4871e624cc15"},{"display":"Hemoglobin [Mass/volume] in Blood","reference":"Observation/e42633a4-a0c0-4355-97ef-f748b9c1bd0b"},{"display":"Hematocrit [Volume Fraction] of Blood by Automated count","reference":"Observation/16bd3555-41ec-4f4a-b554-c9d6ea5dc60f"},{"display":"MCV [Entitic volume] by Automated count","reference":"Observation/682c0e05-f4f3-45cb-879f-2ac8ae744909"},{"display":"MCH [Entitic mass] by Automated count","reference":"Observation/903497f8-0254-4943-b39c-083c50c2865b"},{"display":"MCHC [Mass/volume] by Automated count","reference":"Observation/e5bdb151-ab2c-4ded-bf27-086553a1c5eb"},{"display":"Erythrocyte distribution width [Entitic volume] by Automated count","reference":"Observation/17e464af-d071-4af0-9857-131c4b9239e8"},{"display":"Platelets [#/volume] in Blood by Automated count","reference":"Observation/05ba2056-5608-48e3-9d18-554a3453feaf"},{"display":"Platelet distribution width [Entitic volume] in Blood by Automated count","reference":"Observation/04e20175-94c8-4e74-a089-c31d2345ce34"},{"display":"Platelet mean volume [Entitic volume] in Blood by Automated count","reference":"Observation/0c01e58d-2446-49dd-8a37-eca98ac73251"}],"status":"final","subject":{"reference":"Patient/00cb33f3-3c47-48f0-8606-ae2c82231e85"}}},{"resource":{"code":{"coding":[{"code":"51990-0","display":"Basic Metabolic Panel","system":"http://loinc.org"}],"text":"Basic Metabolic Panel"},"context":{"reference":"Encounter/b9ddabee-e61b-4606-b0c4-b2a1ec1abba4"},"effectiveDateTime":"1987-06-01T11:50:00-04:00","id":"c989992d-5cdd-4f64-bbc0-4cbf3a4cb16b","issued":"1987-06-01T11:50:00.219-04:00","meta":{"lastUpdated":"2019-04-09T09:54:16.787575+00:00","versionId":"MTU1NDgwMzY1Njc4NzU3NTAwMA"},"resourceType":"DiagnosticReport","result":[{"display":"Glucose","reference":"Observation/b01cd068-62fc-44b2-98ce-d4260ac557a5"},{"display":"Urea Nitrogen","reference":"Observation/f939c8be-55dd-44b1-8dbe-fd8e6375fd27"},{"display":"Creatinine","reference":"Observation/d817f1ac-d955-43bf-bc62-7c28c346e985"},{"display":"Calcium","reference":"Observation/74fe1ca0-1c04-4b65-b469-1cd23d62055b"},{"display":"Sodium","reference":"Observation/772fb273-2f9c-4d56-a2c0-9bfc70c51c8a"},{"display":"Potassium","reference":"Observation/12817b1b-7de8-465a-ac24-a8c012a14620"},{"display":"Chloride","reference":"Observation/35bd3a39-0c90-4758-bfba-8ed9b2072e91"},{"display":"Carbon Dioxide","reference":"Observation/14842ff7-71d6-4fb9-9cac-e243eece7908"}],"status":"final","subject":{"reference":"Patient/00cb33f3-3c47-48f0-8606-ae2c82231e85"}}},{"resource":{"code":{"coding":[{"code":"24323-8","display":"Comprehensive metabolic 2000 panel - Serum or Plasma","system":"http://loinc.org"}],"text":"Comprehensive metabolic 2000 panel - Serum or Plasma"},"context":{"reference":"Encounter/af4cc9d3-5814-4dd1-9b81-3829fe4628ad"},"effectiveDateTime":"1993-04-06T11:50:00-04:00","id":"dc614611-306c-4287-9ec0-d5bb2587068a","issued":"1993-04-06T11:50:00.219-04:00","meta":{"lastUpdated":"2019-04-09T09:54:24.965035+00:00","versionId":"MTU1NDgwMzY2NDk2NTAzNTAwMA"},"resourceType":"DiagnosticReport","result":[{"display":"Glucose","reference":"Observation/4eb44eb9-93aa-4ff0-892e-f0cedf58e58e"},{"display":"Urea Nitrogen","reference":"Observation/2de745c9-a9c2-4ac9-8fb8-52ce521e1742"},{"display":"Creatinine","reference":"Observation/463d03f6-8ac7-4e0a-a25f-706701203157"},{"display":"Calcium","reference":"Observation/14b4b105-2bb3-41cc-bc5a-f598354b06c2"},{"display":"Sodium","reference":"Observation/a8cf30da-b680-4999-ae6a-205dba247b27"},{"display":"Potassium","reference":"Observation/04af392d-5947-4aab-9a34-d98142625171"},{"display":"Chloride","reference":"Observation/87105f9f-cc74-4a50-bff1-9f50ab775966"},{"display":"Carbon Dioxide","reference":"Observation/f2e69ce8-32aa-4573-b89e-7cbfe641e458"},{"display":"Glomerular filtration rate/1.73 sq M.predicted","reference":"Observation/b376f9c4-8dbc-4938-9f19-df75604adbf9"},{"display":"Protein [Mass/volume] in Serum or Plasma","reference":"Observation/7e555483-9799-4bf7-8c24-bb93d01f8311"},{"display":"Albumin [Mass/volume] in Serum or Plasma","reference":"Observation/cbf04c47-65d2-4c47-bc93-124e97653b6f"},{"display":"Globulin [Mass/volume] in Serum by calculation","reference":"Observation/cec6f4db-8c26-4826-b12e-b3cb1b3cf759"},{"display":"Bilirubin.total [Mass/volume] in Serum or Plasma","reference":"Observation/c0f3a3ae-ba16-46da-8f33-00b876abbb48"},{"display":"Alkaline phosphatase [Enzymatic activity/volume] in Serum or Plasma","reference":"Observation/7a036748-1aea-4042-85c0-490ed954adcc"},{"display":"Alanine aminotransferase [Enzymatic activity/volume] in Serum or Plasma","reference":"Observation/6690de8c-b62e-4329-b301-675df32f770a"},{"display":"Aspartate aminotransferase [Enzymatic activity/volume] in Serum or Plasma","reference":"Observation/7ec9fd77-76a9-493b-8fe1-f55357d8c1f1"}],"status":"final","subject":{"reference":"Patient/00cb33f3-3c47-48f0-8606-ae2c82231e85"}}},{"resource":{"code":{"coding":[{"code":"57698-3","display":"Lipid Panel","system":"http://loinc.org"}],"text":"Lipid Panel"},"context":{"reference":"Encounter/9b2e5cd7-c347-4b57-b597-f70200aff63f"},"effectiveDateTime":"1986-04-08T10:50:00-05:00","id":"e28bb5f6-6b0a-41bf-a19b-dbbf841dd795","issued":"1986-04-08T10:50:00.219-05:00","meta":{"lastUpdated":"2019-04-09T09:54:15.737821+00:00","versionId":"MTU1NDgwMzY1NTczNzgyMTAwMA"},"resourceType":"DiagnosticReport","result":[{"display":"Total Cholesterol","reference":"Observation/27cf555a-dc2f-44b9-b535-08b1dd0994f8"},{"display":"Triglycerides","reference":"Observation/0b4fde6a-fc5a-4386-856c-cf9387577288"},{"display":"Low Density Lipoprotein Cholesterol","reference":"Observation/4e2cba11-15ba-4983-b0b5-adfc81ce8ad6"},{"display":"High Density Lipoprotein Cholesterol","reference":"Observation/7dc1bea2-f526-4e64-9eea-6fb393d24489"}],"status":"final","subject":{"reference":"Patient/00cb33f3-3c47-48f0-8606-ae2c82231e85"}}},{"resource":{"code":{"coding":[{"code":"51990-0","display":"Basic Metabolic Panel","system":"http://loinc.org"}],"text":"Basic Metabolic Panel"},"context":{"reference":"Encounter/a54655ca-4395-44be-a125-c3c1f432b1de"},"effectiveDateTime":"1991-06-24T11:50:00-04:00","id":"e70ba110-cb56-498f-b05d-8130f2439a4c","issued":"1991-06-24T11:50:00.219-04:00","meta":{"lastUpdated":"2019-04-09T09:54:21.879987+00:00","versionId":"MTU1NDgwMzY2MTg3OTk4NzAwMA"},"resourceType":"DiagnosticReport","result":[{"display":"Glucose","reference":"Observation/7376dc2d-9e72-4f32-91ff-a082b7ce3b6b"},{"display":"Urea Nitrogen","reference":"Observation/fa4aff36-d2b7-4456-8767-c96e297d9b4e"},{"display":"Creatinine","reference":"Observation/ca1cb48b-0342-4325-9e49-2a63dff3d05a"},{"display":"Calcium","reference":"Observation/0fc29139-613d-4295-a384-a091ec916055"},{"display":"Sodium","reference":"Observation/81b8b8f1-e738-45fc-8a9f-e7d8c8818483"},{"display":"Potassium","reference":"Observation/bc2fbc9a-1b58-49e1-965c-7cee628bd411"},{"display":"Chloride","reference":"Observation/f02bbe95-60cf-4811-9090-13b6a6965f46"},{"display":"Carbon Dioxide","reference":"Observation/57cc379c-3112-4e3f-9cd3-6cee909fe3f3"}],"status":"final","subject":{"reference":"Patient/00cb33f3-3c47-48f0-8606-ae2c82231e85"}}},{"resource":{"code":{"coding":[{"code":"57698-3","display":"Lipid Panel","system":"http://loinc.org"}],"text":"Lipid Panel"},"context":{"reference":"Encounter/a5b01ee9-3d05-4b82-97d4-e67ad42c1c09"},"effectiveDateTime":"1992-06-29T11:50:00-04:00","id":"e74509e8-db40-43db-a96f-6d76d37ad76d","issued":"1992-06-29T11:50:00.219-04:00","meta":{"lastUpdated":"2019-04-09T09:54:22.905100+00:00","versionId":"MTU1NDgwMzY2MjkwNTEwMDAwMA"},"resourceType":"DiagnosticReport","result":[{"display":"Total Cholesterol","reference":"Observation/4d330e28-5975-4639-8c71-ee21eda7c401"},{"display":"Triglycerides","reference":"Observation/f6712c04-2712-48b9-ba93-749e53062c5e"},{"display":"Low Density Lipoprotein Cholesterol","reference":"Observation/1323d7df-f547-42c5-9d17-a6ca40d49998"},{"display":"High Density Lipoprotein Cholesterol","reference":"Observation/bc03b38c-63d7-4fc9-b8d8-52cec8a5e914"}],"status":"final","subject":{"reference":"Patient/00cb33f3-3c47-48f0-8606-ae2c82231e85"}}},{"resource":{"code":{"coding":[{"code":"57698-3","display":"Lipid Panel","system":"http://loinc.org"}],"text":"Lipid Panel"},"context":{"reference":"Encounter/ab9b05e4-a1c7-48e8-85b7-1e4b1f0f6246"},"effectiveDateTime":"1995-07-17T11:50:00-04:00","id":"ee5d4adb-b132-43f3-86d7-6808f1a6865b","issued":"1995-07-17T11:50:00.219-04:00","meta":{"lastUpdated":"2019-04-09T09:54:33.478820+00:00","versionId":"MTU1NDgwMzY3MzQ3ODgyMDAwMA"},"resourceType":"DiagnosticReport","result":[{"display":"Total Cholesterol","reference":"Observation/4e6dcd29-f78d-4a47-b083-2519dcf8b8b1"},{"display":"Triglycerides","reference":"Observation/12555689-7b94-425d-9d03-78def5306de9"},{"display":"Low Density Lipoprotein Cholesterol","reference":"Observation/15020440-c51a-4a21-a22e-06e24d7b3761"},{"display":"High Density Lipoprotein Cholesterol","reference":"Observation/b8b8b945-4728-4e63-a18d-3918b21f70f7"}],"status":"final","subject":{"reference":"Patient/00cb33f3-3c47-48f0-8606-ae2c82231e85"}}},{"resource":{"code":{"coding":[{"code":"24323-8","display":"Comprehensive metabolic 2000 panel - Serum or Plasma","system":"http://loinc.org"}],"text":"Comprehensive metabolic 2000 panel - Serum or Plasma"},"context":{"reference":"Encounter/6c14c19d-713a-4dc8-909e-8d3639c2620e"},"effectiveDateTime":"1990-04-07T11:50:00-04:00","id":"ee7c339a-f4f0-4771-8910-39d7bcd65035","issued":"1990-04-07T11:50:00.219-04:00","meta":{"lastUpdated":"2019-04-09T09:54:19.824377+00:00","versionId":"MTU1NDgwMzY1OTgyNDM3NzAwMA"},"resourceType":"DiagnosticReport","result":[{"display":"Glucose","reference":"Observation/08d1caf1-ec7e-4a15-95f7-3214736e8fc8"},{"display":"Urea Nitrogen","reference":"Observation/504ea689-53c0-447d-b1d5-564b6c93a5c2"},{"display":"Creatinine","reference":"Observation/ad75b64e-51ce-415f-bc63-b6611329beb4"},{"display":"Calcium","reference":"Observation/f52184f3-8ed3-41b1-97dd-ff37b6786a45"},{"display":"Sodium","reference":"Observation/c5c452de-4202-47dc-ae30-2b4cf430986e"},{"display":"Potassium","reference":"Observation/13a94924-db0d-4250-adaa-326d978869bb"},{"display":"Chloride","reference":"Observation/7519d783-e1da-44bb-9b92-4431a4105ca0"},{"display":"Carbon Dioxide","reference":"Observation/a00dead1-92b3-4afd-b492-f2df680e0c3e"},{"display":"Glomerular filtration rate/1.73 sq M.predicted","reference":"Observation/7d585fd7-1565-483b-bfdd-3630ef9309b1"},{"display":"Protein [Mass/volume] in Serum or Plasma","reference":"Observation/0bee9aec-4e46-46b4-91a0-5233e73dbea2"},{"display":"Albumin [Mass/volume] in Serum or Plasma","reference":"Observation/8f417a50-c07f-410e-b529-6e732fdac701"},{"display":"Globulin [Mass/volume] in Serum by calculation","reference":"Observation/235dc546-fc1c-4b3b-8ccd-fa7656e5b440"},{"display":"Bilirubin.total [Mass/volume] in Serum or Plasma","reference":"Observation/9865cea1-e950-4a8f-837b-608ef677d2b7"},{"display":"Alkaline phosphatase [Enzymatic activity/volume] in Serum or Plasma","reference":"Observation/ff69e441-b57b-4b68-b1aa-5195ce1d36cf"},{"display":"Alanine aminotransferase [Enzymatic activity/volume] in Serum or Plasma","reference":"Observation/4bfd62f2-4dee-4654-a876-2933f75114b1"},{"display":"Aspartate aminotransferase [Enzymatic activity/volume] in Serum or Plasma","reference":"Observation/02a63089-7858-481f-bcab-f1086cdaa6f4"}],"status":"final","subject":{"reference":"Patient/00cb33f3-3c47-48f0-8606-ae2c82231e85"}}},{"resource":{"code":{"coding":[{"code":"24323-8","display":"Comprehensive metabolic 2000 panel - Serum or Plasma","system":"http://loinc.org"}],"text":"Comprehensive metabolic 2000 panel - Serum or Plasma"},"context":{"reference":"Encounter/6dff029c-a384-4585-b4f4-601c6d0045f7"},"effectiveDateTime":"1994-04-06T11:50:00-04:00","id":"f83bea9b-c82a-4b5d-bd81-ea0f4e1e91ba","issued":"1994-04-06T11:50:00.219-04:00","meta":{"lastUpdated":"2019-04-09T09:54:28.154475+00:00","versionId":"MTU1NDgwMzY2ODE1NDQ3NTAwMA"},"resourceType":"DiagnosticReport","result":[{"display":"Glucose","reference":"Observation/7c4486ac-7312-4557-b7e7-6434b7017152"},{"display":"Urea Nitrogen","reference":"Observation/a2d7b059-7cb0-4318-a745-579617d9a738"},{"display":"Creatinine","reference":"Observation/86af378a-839f-4f87-86c5-c6e4101a6704"},{"display":"Calcium","reference":"Observation/b1e9c618-1444-4a63-bba9-06f2af05d2c2"},{"display":"Sodium","reference":"Observation/ab2251b9-0018-4a5d-8cea-af96fd6a3e3f"},{"display":"Potassium","reference":"Observation/85462085-f486-4d9d-be28-2cf696005f74"},{"display":"Chloride","reference":"Observation/9462e5a9-6d47-4b7b-9f68-3be7c7decffc"},{"display":"Carbon Dioxide","reference":"Observation/2006c116-3b0f-441a-9738-8d5a5bca8c96"},{"display":"Glomerular filtration rate/1.73 sq M.predicted","reference":"Observation/17df70d4-43ec-4313-aeb4-c2f2f1c175f7"},{"display":"Protein [Mass/volume] in Serum or Plasma","reference":"Observation/5da4112a-463d-4d0e-aeb6-02cb8c78a4c4"},{"display":"Albumin [Mass/volume] in Serum or Plasma","reference":"Observation/79bbe183-cfba-4f2b-a6ea-361f2a742041"},{"display":"Globulin [Mass/volume] in Serum by calculation","reference":"Observation/4a6abbf3-e854-44b9-9b75-c9e56cd78c82"},{"display":"Bilirubin.total [Mass/volume] in Serum or Plasma","reference":"Observation/9d229be1-5ceb-462c-a6aa-7c91f231f2d4"},{"display":"Alkaline phosphatase [Enzymatic activity/volume] in Serum or Plasma","reference":"Observation/6a8e6dec-4e8b-44bf-8481-8a55b0cfbbb4"},{"display":"Alanine aminotransferase [Enzymatic activity/volume] in Serum or Plasma","reference":"Observation/3348e0fd-e578-45d5-96fb-c34b5534f299"},{"display":"Aspartate aminotransferase [Enzymatic activity/volume] in Serum or Plasma","reference":"Observation/b170e4cc-8d2d-4947-9c50-9a09f4593453"}],"status":"final","subject":{"reference":"Patient/00cb33f3-3c47-48f0-8606-ae2c82231e85"}}},{"resource":{"code":{"coding":[{"code":"57698-3","display":"Lipid Panel","system":"http://loinc.org"}],"text":"Lipid Panel"},"context":{"reference":"Encounter/070ad40d-3b9a-4ea7-a419-484409329b6a"},"effectiveDateTime":"1992-04-06T11:50:00-04:00","id":"f8b00c74-f6ce-4ec0-a700-66f96815ed0c","issued":"1992-04-06T11:50:00.219-04:00","meta":{"lastUpdated":"2019-04-09T09:54:22.899203+00:00","versionId":"MTU1NDgwMzY2Mjg5OTIwMzAwMA"},"resourceType":"DiagnosticReport","result":[{"display":"Total Cholesterol","reference":"Observation/b9dd50ec-192f-4d4e-9b8a-cd58a76e23ca"},{"display":"Triglycerides","reference":"Observation/d627d770-e8ae-41f9-8b05-0e7fe86f3a05"},{"display":"Low Density Lipoprotein Cholesterol","reference":"Observation/08a4c245-0e0f-40f0-a251-3f12813c898f"},{"display":"High Density Lipoprotein Cholesterol","reference":"Observation/323cc7df-83db-4530-85ce-96c87a91c0b8"}],"status":"final","subject":{"reference":"Patient/00cb33f3-3c47-48f0-8606-ae2c82231e85"}}},{"resource":{"class":{"code":"outpatient"},"id":"01dcc6cd-f288-4cf4-8d67-74dd273c624f","meta":{"lastUpdated":"2019-04-09T09:54:22.904578+00:00","versionId":"MTU1NDgwMzY2MjkwNDU3ODAwMA"},"participant":[{"individual":{"reference":"Practitioner/93d453dc-1cba-49de-8835-be7972515216"}}],"period":{"end":"1992-11-03T12:32:00-05:00","start":"1992-11-03T10:50:00-05:00"},"reason":[{"coding":[{"code":"424132000","display":"Non-small cell carcinoma of lung, TNM stage 1 (disorder)","system":"http://snomed.info/sct"}]}],"resourceType":"Encounter","serviceProvider":{"reference":"Organization/1a60b448-1ca4-42bf-9155-499a2623d4bb"},"status":"finished","subject":{"reference":"Patient/00cb33f3-3c47-48f0-8606-ae2c82231e85"},"type":[{"coding":[{"code":"185347001","display":"Encounter for problem","system":"http://snomed.info/sct"}],"text":"Encounter for problem"}]}},{"resource":{"class":{"code":"ambulatory"},"id":"070ad40d-3b9a-4ea7-a419-484409329b6a","meta":{"lastUpdated":"2019-04-09T09:54:21.860503+00:00","versionId":"MTU1NDgwMzY2MTg2MDUwMzAwMA"},"participant":[{"individual":{"reference":"Practitioner/93d453dc-1cba-49de-8835-be7972515216"}}],"period":{"end":"1992-04-06T12:05:00-04:00","start":"1992-04-06T11:50:00-04:00"},"reason":[{"coding":[{"code":"55822004","display":"Hyperlipidemia","system":"http://snomed.info/sct"}]}],"resourceType":"Encounter","serviceProvider":{"reference":"Organization/1a60b448-1ca4-42bf-9155-499a2623d4bb"},"status":"finished","subject":{"reference":"Patient/00cb33f3-3c47-48f0-8606-ae2c82231e85"},"type":[{"coding":[{"code":"390906007","display":"Follow-up encounter","system":"http://snomed.info/sct"}],"text":"Follow-up encounter"}]}},{"resource":{"class":{"code":"inpatient"},"id":"0f60f19d-c161-451e-9317-085b3b417881","meta":{"lastUpdated":"2019-04-09T09:54:27.113934+00:00","versionId":"MTU1NDgwMzY2NzExMzkzNDAwMA"},"participant":[{"individual":{"reference":"Practitioner/93d453dc-1cba-49de-8835-be7972515216"}}],"period":{"end":"1994-01-17T12:50:00-05:00","start":"1994-01-16T10:50:00-05:00"},"resourceType":"Encounter","serviceProvider":{"reference":"Organization/1a60b448-1ca4-42bf-9155-499a2623d4bb"},"status":"finished","subject":{"reference":"Patient/00cb33f3-3c47-48f0-8606-ae2c82231e85"},"type":[{"coding":[{"code":"185347001","display":"Encounter for problem","system":"http://snomed.info/sct"}],"text":"Encounter for problem"}]}},{"resource":{"class":{"code":"WELLNESS"},"id":"0fc267e7-9967-4b98-8316-2491f77d4fb3","meta":{"lastUpdated":"2019-04-09T09:54:18.813376+00:00","versionId":"MTU1NDgwMzY1ODgxMzM3NjAwMA"},"participant":[{"individual":{"reference":"Practitioner/93d453dc-1cba-49de-8835-be7972515216"}}],"period":{"end":"1989-06-12T12:20:00-04:00","start":"1989-06-12T11:50:00-04:00"},"resourceType":"Encounter","serviceProvider":{"reference":"Organization/1a60b448-1ca4-42bf-9155-499a2623d4bb"},"status":"finished","subject":{"reference":"Patient/00cb33f3-3c47-48f0-8606-ae2c82231e85"},"type":[{"coding":[{"code":"185349003","display":"Encounter for check up (procedure)","system":"http://snomed.info/sct"}],"text":"Encounter for check up (procedure)"}]}},{"resource":{"class":{"code":"ambulatory"},"id":"10cff96b-a479-4845-be1b-8bcbd1b1f997","meta":{"lastUpdated":"2019-04-09T09:54:12.469215+00:00","versionId":"MTU1NDgwMzY1MjQ2OTIxNTAwMA"},"participant":[{"individual":{"reference":"Practitioner/93d453dc-1cba-49de-8835-be7972515216"}}],"period":{"end":"1966-04-13T11:05:00-05:00","start":"1966-04-13T10:50:00-05:00"},"reason":[{"coding":[{"code":"55822004","display":"Hyperlipidemia","system":"http://snomed.info/sct"}]}],"resourceType":"Encounter","serviceProvider":{"reference":"Organization/1a60b448-1ca4-42bf-9155-499a2623d4bb"},"status":"finished","subject":{"reference":"Patient/00cb33f3-3c47-48f0-8606-ae2c82231e85"},"type":[{"coding":[{"code":"390906007","display":"Follow-up encounter","system":"http://snomed.info/sct"}],"text":"Follow-up encounter"}]}},{"resource":{"class":{"code":"inpatient"},"id":"13ee208a-e239-48ad-9638-45d6d7c1fa88","meta":{"lastUpdated":"2019-04-09T09:54:23.939260+00:00","versionId":"MTU1NDgwMzY2MzkzOTI2MDAwMA"},"participant":[{"individual":{"reference":"Practitioner/93d453dc-1cba-49de-8835-be7972515216"}}],"period":{"end":"1993-03-10T12:50:00-05:00","start":"1993-03-09T10:50:00-05:00"},"resourceType":"Encounter","serviceProvider":{"reference":"Organization/1a60b448-1ca4-42bf-9155-499a2623d4bb"},"status":"finished","subject":{"reference":"Patient/00cb33f3-3c47-48f0-8606-ae2c82231e85"},"type":[{"coding":[{"code":"185347001","display":"Encounter for problem","system":"http://snomed.info/sct"}],"text":"Encounter for problem"}]}},{"resource":{"class":{"code":"inpatient"},"id":"17121864-ef24-4a34-af27-199c0d65309c","meta":{"lastUpdated":"2019-04-09T09:54:27.118318+00:00","versionId":"MTU1NDgwMzY2NzExODMxODAwMA"},"participant":[{"individual":{"reference":"Practitioner/93d453dc-1cba-49de-8835-be7972515216"}}],"period":{"end":"1993-11-16T10:50:00-05:00","start":"1993-11-15T10:50:00-05:00"},"resourceType":"Encounter","serviceProvider":{"reference":"Organization/1a60b448-1ca4-42bf-9155-499a2623d4bb"},"status":"finished","subject":{"reference":"Patient/00cb33f3-3c47-48f0-8606-ae2c82231e85"},"type":[{"coding":[{"code":"185347001","display":"Encounter for problem","system":"http://snomed.info/sct"}],"text":"Encounter for problem"}]}},{"resource":{"class":{"code":"ambulatory"},"id":"17e1520d-91f8-4ee6-bdb5-131bfaf5f298","meta":{"lastUpdated":"2019-04-09T09:54:23.939517+00:00","versionId":"MTU1NDgwMzY2MzkzOTUxNzAwMA"},"participant":[{"individual":{"reference":"Practitioner/93d453dc-1cba-49de-8835-be7972515216"}}],"period":{"end":"1993-01-27T11:05:00-05:00","start":"1993-01-27T10:50:00-05:00"},"reason":[{"coding":[{"code":"93761005","display":"Primary malignant neoplasm of colon","system":"http://snomed.info/sct"}]}],"resourceType":"Encounter","serviceProvider":{"reference":"Organization/1a60b448-1ca4-42bf-9155-499a2623d4bb"},"status":"finished","subject":{"reference":"Patient/00cb33f3-3c47-48f0-8606-ae2c82231e85"},"type":[{"coding":[{"code":"185349003","display":"Encounter for 'check-up'","system":"http://snomed.info/sct"}],"text":"Encounter for 'check-up'"}]}},{"resource":{"class":{"code":"inpatient"},"id":"18b80d0b-0a36-4f15-9e3b-72ac87b82638","meta":{"lastUpdated":"2019-04-09T09:54:32.404501+00:00","versionId":"MTU1NDgwMzY3MjQwNDUwMTAwMA"},"participant":[{"individual":{"reference":"Practitioner/93d453dc-1cba-49de-8835-be7972515216"}}],"period":{"end":"1995-05-31T13:50:00-04:00","start":"1995-05-30T11:50:00-04:00"},"resourceType":"Encounter","serviceProvider":{"reference":"Organization/1a60b448-1ca4-42bf-9155-499a2623d4bb"},"status":"finished","subject":{"reference":"Patient/00cb33f3-3c47-48f0-8606-ae2c82231e85"},"type":[{"coding":[{"code":"185347001","display":"Encounter for problem","system":"http://snomed.info/sct"}],"text":"Encounter for problem"}]}},{"resource":{"class":{"code":"inpatient"},"id":"1987dc84-516d-4d24-a12e-46e44e592599","meta":{"lastUpdated":"2019-04-09T09:54:26.003875+00:00","versionId":"MTU1NDgwMzY2NjAwMzg3NTAwMA"},"participant":[{"individual":{"reference":"Practitioner/93d453dc-1cba-49de-8835-be7972515216"}}],"period":{"end":"1993-07-11T12:50:00-04:00","start":"1993-07-10T11:50:00-04:00"},"resourceType":"Encounter","serviceProvider":{"reference":"Organization/1a60b448-1ca4-42bf-9155-499a2623d4bb"},"status":"finished","subject":{"reference":"Patient/00cb33f3-3c47-48f0-8606-ae2c82231e85"},"type":[{"coding":[{"code":"185347001","display":"Encounter for problem","system":"http://snomed.info/sct"}],"text":"Encounter for problem"}]}},{"resource":{"class":{"code":"ambulatory"},"id":"1c26edd0-8f36-4db7-9615-e3ba3737f343","meta":{"lastUpdated":"2019-04-09T09:54:14.719166+00:00","versionId":"MTU1NDgwMzY1NDcxOTE2NjAwMA"},"participant":[{"individual":{"reference":"Practitioner/93d453dc-1cba-49de-8835-be7972515216"}}],"period":{"end":"1985-03-05T12:13:00-05:00","start":"1985-03-05T10:50:00-05:00"},"resourceType":"Encounter","serviceProvider":{"reference":"Organization/1a60b448-1ca4-42bf-9155-499a2623d4bb"},"status":"finished","subject":{"reference":"Patient/00cb33f3-3c47-48f0-8606-ae2c82231e85"},"type":[{"coding":[{"code":"185349003","display":"Encounter for 'check-up'","system":"http://snomed.info/sct"}],"text":"Encounter for 'check-up'"}]}},{"resource":{"class":{"code":"ambulatory"},"id":"1d533313-ca6d-43e0-a2fc-bcdc8b8d6cfb","meta":{"lastUpdated":"2019-04-09T09:54:12.458708+00:00","versionId":"MTU1NDgwMzY1MjQ1ODcwODAwMA"},"participant":[{"individual":{"reference":"Practitioner/93d453dc-1cba-49de-8835-be7972515216"}}],"period":{"end":"1968-04-12T11:05:00-05:00","start":"1968-04-12T10:50:00-05:00"},"reason":[{"coding":[{"code":"55822004","display":"Hyperlipidemia","system":"http://snomed.info/sct"}]}],"resourceType":"Encounter","serviceProvider":{"reference":"Organization/1a60b448-1ca4-42bf-9155-499a2623d4bb"},"status":"finished","subject":{"reference":"Patient/00cb33f3-3c47-48f0-8606-ae2c82231e85"},"type":[{"coding":[{"code":"390906007","display":"Follow-up encounter","system":"http://snomed.info/sct"}],"text":"Follow-up encounter"}]}},{"resource":{"class":{"code":"WELLNESS"},"id":"1ec4d9ac-43f4-412b-b8ec-686c4b8d445c","meta":{"lastUpdated":"2019-04-09T09:54:17.798107+00:00","versionId":"MTU1NDgwMzY1Nzc5ODEwNzAwMA"},"participant":[{"individual":{"reference":"Practitioner/93d453dc-1cba-49de-8835-be7972515216"}}],"period":{"end":"1988-06-06T12:05:00-04:00","start":"1988-06-06T11:50:00-04:00"},"resourceType":"Encounter","serviceProvider":{"reference":"Organization/1a60b448-1ca4-42bf-9155-499a2623d4bb"},"status":"finished","subject":{"reference":"Patient/00cb33f3-3c47-48f0-8606-ae2c82231e85"},"type":[{"coding":[{"code":"185349003","display":"Encounter for check up (procedure)","system":"http://snomed.info/sct"}],"text":"Encounter for check up (procedure)"}]}},{"resource":{"class":{"code":"WELLNESS"},"id":"21e85152-d5ce-4906-b81a-3339da2ee395","meta":{"lastUpdated":"2019-04-09T09:54:19.812572+00:00","versionId":"MTU1NDgwMzY1OTgxMjU3MjAwMA"},"participant":[{"individual":{"reference":"Practitioner/93d453dc-1cba-49de-8835-be7972515216"}}],"period":{"end":"1990-06-18T12:05:00-04:00","start":"1990-06-18T11:50:00-04:00"},"resourceType":"Encounter","serviceProvider":{"reference":"Organization/1a60b448-1ca4-42bf-9155-499a2623d4bb"},"status":"finished","subject":{"reference":"Patient/00cb33f3-3c47-48f0-8606-ae2c82231e85"},"type":[{"coding":[{"code":"185349003","display":"Encounter for check up (procedure)","system":"http://snomed.info/sct"}],"text":"Encounter for check up (procedure)"}]}},{"resource":{"class":{"code":"ambulatory"},"id":"2208b163-4b81-46b1-acad-4613f6d3554d","meta":{"lastUpdated":"2019-04-09T09:54:12.464683+00:00","versionId":"MTU1NDgwMzY1MjQ2NDY4MzAwMA"},"participant":[{"individual":{"reference":"Practitioner/93d453dc-1cba-49de-8835-be7972515216"}}],"period":{"end":"1974-04-11T12:05:00-04:00","start":"1974-04-11T11:50:00-04:00"},"reason":[{"coding":[{"code":"55822004","display":"Hyperlipidemia","system":"http://snomed.info/sct"}]}],"resourceType":"Encounter","serviceProvider":{"reference":"Organization/1a60b448-1ca4-42bf-9155-499a2623d4bb"},"status":"finished","subject":{"reference":"Patient/00cb33f3-3c47-48f0-8606-ae2c82231e85"},"type":[{"coding":[{"code":"390906007","display":"Follow-up encounter","system":"http://snomed.info/sct"}],"text":"Follow-up encounter"}]}},{"resource":{"class":{"code":"WELLNESS"},"id":"2218edc6-7e5d-4235-a8f1-afd8581aeae5","meta":{"lastUpdated":"2019-04-09T09:54:24.958315+00:00","versionId":"MTU1NDgwMzY2NDk1ODMxNTAwMA"},"participant":[{"individual":{"reference":"Practitioner/93d453dc-1cba-49de-8835-be7972515216"}}],"period":{"end":"1993-07-05T12:05:00-04:00","start":"1993-07-05T11:50:00-04:00"},"resourceType":"Encounter","serviceProvider":{"reference":"Organization/1a60b448-1ca4-42bf-9155-499a2623d4bb"},"status":"finished","subject":{"reference":"Patient/00cb33f3-3c47-48f0-8606-ae2c82231e85"},"type":[{"coding":[{"code":"185349003","display":"Encounter for check up (procedure)","system":"http://snomed.info/sct"}],"text":"Encounter for check up (procedure)"}]}},{"resource":{"class":{"code":"ambulatory"},"id":"2257964a-4928-4d20-907f-a03641b9b7e6","meta":{"lastUpdated":"2019-04-09T09:54:17.793021+00:00","versionId":"MTU1NDgwMzY1Nzc5MzAyMTAwMA"},"participant":[{"individual":{"reference":"Practitioner/93d453dc-1cba-49de-8835-be7972515216"}}],"period":{"end":"1989-04-07T12:05:00-04:00","start":"1989-04-07T11:50:00-04:00"},"reason":[{"coding":[{"code":"55822004","display":"Hyperlipidemia","system":"http://snomed.info/sct"}]}],"resourceType":"Encounter","serviceProvider":{"reference":"Organization/1a60b448-1ca4-42bf-9155-499a2623d4bb"},"status":"finished","subject":{"reference":"Patient/00cb33f3-3c47-48f0-8606-ae2c82231e85"},"type":[{"coding":[{"code":"390906007","display":"Follow-up encounter","system":"http://snomed.info/sct"}],"text":"Follow-up encounter"}]}},{"resource":{"class":{"code":"inpatient"},"id":"232c5b86-1f46-412a-8b9e-81edc8db96ff","meta":{"lastUpdated":"2019-04-09T09:54:31.362115+00:00","versionId":"MTU1NDgwMzY3MTM2MjExNTAwMA"},"participant":[{"individual":{"reference":"Practitioner/93d453dc-1cba-49de-8835-be7972515216"}}],"period":{"end":"1995-01-31T13:50:00-05:00","start":"1995-01-30T10:50:00-05:00"},"resourceType":"Encounter","serviceProvider":{"reference":"Organization/1a60b448-1ca4-42bf-9155-499a2623d4bb"},"status":"finished","subject":{"reference":"Patient/00cb33f3-3c47-48f0-8606-ae2c82231e85"},"type":[{"coding":[{"code":"185347001","display":"Encounter for problem","system":"http://snomed.info/sct"}],"text":"Encounter for problem"}]}},{"resource":{"class":{"code":"inpatient"},"id":"36ea8841-6eb6-43d9-b20d-f2e1761c2077","meta":{"lastUpdated":"2019-04-09T09:54:30.158814+00:00","versionId":"MTU1NDgwMzY3MDE1ODgxNDAwMA"},"participant":[{"individual":{"reference":"Practitioner/93d453dc-1cba-49de-8835-be7972515216"}}],"period":{"end":"1994-09-27T13:50:00-04:00","start":"1994-09-26T11:50:00-04:00"},"resourceType":"Encounter","serviceProvider":{"reference":"Organization/1a60b448-1ca4-42bf-9155-499a2623d4bb"},"status":"finished","subject":{"reference":"Patient/00cb33f3-3c47-48f0-8606-ae2c82231e85"},"type":[{"coding":[{"code":"185347001","display":"Encounter for problem","system":"http://snomed.info/sct"}],"text":"Encounter for problem"}]}},{"resource":{"class":{"code":"inpatient"},"id":"37ce5606-84d6-435b-abd1-1d4b6ab0ad41","meta":{"lastUpdated":"2019-04-09T09:54:32.400130+00:00","versionId":"MTU1NDgwMzY3MjQwMDEzMDAwMA"},"participant":[{"individual":{"reference":"Practitioner/93d453dc-1cba-49de-8835-be7972515216"}}],"period":{"end":"1995-03-30T13:50:00-05:00","start":"1995-03-29T10:50:00-05:00"},"resourceType":"Encounter","serviceProvider":{"reference":"Organization/1a60b448-1ca4-42bf-9155-499a2623d4bb"},"status":"finished","subject":{"reference":"Patient/00cb33f3-3c47-48f0-8606-ae2c82231e85"},"type":[{"coding":[{"code":"185347001","display":"Encounter for problem","system":"http://snomed.info/sct"}],"text":"Encounter for problem"}]}},{"resource":{"class":{"code":"inpatient"},"id":"3af54edd-c12b-497c-b142-1d7b5f9f143e","meta":{"lastUpdated":"2019-04-09T09:54:24.960049+00:00","versionId":"MTU1NDgwMzY2NDk2MDA0OTAwMA"},"participant":[{"individual":{"reference":"Practitioner/93d453dc-1cba-49de-8835-be7972515216"}}],"period":{"end":"1993-06-09T14:50:00-04:00","start":"1993-06-08T11:50:00-04:00"},"resourceType":"Encounter","serviceProvider":{"reference":"Organization/1a60b448-1ca4-42bf-9155-499a2623d4bb"},"status":"finished","subject":{"reference":"Patient/00cb33f3-3c47-48f0-8606-ae2c82231e85"},"type":[{"coding":[{"code":"185347001","display":"Encounter for problem","system":"http://snomed.info/sct"}],"text":"Encounter for problem"}]}},{"resource":{"class":{"code":"inpatient"},"id":"3c795481-1128-4b25-a68b-e2d5d267596a","meta":{"lastUpdated":"2019-04-09T09:54:26.003876+00:00","versionId":"MTU1NDgwMzY2NjAwMzg3NjAwMA"},"participant":[{"individual":{"reference":"Practitioner/93d453dc-1cba-49de-8835-be7972515216"}}],"period":{"end":"1993-08-12T11:50:00-04:00","start":"1993-08-11T11:50:00-04:00"},"resourceType":"Encounter","serviceProvider":{"reference":"Organization/1a60b448-1ca4-42bf-9155-499a2623d4bb"},"status":"finished","subject":{"reference":"Patient/00cb33f3-3c47-48f0-8606-ae2c82231e85"},"type":[{"coding":[{"code":"185347001","display":"Encounter for problem","system":"http://snomed.info/sct"}],"text":"Encounter for problem"}]}},{"resource":{"class":{"code":"inpatient"},"id":"3e04856c-5a4a-416a-aae1-e3b58e805dbd","meta":{"lastUpdated":"2019-04-09T09:54:32.404500+00:00","versionId":"MTU1NDgwMzY3MjQwNDUwMDAwMA"},"participant":[{"individual":{"reference":"Practitioner/93d453dc-1cba-49de-8835-be7972515216"}}],"period":{"end":"1995-04-29T14:50:00-04:00","start":"1995-04-28T11:50:00-04:00"},"resourceType":"Encounter","serviceProvider":{"reference":"Organization/1a60b448-1ca4-42bf-9155-499a2623d4bb"},"status":"finished","subject":{"reference":"Patient/00cb33f3-3c47-48f0-8606-ae2c82231e85"},"type":[{"coding":[{"code":"185347001","display":"Encounter for problem","system":"http://snomed.info/sct"}],"text":"Encounter for problem"}]}},{"resource":{"class":{"code":"inpatient"},"id":"418b2083-1875-4419-bec6-fa3f2a512c36","meta":{"lastUpdated":"2019-04-09T09:54:33.471495+00:00","versionId":"MTU1NDgwMzY3MzQ3MTQ5NTAwMA"},"participant":[{"individual":{"reference":"Practitioner/93d453dc-1cba-49de-8835-be7972515216"}}],"period":{"end":"1995-10-02T13:50:00-04:00","start":"1995-10-01T11:50:00-04:00"},"resourceType":"Encounter","serviceProvider":{"reference":"Organization/1a60b448-1ca4-42bf-9155-499a2623d4bb"},"status":"finished","subject":{"reference":"Patient/00cb33f3-3c47-48f0-8606-ae2c82231e85"},"type":[{"coding":[{"code":"185347001","display":"Encounter for problem","system":"http://snomed.info/sct"}],"text":"Encounter for problem"}]}},{"resource":{"class":{"code":"inpatient"},"id":"4284ffd2-be86-4de4-9d0f-3619812a79ba","meta":{"lastUpdated":"2019-04-09T09:54:29.151260+00:00","versionId":"MTU1NDgwMzY2OTE1MTI2MDAwMA"},"participant":[{"individual":{"reference":"Practitioner/93d453dc-1cba-49de-8835-be7972515216"}}],"period":{"end":"1994-05-27T11:50:00-04:00","start":"1994-05-26T11:50:00-04:00"},"resourceType":"Encounter","serviceProvider":{"reference":"Organization/1a60b448-1ca4-42bf-9155-499a2623d4bb"},"status":"finished","subject":{"reference":"Patient/00cb33f3-3c47-48f0-8606-ae2c82231e85"},"type":[{"coding":[{"code":"185347001","display":"Encounter for problem","system":"http://snomed.info/sct"}],"text":"Encounter for problem"}]}},{"resource":{"class":{"code":"inpatient"},"id":"4371294b-783c-4559-b626-f193bbaf3946","meta":{"lastUpdated":"2019-04-09T09:54:27.116901+00:00","versionId":"MTU1NDgwMzY2NzExNjkwMTAwMA"},"participant":[{"individual":{"reference":"Practitioner/93d453dc-1cba-49de-8835-be7972515216"}}],"period":{"end":"1993-09-15T12:50:00-04:00","start":"1993-09-14T11:50:00-04:00"},"resourceType":"Encounter","serviceProvider":{"reference":"Organization/1a60b448-1ca4-42bf-9155-499a2623d4bb"},"status":"finished","subject":{"reference":"Patient/00cb33f3-3c47-48f0-8606-ae2c82231e85"},"type":[{"coding":[{"code":"185347001","display":"Encounter for problem","system":"http://snomed.info/sct"}],"text":"Encounter for problem"}]}},{"resource":{"class":{"code":"inpatient"},"id":"448ac4b5-d972-40a2-8415-aeff4b99c456","meta":{"lastUpdated":"2019-04-09T09:54:24.965177+00:00","versionId":"MTU1NDgwMzY2NDk2NTE3NzAwMA"},"participant":[{"individual":{"reference":"Practitioner/93d453dc-1cba-49de-8835-be7972515216"}}],"period":{"end":"1993-05-08T11:50:00-04:00","start":"1993-05-07T11:50:00-04:00"},"resourceType":"Encounter","serviceProvider":{"reference":"Organization/1a60b448-1ca4-42bf-9155-499a2623d4bb"},"status":"finished","subject":{"reference":"Patient/00cb33f3-3c47-48f0-8606-ae2c82231e85"},"type":[{"coding":[{"code":"185347001","display":"Encounter for problem","system":"http://snomed.info/sct"}],"text":"Encounter for problem"}]}},{"resource":{"class":{"code":"inpatient"},"id":"49c9cb13-4f28-41c4-be3e-17ddd905612b","meta":{"lastUpdated":"2019-04-09T09:54:29.151076+00:00","versionId":"MTU1NDgwMzY2OTE1MTA3NjAwMA"},"participant":[{"individual":{"reference":"Practitioner/93d453dc-1cba-49de-8835-be7972515216"}}],"period":{"end":"1994-06-24T12:50:00-04:00","start":"1994-06-23T11:50:00-04:00"},"resourceType":"Encounter","serviceProvider":{"reference":"Organization/1a60b448-1ca4-42bf-9155-499a2623d4bb"},"status":"finished","subject":{"reference":"Patient/00cb33f3-3c47-48f0-8606-ae2c82231e85"},"type":[{"coding":[{"code":"185347001","display":"Encounter for problem","system":"http://snomed.info/sct"}],"text":"Encounter for problem"}]}},{"resource":{"class":{"code":"inpatient"},"id":"4cb5aae1-c962-4201-80a2-db8789c78a72","meta":{"lastUpdated":"2019-04-09T09:54:27.113869+00:00","versionId":"MTU1NDgwMzY2NzExMzg2OTAwMA"},"participant":[{"individual":{"reference":"Practitioner/93d453dc-1cba-49de-8835-be7972515216"}}],"period":{"end":"1993-10-17T13:50:00-04:00","start":"1993-10-16T11:50:00-04:00"},"resourceType":"Encounter","serviceProvider":{"reference":"Organization/1a60b448-1ca4-42bf-9155-499a2623d4bb"},"status":"finished","subject":{"reference":"Patient/00cb33f3-3c47-48f0-8606-ae2c82231e85"},"type":[{"coding":[{"code":"185347001","display":"Encounter for problem","system":"http://snomed.info/sct"}],"text":"Encounter for problem"}]}},{"resource":{"class":{"code":"ambulatory"},"id":"59929b84-2d05-47f8-9356-b051c340271c","meta":{"lastUpdated":"2019-04-09T09:54:14.728089+00:00","versionId":"MTU1NDgwMzY1NDcyODA4OTAwMA"},"participant":[{"individual":{"reference":"Practitioner/93d453dc-1cba-49de-8835-be7972515216"}}],"period":{"end":"1985-04-08T11:05:00-05:00","start":"1985-04-08T10:50:00-05:00"},"reason":[{"coding":[{"code":"55822004","display":"Hyperlipidemia","system":"http://snomed.info/sct"}]}],"resourceType":"Encounter","serviceProvider":{"reference":"Organization/1a60b448-1ca4-42bf-9155-499a2623d4bb"},"status":"finished","subject":{"reference":"Patient/00cb33f3-3c47-48f0-8606-ae2c82231e85"},"type":[{"coding":[{"code":"390906007","display":"Follow-up encounter","system":"http://snomed.info/sct"}],"text":"Follow-up encounter"}]}},{"resource":{"class":{"code":"ambulatory"},"id":"59d08f3d-f0c1-4019-9e4f-b4736cf2b496","meta":{"lastUpdated":"2019-04-09T09:54:20.853509+00:00","versionId":"MTU1NDgwMzY2MDg1MzUwOTAwMA"},"participant":[{"individual":{"reference":"Practitioner/93d453dc-1cba-49de-8835-be7972515216"}}],"period":{"end":"1991-06-01T12:05:00-04:00","start":"1991-06-01T11:50:00-04:00"},"reason":[{"coding":[{"code":"68496003","display":"Polyp of colon","system":"http://snomed.info/sct"}]}],"resourceType":"Encounter","serviceProvider":{"reference":"Organization/1a60b448-1ca4-42bf-9155-499a2623d4bb"},"status":"finished","subject":{"reference":"Patient/00cb33f3-3c47-48f0-8606-ae2c82231e85"},"type":[{"coding":[{"code":"185347001","display":"Encounter for problem","system":"http://snomed.info/sct"}],"text":"Encounter for problem"}]}},{"resource":{"class":{"code":"WELLNESS"},"id":"5bac2419-1501-4c4c-92d4-46243ec4599c","meta":{"lastUpdated":"2019-04-09T09:54:29.161726+00:00","versionId":"MTU1NDgwMzY2OTE2MTcyNjAwMA"},"participant":[{"individual":{"reference":"Practitioner/93d453dc-1cba-49de-8835-be7972515216"}}],"period":{"end":"1994-07-11T12:20:00-04:00","start":"1994-07-11T11:50:00-04:00"},"resourceType":"Encounter","serviceProvider":{"reference":"Organization/1a60b448-1ca4-42bf-9155-499a2623d4bb"},"status":"finished","subject":{"reference":"Patient/00cb33f3-3c47-48f0-8606-ae2c82231e85"},"type":[{"coding":[{"code":"185349003","display":"Encounter for check up (procedure)","system":"http://snomed.info/sct"}],"text":"Encounter for check up (procedure)"}]}},{"resource":{"class":{"code":"inpatient"},"id":"5e64e9b7-9809-4b61-a613-1b03301ac949","meta":{"lastUpdated":"2019-04-09T09:54:28.158439+00:00","versionId":"MTU1NDgwMzY2ODE1ODQzOTAwMA"},"participant":[{"individual":{"reference":"Practitioner/93d453dc-1cba-49de-8835-be7972515216"}}],"period":{"end":"1994-02-17T13:50:00-05:00","start":"1994-02-16T10:50:00-05:00"},"resourceType":"Encounter","serviceProvider":{"reference":"Organization/1a60b448-1ca4-42bf-9155-499a2623d4bb"},"status":"finished","subject":{"reference":"Patient/00cb33f3-3c47-48f0-8606-ae2c82231e85"},"type":[{"coding":[{"code":"185347001","display":"Encounter for problem","system":"http://snomed.info/sct"}],"text":"Encounter for problem"}]}},{"resource":{"class":{"code":"inpatient"},"id":"5fa3f38a-28b7-4b4f-86e5-a772e8a346ff","meta":{"lastUpdated":"2019-04-09T09:54:33.469740+00:00","versionId":"MTU1NDgwMzY3MzQ2OTc0MDAwMA"},"participant":[{"individual":{"reference":"Practitioner/93d453dc-1cba-49de-8835-be7972515216"}}],"period":{"end":"1995-07-31T11:50:00-04:00","start":"1995-07-30T11:50:00-04:00"},"resourceType":"Encounter","serviceProvider":{"reference":"Organization/1a60b448-1ca4-42bf-9155-499a2623d4bb"},"status":"finished","subject":{"reference":"Patient/00cb33f3-3c47-48f0-8606-ae2c82231e85"},"type":[{"coding":[{"code":"185347001","display":"Encounter for problem","system":"http://snomed.info/sct"}],"text":"Encounter for problem"}]}},{"resource":{"class":{"code":"inpatient"},"id":"67f3b2e5-7eb8-4eda-9280-a24c21f9824e","meta":{"lastUpdated":"2019-04-09T09:54:33.479924+00:00","versionId":"MTU1NDgwMzY3MzQ3OTkyNDAwMA"},"participant":[{"individual":{"reference":"Practitioner/93d453dc-1cba-49de-8835-be7972515216"}}],"period":{"end":"1995-06-28T12:50:00-04:00","start":"1995-06-27T11:50:00-04:00"},"resourceType":"Encounter","serviceProvider":{"reference":"Organization/1a60b448-1ca4-42bf-9155-499a2623d4bb"},"status":"finished","subject":{"reference":"Patient/00cb33f3-3c47-48f0-8606-ae2c82231e85"},"type":[{"coding":[{"code":"185347001","display":"Encounter for problem","system":"http://snomed.info/sct"}],"text":"Encounter for problem"}]}},{"resource":{"class":{"code":"ambulatory"},"id":"690f0ae0-21b1-4086-90ee-1b65a657d604","meta":{"lastUpdated":"2019-04-09T09:54:12.464684+00:00","versionId":"MTU1NDgwMzY1MjQ2NDY4NDAwMA"},"participant":[{"individual":{"reference":"Practitioner/93d453dc-1cba-49de-8835-be7972515216"}}],"period":{"end":"1970-04-12T11:05:00-05:00","start":"1970-04-12T10:50:00-05:00"},"reason":[{"coding":[{"code":"55822004","display":"Hyperlipidemia","system":"http://snomed.info/sct"}]}],"resourceType":"Encounter","serviceProvider":{"reference":"Organization/1a60b448-1ca4-42bf-9155-499a2623d4bb"},"status":"finished","subject":{"reference":"Patient/00cb33f3-3c47-48f0-8606-ae2c82231e85"},"type":[{"coding":[{"code":"390906007","display":"Follow-up encounter","system":"http://snomed.info/sct"}],"text":"Follow-up encounter"}]}},{"resource":{"class":{"code":"ambulatory"},"id":"6c14c19d-713a-4dc8-909e-8d3639c2620e","meta":{"lastUpdated":"2019-04-09T09:54:19.846210+00:00","versionId":"MTU1NDgwMzY1OTg0NjIxMDAwMA"},"participant":[{"individual":{"reference":"Practitioner/93d453dc-1cba-49de-8835-be7972515216"}}],"period":{"end":"1990-04-07T12:05:00-04:00","start":"1990-04-07T11:50:00-04:00"},"reason":[{"coding":[{"code":"55822004","display":"Hyperlipidemia","system":"http://snomed.info/sct"}]}],"resourceType":"Encounter","serviceProvider":{"reference":"Organization/1a60b448-1ca4-42bf-9155-499a2623d4bb"},"status":"finished","subject":{"reference":"Patient/00cb33f3-3c47-48f0-8606-ae2c82231e85"},"type":[{"coding":[{"code":"390906007","display":"Follow-up encounter","system":"http://snomed.info/sct"}],"text":"Follow-up encounter"}]}},{"resource":{"class":{"code":"ambulatory"},"id":"6dff029c-a384-4585-b4f4-601c6d0045f7","meta":{"lastUpdated":"2019-04-09T09:54:28.166997+00:00","versionId":"MTU1NDgwMzY2ODE2Njk5NzAwMA"},"participant":[{"individual":{"reference":"Practitioner/93d453dc-1cba-49de-8835-be7972515216"}}],"period":{"end":"1994-04-06T12:05:00-04:00","start":"1994-04-06T11:50:00-04:00"},"reason":[{"coding":[{"code":"55822004","display":"Hyperlipidemia","system":"http://snomed.info/sct"}]}],"resourceType":"Encounter","serviceProvider":{"reference":"Organization/1a60b448-1ca4-42bf-9155-499a2623d4bb"},"status":"finished","subject":{"reference":"Patient/00cb33f3-3c47-48f0-8606-ae2c82231e85"},"type":[{"coding":[{"code":"390906007","display":"Follow-up encounter","system":"http://snomed.info/sct"}],"text":"Follow-up encounter"}]}},{"resource":{"class":{"code":"ambulatory"},"id":"6f03ef24-4792-4aa5-81a9-f7303c89cd80","meta":{"lastUpdated":"2019-04-09T09:54:13.506374+00:00","versionId":"MTU1NDgwMzY1MzUwNjM3NDAwMA"},"participant":[{"individual":{"reference":"Practitioner/93d453dc-1cba-49de-8835-be7972515216"}}],"period":{"end":"1978-04-10T11:05:00-05:00","start":"1978-04-10T10:50:00-05:00"},"reason":[{"coding":[{"code":"55822004","display":"Hyperlipidemia","system":"http://snomed.info/sct"}]}],"resourceType":"Encounter","serviceProvider":{"reference":"Organization/1a60b448-1ca4-42bf-9155-499a2623d4bb"},"status":"finished","subject":{"reference":"Patient/00cb33f3-3c47-48f0-8606-ae2c82231e85"},"type":[{"coding":[{"code":"390906007","display":"Follow-up encounter","system":"http://snomed.info/sct"}],"text":"Follow-up encounter"}]}},{"resource":{"class":{"code":"ambulatory"},"id":"6f81e014-a1bc-403b-834e-fe0213804c69","meta":{"lastUpdated":"2019-04-09T09:54:20.860228+00:00","versionId":"MTU1NDgwMzY2MDg2MDIyODAwMA"},"participant":[{"individual":{"reference":"Practitioner/93d453dc-1cba-49de-8835-be7972515216"}}],"period":{"end":"1991-04-07T12:05:00-04:00","start":"1991-04-07T11:50:00-04:00"},"reason":[{"coding":[{"code":"55822004","display":"Hyperlipidemia","system":"http://snomed.info/sct"}]}],"resourceType":"Encounter","serviceProvider":{"reference":"Organization/1a60b448-1ca4-42bf-9155-499a2623d4bb"},"status":"finished","subject":{"reference":"Patient/00cb33f3-3c47-48f0-8606-ae2c82231e85"},"type":[{"coding":[{"code":"390906007","display":"Follow-up encounter","system":"http://snomed.info/sct"}],"text":"Follow-up encounter"}]}},{"resource":{"class":{"code":"inpatient"},"id":"8327df55-8afa-4e9d-9b67-927fd36183f1","meta":{"lastUpdated":"2019-04-09T09:54:23.941805+00:00","versionId":"MTU1NDgwMzY2Mzk0MTgwNTAwMA"},"participant":[{"individual":{"reference":"Practitioner/93d453dc-1cba-49de-8835-be7972515216"}}],"period":{"end":"1993-01-08T12:50:00-05:00","start":"1993-01-07T10:50:00-05:00"},"resourceType":"Encounter","serviceProvider":{"reference":"Organization/1a60b448-1ca4-42bf-9155-499a2623d4bb"},"status":"finished","subject":{"reference":"Patient/00cb33f3-3c47-48f0-8606-ae2c82231e85"},"type":[{"coding":[{"code":"185347001","display":"Encounter for problem","system":"http://snomed.info/sct"}],"text":"Encounter for problem"}]}},{"resource":{"class":{"code":"ambulatory"},"id":"9b2e5cd7-c347-4b57-b597-f70200aff63f","meta":{"lastUpdated":"2019-04-09T09:54:14.728090+00:00","versionId":"MTU1NDgwMzY1NDcyODA5MDAwMA"},"participant":[{"individual":{"reference":"Practitioner/93d453dc-1cba-49de-8835-be7972515216"}}],"period":{"end":"1986-04-08T11:05:00-05:00","start":"1986-04-08T10:50:00-05:00"},"reason":[{"coding":[{"code":"55822004","display":"Hyperlipidemia","system":"http://snomed.info/sct"}]}],"resourceType":"Encounter","serviceProvider":{"reference":"Organization/1a60b448-1ca4-42bf-9155-499a2623d4bb"},"status":"finished","subject":{"reference":"Patient/00cb33f3-3c47-48f0-8606-ae2c82231e85"},"type":[{"coding":[{"code":"390906007","display":"Follow-up encounter","system":"http://snomed.info/sct"}],"text":"Follow-up encounter"}]}},{"resource":{"class":{"code":"inpatient"},"id":"9ebcdc45-d3a9-4a75-a65d-f811697a978f","meta":{"lastUpdated":"2019-04-09T09:54:23.939358+00:00","versionId":"MTU1NDgwMzY2MzkzOTM1ODAwMA"},"participant":[{"individual":{"reference":"Practitioner/93d453dc-1cba-49de-8835-be7972515216"}}],"period":{"end":"1993-02-10T12:50:00-05:00","start":"1993-02-09T10:50:00-05:00"},"resourceType":"Encounter","serviceProvider":{"reference":"Organization/1a60b448-1ca4-42bf-9155-499a2623d4bb"},"status":"finished","subject":{"reference":"Patient/00cb33f3-3c47-48f0-8606-ae2c82231e85"},"type":[{"coding":[{"code":"185347001","display":"Encounter for problem","system":"http://snomed.info/sct"}],"text":"Encounter for problem"}]}}],"link":[{"url":"https://syntheticmass.mitre.org/v1/fhir/Patient/00cb33f3-3c47-48f0-8606-ae2c82231e85/$everything?_count=100&page_token=CoIBcHJvamVjdHMvc3ludGhlYS9sb2NhdGlvbnMvdXMtY2VudHJhbDEvZGF0YXNldHMvMjAxOTAyL2ZoaXJTdG9yZXMvc3ludGhldGljLW1hc3MvZmhpci9QYXRpZW50LzAwY2IzM2YzLTNjNDctNDhmMC04NjA2LWFlMmM4MjIzMWU4NSBk","relation":"previous"},{"url":"https://syntheticmass.mitre.org/v1/fhir/Patient/00cb33f3-3c47-48f0-8606-ae2c82231e85/$everything?_count=100&page_token=CoIBcHJvamVjdHMvc3ludGhlYS9sb2NhdGlvbnMvdXMtY2VudHJhbDEvZGF0YXNldHMvMjAxOTAyL2ZoaXJTdG9yZXMvc3ludGhldGljLW1hc3MvZmhpci9QYXRpZW50LzAwY2IzM2YzLTNjNDctNDhmMC04NjA2LWFlMmM4MjIzMWU4NSCsAg%3D%3D","relation":"next"}],"total":1002}
